Sample,Ax,Ay,Az,Gx,Gy,Gz
0,-6183,6699,-4140,173,1669,-1987
1,1791,-453,-6893,1076,-389,-1661
2,-20,-3505,-3196,236,1577,-300
3,4969,-7795,6705,974,1396,-1598
4,-465,-7035,-7405,379,-404,1734
5,-1480,-4768,-2301,1603,-1827,1687
6,-491,-5940,1169,-217,-33,792
7,-1605,-2865,-3095,-1737,-360,1043
8,-6705,1138,2431,290,688,-1048
9,6935,4092,4148,1613,-1262,1004
10,-7685,-5963,4507,-18,-1804,900
11,1473,1847,6574,1602,1319,-1165
12,4781,361,443,-370,-626,810
13,4383,6699,-7075,-1275,1865,1587
14,-4450,-5967,-53,279,1271,-160
15,7108,-2288,-577,1808,-745,-1699
16,-2357,4453,-3031,1603,-1948,-383
17,3504,4084,770,-1755,233,1890
18,-1683,-88,-7798,-428,51,534
19,-4510,839,6700,992,-1476,919
20,-7775,-418,-7893,-1841,1139,1482
21,-3132,-6233,4967,-1391,1056,-1184
22,-2121,-5217,3319,544,1118,41
23,-742,-7949,6120,-1762,364,-1426
24,6132,858,7866,814,-668,1716
25,5340,-5742,3921,387,-1328,-376
26,-3954,-4064,7083,-276,-1268,-965
27,882,447,-2956,401,1661,-1809
28,-2663,3798,-5990,795,-923,1485
29,-6075,5478,-4526,1396,-1243,-1627
30,-7266,-2469,-5931,844,1628,-973
31,-3756,2631,-6262,-458,-705,-1042
32,-7318,2831,-7737,-1988,1910,1643
33,3987,-4490,-5261,338,1188,-138
34,-94,-4506,2939,783,-1883,1473
35,-2319,2079,5154,1020,-758,1351
36,-4216,-7335,-1822,-756,298,-283
37,6861,7668,-7893,792,-274,650
38,3506,-5569,4080,-984,219,505
39,-7858,-5625,7596,583,-1647,-1868
40,-672,5685,-1916,-1841,-652,-1174
41,-1272,-3343,-7483,-83,680,1962
42,5127,5213,-1453,464,217,-1759
43,-1350,1321,5530,513,-1794,255
44,-1032,5868,-244,-3,933,934
45,-1497,-403,-7286,81,1575,-1726
46,1446,19,-4064,-110,107,286
47,3225,1950,-6480,1480,1477,1213
48,3385,5790,3137,-626,-302,-265
49,6999,6242,-1325,-1738,904,1195
50,2965,-3221,-5619,1541,1594,-389
51,3472,-2532,-3477,1788,-740,-1948
52,7871,3430,790,-1394,-1635,-1724
53,-6010,-7829,-5634,832,-1067,344
54,1152,-4893,-1608,-874,-566,1021
55,4286,-3406,2065,-84,-252,-1991
56,-6324,5088,-3028,-89,1990,1557
57,6636,-99,-3581,-1530,1110,1919
58,4065,4958,6760,1218,-104,52
59,2633,2626,4472,-645,1655,-273
60,7032,7861,5169,-1431,1753,-149
61,7680,7121,7803,-358,-1771,-1296
62,-4314,-241,7209,668,-821,350
63,5343,7673,-6539,1524,-331,33
64,-1737,-4140,-1524,966,-1763,1706
65,7364,-568,7621,-356,1773,1324
66,7357,300,-4349,1748,1602,-626
67,3651,1392,4916,1285,-183,-426
68,1648,2439,-6465,-857,-1247,1165
69,7301,3923,-3918,1077,-1335,-25
70,-6635,5111,-405,120,-1313,-1610
71,-4171,2240,-5403,-513,1644,-1782
72,-5346,7187,-2590,-926,280,-616
73,6990,985,6684,489,-1979,1683
74,-6474,-3407,-501,-979,-1949,1760
75,-213,-2352,2282,1766,1116,42
76,4726,-7969,-1649,1476,-865,-237
77,-6139,-3047,-1989,297,1008,-379
78,5614,6832,-3213,-1301,1476,-1381
79,-7465,-5291,-5717,-1354,-1345,-1760
80,7649,5235,-2218,1,-1107,-1059
81,-2054,7783,-4731,-528,-456,-1396
82,503,-982,6595,-521,901,-1860
83,2590,-7062,2845,-932,-1576,309
84,-2713,7219,1182,223,-1695,1802
85,-4426,5687,-7571,-183,-537,-1239
86,-5327,259,6863,888,1240,1427
87,539,6924,4665,1226,569,648
88,-4577,-3280,2117,26,-1023,152
89,-7494,-5035,3081,1919,878,-362
90,7528,2156,5190,-847,-697,-1941
91,-1548,-6340,-4226,657,-1531,-27
92,-1415,2868,6150,-1149,39,1778
93,-3709,-3319,6992,451,626,-622
94,-3973,-501,3939,791,-1983,-91
95,-6588,-4260,6382,-1410,-97,1209
96,1745,-7558,1261,-1110,60,-1731
97,-373,-6169,2668,-701,1370,-210
98,-5079,-5105,-3537,-829,-1522,-1931
99,-1679,-2721,2271,-997,769,1502
100,740,6539,-1071,701,-237,-1340
101,-1954,-2329,-1753,1678,-1848,-1330
102,-2239,-3941,-5205,-413,1227,-541
103,-5100,7814,1276,-471,-1935,249
104,7952,-7620,-3897,1249,-1931,-1701
105,-404,5571,5544,-68,1676,-1541
106,-3399,-1938,1513,1513,-1568,-478
107,6436,4977,1197,-1575,-1655,978
108,-6079,6544,-1517,118,1976,-1475
109,-4533,6996,2593,760,-1955,-797
110,-3360,-5497,-6239,-678,1965,-293
111,4120,-7996,1499,-1122,927,-1459
112,-1529,2360,-5732,828,-448,-532
113,6941,-4579,-3924,1050,-1175,-1168
114,-5518,-5414,5342,1147,-1356,1184
115,2057,2475,-3137,1637,-1895,1922
116,-3651,6555,6895,1941,1883,-1665
117,1818,5454,-6082,-1293,-824,-1033
118,5039,6985,-2387,-618,-1559,-15
119,1168,5209,1127,-405,1095,1754
120,-6488,-7162,2084,1662,-1729,-143
121,1807,-6904,-6675,301,35,1919
122,1263,6246,250,-58,-1025,498
123,5817,-1,-5835,930,220,-731
124,394,6493,6298,-453,768,598
125,6678,969,-2829,1244,-257,992
126,2256,6530,7025,-184,1653,738
127,6300,5951,-3709,-1760,1026,1116
128,6387,-6016,3732,865,421,-1368
129,-163,-7005,789,-1244,-1791,847
130,1872,4671,-7590,846,-330,1178
131,-96,-6288,-3652,1033,-302,872
132,-2156,-3434,-735,-1126,-1613,1982
133,-2242,-5179,3448,25,404,553
134,5319,4330,4545,250,-433,1653
135,-4150,-6997,5505,306,-224,970
136,268,731,-3684,1860,-1440,-165
137,-7015,-5016,-7531,-1554,-821,1238
138,-6079,-3835,-2994,759,1916,-464
139,3654,-1787,6929,-793,-139,-146
140,-4713,4189,3485,826,423,630
141,5682,-5087,4370,851,-130,419
142,-3770,7877,-3991,-1489,-1566,1363
143,-7473,-1795,-3138,96,1728,-31
144,-6106,136,-3703,-1833,962,-873
145,-5516,2329,6025,-361,-920,196
146,555,-7759,7923,-797,-1353,-322
147,6857,4854,-4792,503,1360,561
148,-1697,-6004,-7875,1335,379,-262
149,-4402,-5417,5776,-1353,-1700,1367
150,-875,-603,6029,-965,-1715,1679
151,3922,3795,-3563,948,771,1848
152,5739,1619,6280,1241,-1880,-1938
153,4534,74,615,-1259,-905,19
154,5033,-812,-6528,1664,1561,-1924
155,1790,-4866,-6906,-383,239,-203
156,6450,2170,785,186,-1742,-1223
157,-6,4537,6771,182,-1806,-1803
158,7653,1181,-3901,896,1931,-594
159,6482,7380,-2164,-980,715,-929
160,3607,7467,-1781,-766,-459,491
161,6958,4405,5843,1687,1055,-1529
162,-1351,1857,-3541,175,399,379
163,-7685,-972,5552,912,1614,-904
164,475,1065,2734,-1749,-1719,915
165,-3865,960,-5283,1599,-928,859
166,-3348,-7649,-7153,-905,13,-922
167,3850,501,-7940,-844,-923,-1837
168,-5996,2069,6364,1860,-989,1681
169,-1965,2917,5131,1654,-1747,269
170,-1583,7759,5410,154,-1177,1549
171,1038,4296,3945,-1041,223,234
172,-1206,2056,-7068,-348,1323,-498
173,-1923,3865,-2156,1507,-1206,787
174,6697,7991,-3354,-1918,1009,553
175,4644,-7568,-5341,-1212,-874,1700
176,-1411,4013,-3185,437,1159,-1708
177,4011,-1364,1051,-725,349,1582
178,-437,6280,3283,-628,-835,1461
179,-2780,-6742,1070,666,1280,1473
180,-3263,664,5577,-880,-687,-908
181,4936,-2676,2391,1903,428,-1199
182,-2398,2766,-3027,-933,1037,871
183,-7686,7656,6477,0,-1898,-428
184,-6090,7156,-6809,-1866,-1021,391
185,-6763,2126,-5543,914,1963,-1899
186,7983,3348,-4180,407,1614,952
187,-2246,-1604,-3003,1791,1918,-571
188,-7666,7471,-1845,1619,-990,-704
189,-7924,-7266,-1548,-982,689,-1479
190,179,-4234,-6028,917,811,1086
191,-4088,-5506,4675,-275,-1503,449
192,2836,-1706,4189,-1575,621,-1564
193,-7874,-2269,3342,-1487,-336,1408
194,1788,-2862,7156,661,379,-1234
195,6425,-7096,-2384,-1468,1254,-446
196,5261,1654,-1210,-1439,-955,192
197,2926,466,2828,1837,1387,539
198,-4072,-267,2921,1589,1786,-1380
199,-2513,4255,-332,-524,664,-976
200,-1369,-1991,-1283,789,591,533
201,992,-1617,7362,-530,-1585,974
202,-4995,-4232,5124,449,986,-401
203,4071,5379,-1600,559,262,-574
204,4938,1462,6982,49,224,-1367
205,-3426,-3803,952,-224,58,-1543
206,-2413,1043,-6740,974,1576,417
207,7684,-292,-2841,-780,890,405
208,-1100,6012,-198,-1205,-1825,-61
209,-7173,4910,5422,987,879,693
210,-7571,-7570,-443,-540,-1068,1643
211,5012,3670,4723,1559,-948,-495
212,338,-7254,-7154,472,1877,-165
213,2767,-2827,7458,135,-877,1365
214,-6308,-2552,-1955,-941,-1168,-463
215,-2991,1684,1818,-1289,1586,693
216,-6510,-3909,-7522,736,1908,-263
217,-7879,-6069,1275,374,-741,178
218,-2056,-5460,-4427,-335,154,439
219,6760,-1555,2450,-604,462,-770
220,4123,-1204,2499,-2000,-1988,-1288
221,3998,-698,-3022,168,375,-1325
222,-4955,-6296,-6763,1165,928,-80
223,-7407,-3192,-750,-228,1668,-747
224,7787,-4994,-7491,-376,1687,1641
225,-658,-5186,-4216,691,-1631,-845
226,-4526,7227,-2913,1915,-1848,-1480
227,253,-50,178,1144,-1026,-1133
228,-7326,1905,-916,663,-1215,-1790
229,3087,-5165,-7114,-1296,1020,-1613
230,-1408,7296,6811,1624,-1117,285
231,-1686,-1535,-6432,-617,481,-1815
232,2937,-1541,226,-311,741,-1060
233,1519,-1271,-2452,1511,-1247,1442
234,-5332,-48,-3198,-256,1461,-1969
235,-528,1797,1306,991,787,1937
236,-3743,6471,-7632,-179,-495,518
237,-2736,-4,6176,-1750,1563,113
238,6151,-3100,-2232,1471,1573,971
239,749,1708,-5122,-1498,-983,1721
240,-7599,-2882,-179,915,1971,1887
241,-6406,-1450,-5409,910,-977,-623
242,-4652,-2733,6381,1285,-118,-1081
243,7633,717,-4076,-343,-366,-491
244,-1693,-6169,5735,1348,-229,-1234
245,-1169,-3352,-1699,-1808,373,1097
246,5895,1264,-2545,966,143,-853
247,-4838,4997,-6394,-46,313,-7
248,2142,-7260,6323,-988,-655,564
249,-85,-5801,-6357,-471,-1449,-245
250,7373,121,-7693,905,-199,1300
251,5246,2427,441,1097,-230,1453
252,-7370,156,-3183,702,1003,-1562
253,6658,-263,-3540,-1742,-738,-547
254,2020,3287,-1884,-1618,726,786
255,-3874,-607,-2537,-791,541,1127
256,-6955,7778,3582,1390,84,-1055
257,2027,-3101,-5530,1422,-1395,-944
258,6470,-2122,-1168,304,-1111,-1751
259,5205,1613,-5862,1696,69,-769
260,-7175,-3785,-7738,1078,-517,498
261,-6313,-6849,-7705,808,-1141,640
262,318,7583,-2777,-1156,349,571
263,5329,7528,2034,-1105,1748,-1388
264,4170,-4570,1986,489,1638,806
265,-5645,-6956,3223,-135,-87,193
266,2115,7244,-339,-1158,-1324,-987
267,-4715,1558,-5217,-1644,1634,1956
268,3184,-4867,-1941,-8,-1262,973
269,7827,7199,-5176,128,-481,-1521
270,5651,-3169,2358,-1315,-793,-126
271,-5536,-377,-3783,-921,501,-1760
272,-5514,-1712,-7640,-541,-1373,23
273,-2760,4321,2665,1909,591,254
274,5720,5341,3645,-1164,-1041,-351
275,197,6863,-1913,890,1171,-1516
276,4,-7211,-75,152,1743,1582
277,4926,1887,7730,511,-1835,1466
278,2183,-5714,-2169,-1099,1053,478
279,3455,-5929,4678,1216,-1874,-725
280,-1719,1582,5675,-1234,570,-882
281,-5432,-6488,129,-657,973,-495
282,-6934,572,-1248,1412,482,346
283,5480,506,-2821,-1403,1074,1517
284,-2256,-4817,6169,-220,1784,239
285,-5041,-6917,5397,-291,1608,-1047
286,4524,-6242,-6271,-521,-1563,1032
287,4728,-1465,-7587,186,844,-320
288,-7021,163,-1465,-1365,-970,-1258
289,6649,7913,-1611,1614,-1601,-446
290,-3063,2022,-5668,-566,785,-1679
291,-2834,551,5286,-439,-1144,-1582
292,-1609,3360,-3405,-1887,-199,-816
293,3824,-5399,-6923,1415,-404,979
294,-6139,3783,-7325,-1408,-1783,-1567
295,-4877,-2377,7722,495,-975,-1267
296,-2314,-493,5307,1410,-1021,362
297,-6815,1756,4854,926,1696,-1931
298,-7072,3416,-5755,-109,-64,-1696
299,7178,5367,3306,1229,1219,-1263
300,-1902,3071,-4010,-772,-33,-299
301,1603,-3692,-1056,-1751,-1698,-378
302,-3432,-2093,-1456,-641,-422,-1241
303,-5685,-3414,4252,-1281,1471,-758
304,-6397,6879,2668,-59,838,-430
305,-1980,-7503,-4232,-19,-74,-1929
306,-7198,-5531,1423,-1202,-1665,1901
307,2771,-359,7265,600,-1792,-283
308,-4912,-1862,3769,1774,-234,-1301
309,-6407,5643,-4698,-118,467,-465
310,-1079,7322,-1490,-990,448,315
311,-7073,4764,655,-606,1386,1627
312,-1485,655,-5883,-1940,-1624,-1580
313,4787,-1754,4536,1887,204,1119
314,436,-3110,-807,-177,-754,1192
315,-1416,7233,-4553,40,-804,1135
316,1343,5227,6743,-522,-748,-1246
317,3272,1143,4850,43,455,-1935
318,3580,1285,-5765,1303,-1772,-1466
319,1171,2719,3347,1784,-1101,410
320,4196,4014,5076,342,-355,1457
321,-3055,4784,4571,127,836,1739
322,5527,-4794,4544,-1296,-1216,1001
323,7071,-3473,934,1623,-1903,-13
324,-6611,-26,3008,940,1767,-620
325,-2369,-204,-5928,-8,-289,141
326,-1959,-6722,5862,1691,1423,-628
327,4972,-31,3436,605,-1182,1384
328,1215,4012,-3312,-345,-1531,1113
329,-5243,-7845,2774,1702,-125,1219
330,-3277,-1370,648,427,85,-1508
331,-1305,-2852,743,-1896,-1174,-215
332,2107,7038,1521,27,-960,-1983
333,3550,-7459,7361,-1928,-290,1991
334,5859,6384,-3688,580,745,1812
335,-6701,5061,-2663,1561,-303,1260
336,1476,-3877,-6372,-603,1399,-1040
337,6799,-6499,-3297,125,-1583,-235
338,6832,808,-4679,-485,1795,-1211
339,5203,-2563,1106,-1145,-1261,-969
340,7193,3297,-1525,1847,-1434,-326
341,6398,-6740,-3916,-725,-1743,626
342,4279,-6884,-1065,633,-659,1436
343,-2406,1780,-4945,-896,-407,-1491
344,-4061,-3241,3468,1995,1695,923
345,6100,-7339,-1363,1842,1570,1563
346,-1136,5515,2673,697,1312,202
347,-380,678,3537,1072,-143,-211
348,5758,-7965,5066,-233,1170,-1244
349,-4274,-7391,-7443,-723,1208,-582
350,876,5602,683,181,-171,-1957
351,-7121,-5751,-3360,1068,1,1880
352,2937,6825,-7654,-142,1423,-453
353,-3919,-1473,-1301,940,1649,-1200
354,-3333,4087,6698,-217,-638,-1565
355,-1278,7365,-7928,1244,944,1663
356,5824,-6105,7482,-501,1978,-1777
357,4852,-1377,5664,117,88,622
358,-130,2565,-99,-1726,-28,-1917
359,3635,-6069,-194,-890,1427,1727
360,4332,-2842,2179,-246,1134,-248
361,-7865,-799,427,-1433,-895,1488
362,-3276,-5448,-1716,1464,-1665,-414
363,-2103,3952,7203,1316,1467,-221
364,3094,-6717,629,1546,1619,505
365,2280,7565,-1515,-913,256,1542
366,1702,-94,6507,181,1458,-1823
367,-4515,6773,-2457,1799,547,676
368,-6136,-5499,5942,-1668,-651,-175
369,-6985,-7733,7988,-1835,1847,73
370,-1317,3906,7190,1428,821,-1135
371,2615,-6346,-5908,593,1946,-744
372,7574,689,-4538,469,1234,792
373,4782,4762,2788,92,-1033,1572
374,-5838,6582,4209,1102,1870,586
375,-7829,496,7941,867,1883,-1107
376,4885,-6652,4089,-199,584,-363
377,5308,-1190,-1576,-1,1154,1130
378,-1910,-6668,-3736,-1628,-1641,-1178
379,-1483,5023,2724,-1792,960,-1224
380,-6326,-5632,-6198,1962,-20,1078
381,898,3188,-4814,-991,-1791,-1403
382,4605,-3137,-7035,-1621,899,542
383,7197,-1867,-2665,761,431,-1911
384,7928,1791,-1235,1454,-528,-803
385,7084,6761,6489,-1139,-1163,-1328
386,3259,-780,-341,-101,666,-481
387,6204,4112,2835,-1962,-1622,-685
388,-5708,-7955,4109,-1715,1622,-1719
389,-5790,4334,4526,1316,-89,-1676
390,-568,-5543,2872,310,1298,32
391,-5162,-6749,-2301,-648,-86,-755
392,6198,-3302,-695,59,795,896
393,-2861,6201,2493,-24,1568,330
394,5333,7870,-7331,-1403,320,1469
395,-4878,-276,-1576,-1177,515,1258
396,-5009,-636,256,-1379,1356,-1687
397,7231,1350,2850,574,-537,-1255
398,2683,-1511,-7265,1441,575,1458
399,3553,-7782,-1744,-777,656,-1382
400,-1963,-709,3677,3,-1504,-1618
401,6414,-2960,-702,-403,336,1409
402,-6758,-5094,-663,259,1372,-1502
403,922,-5522,-2768,-1657,205,-1525
404,-1478,-408,166,740,1468,-457
405,-5757,1602,4519,1912,206,1653
406,6672,-6678,-3914,997,-465,271
407,-6105,5705,-6925,52,-1160,1321
408,903,4050,2911,-1288,-443,84
409,-3406,-3973,-2532,401,-1660,1273
410,3000,-2290,494,1728,-269,1407
411,460,7917,7164,154,-1750,-1509
412,7412,5987,-2901,-1877,1523,388
413,5371,1891,219,-1976,136,1434
414,2568,-1104,-5787,-1775,-1592,10
415,6820,-5238,670,-571,-457,-1565
416,7953,-7192,-3939,1567,1362,554
417,4773,3539,-7196,323,-1565,-1754
418,7405,402,-3528,413,194,1287
419,-1889,7403,-3258,1747,1029,-1708
420,-5244,4898,516,-397,226,-1544
421,3190,3885,441,897,-1499,-1600
422,1793,4701,4313,-1145,-1725,830
423,-85,173,7218,1692,-506,-594
424,-4178,467,-6990,-1614,1251,1556
425,-4192,5060,-27,-1533,-1708,-236
426,-4784,6672,-4055,1573,-1471,780
427,2916,-6538,-1169,427,-859,-1897
428,-6562,851,-2809,1194,872,-599
429,-5057,-3999,5541,-998,-1127,1863
430,-3981,-7231,-738,-1613,-1982,1537
431,845,5563,-5463,1898,1720,839
432,-4607,1490,7763,-1101,-1852,396
433,5277,-1340,-1320,1401,-121,1865
434,210,-4507,6560,737,-840,1286
435,-1268,1775,-4172,-1337,-1677,1075
436,3378,-6107,-5308,621,-954,536
437,-1468,-5826,-1916,1589,-1410,1551
438,1877,-4798,-479,-1864,-1906,-381
439,6976,-5392,-6544,-761,-752,-182
440,2221,-5565,3716,1357,604,1782
441,2787,3881,-6304,-1587,939,-51
442,326,2712,5362,-1835,360,-593
443,-6316,-4812,7534,-1562,655,1738
444,2441,954,-5504,-1888,1485,1495
445,859,-1027,5856,-238,1577,-882
446,5121,-5368,-1634,-1859,699,590
447,721,3099,6435,1587,-1068,-259
448,-1173,-6331,-6561,205,-1231,-599
449,-2228,-2679,2234,128,1620,1628
450,-3984,2228,6208,1926,132,-1472
451,2339,-4106,-7335,-1817,-68,1399
452,-5766,-3391,3643,-456,-386,-1601
453,2476,6394,-4475,-1809,289,-749
454,-5648,-1243,-6138,-572,106,-1665
455,5173,6112,-2771,-76,1595,-1215
456,6496,-6486,5059,-239,1877,1095
457,-6033,-5427,5348,-924,-1062,4
458,-6056,4838,4243,-145,432,-304
459,892,-1468,-7900,-105,1223,-1407
460,6447,4652,3919,1236,-816,-515
461,-6563,-1352,-6529,780,-299,744
462,-6162,3439,7043,1820,1197,1784
463,-6024,-706,-2046,-1845,1826,-424
464,-5932,2217,6984,-27,-970,1460
465,-3861,5529,-1913,-1288,-494,-1146
466,-2630,-7908,-4226,-1580,-1730,-1765
467,7711,3024,5443,-679,-811,1385
468,6472,6752,4851,-940,-1064,-476
469,7546,-69,-7761,-332,-574,667
470,-3430,-6266,-273,-689,-732,658
471,7012,-1178,-7665,-412,1015,-571
472,2637,-3340,-5686,340,-907,1312
473,6368,5114,-4052,1798,-313,1297
474,3049,657,1032,-1553,-958,985
475,7083,-3410,983,1937,998,-1068
476,-3305,-6947,7408,-1859,-1406,-707
477,7667,-2257,4926,-6,9,621
478,-7698,-7979,5175,1164,-1141,-1795
479,-521,372,-7565,-330,1345,789
480,6786,4259,3290,1190,-963,-1852
481,-5787,-1518,-7327,383,1959,1214
482,-3124,978,4751,1720,-877,-333
483,2734,-2451,-726,-1706,-832,-763
484,4398,-4884,4825,979,14,-150
485,338,-2943,1431,971,-1022,-1797
486,4650,-7736,-2014,-1789,-1413,68
487,4334,-5788,5545,-1492,395,-1772
488,-7975,-6749,-6507,-1911,-1924,-1547
489,-6957,2426,4724,-446,61,-1653
490,-4937,-6569,1932,-671,-707,-1807
491,-7436,-4751,5025,906,-1860,1033
492,-7014,6424,6661,1737,-330,-183
493,-79,-4656,1517,185,-1012,1253
494,-596,-3926,-6875,939,-6,600
495,-5134,-2490,-128,384,-1275,-215
496,-3064,-86,421,-327,1074,822
497,-3456,5905,5027,662,534,253
498,-4144,943,-864,-758,-1412,1344
499,-7561,3528,-3477,-1062,1632,-1779
500,-1538,2574,2319,1722,-1545,-452
501,-7090,-1823,-7982,-395,1464,-1165
502,3354,1906,-4037,-1954,-351,-1198
503,2499,7660,-769,505,527,1603
504,-5391,-944,-7016,1841,374,1465
505,-6753,-5377,-1767,-265,-570,-1645
506,1346,-4593,-2513,-1825,-814,-1853
507,6787,1827,-723,-1385,1336,589
508,4379,-3454,2854,991,848,-235
509,3945,-6403,-7942,120,766,1006
510,-5558,-3927,6556,-836,75,402
511,-2112,3502,-924,1499,-1352,-1663
512,-1374,-6909,-3973,610,-1080,-1434
513,-949,-1360,1632,1613,-1268,-1572
514,-5214,1362,-6371,1589,120,1639
515,4175,7677,-6438,231,1550,-275
516,-6082,2773,-2936,470,-1301,-1776
517,481,-4588,-7153,-83,128,-1526
518,2534,7179,3376,-855,1041,1493
519,-4202,3388,3979,-1089,204,1868
520,-1373,6584,-489,912,-1189,1851
521,3280,6178,-3658,-1212,-1470,-1946
522,4164,6277,-1260,-707,740,1092
523,1798,-5920,7046,46,320,-491
524,6810,4906,546,1150,-1282,-679
525,-1572,-6003,-7759,-536,923,-262
526,1546,3125,860,450,1611,1398
527,-5831,-4923,-7533,10,-154,-1086
528,-7851,-4899,5090,-1437,1194,412
529,-6521,4398,2112,-1123,-1561,-758
530,1011,5657,-7926,1120,-582,777
531,-5504,-2512,-5038,776,38,-802
532,-3353,-5238,-1081,-1144,-818,1136
533,-7485,-3817,-132,-1533,605,919
534,5901,6945,4610,-1356,299,-1429
535,4861,1481,5545,-770,1390,654
536,-5852,-1682,2706,801,1278,-799
537,836,1200,6787,-709,-899,-1922
538,-7623,235,5190,-1041,-1882,-444
539,-3486,-1250,1458,1692,1260,-1914
540,-2424,-2507,-373,1315,237,-241
541,-5046,-4850,6432,-1408,-1378,-974
542,1861,-7207,7744,-80,665,1554
543,-5590,5359,2556,838,-609,1106
544,1404,-4715,7348,1794,-67,-1216
545,-7967,-3466,-1080,-1949,1276,1988
546,6929,-533,-4495,-1761,-864,586
547,4221,2945,1969,-677,1303,-582
548,-7719,-5980,-820,-27,1493,586
549,-5617,-2872,3384,-510,-800,-243
550,-5602,192,3291,-702,961,-1619
551,2205,6139,-4775,-1147,-11,-1741
552,7738,3284,-5784,-576,-455,90
553,6597,-1594,-7668,-1457,-1661,-1697
554,-3059,-7471,-4628,-849,1292,856
555,-4847,1454,-3685,-1739,-225,215
556,-6029,5455,376,-566,-340,-1427
557,2951,-4145,-4443,47,-516,1584
558,-7165,-4599,-7827,-759,-828,167
559,-6721,-5475,-975,599,1206,902
560,-3378,-7111,4927,-583,-245,-1499
561,-5240,2352,6522,-128,-741,-623
562,-4078,1611,3128,-97,-1763,-1595
563,-3285,5973,4486,-63,-598,-604
564,1324,6114,5071,-858,-883,-1724
565,7144,6075,3205,461,-1954,-1310
566,2150,4317,-6078,42,-1502,1116
567,5894,-4942,5133,-1475,213,-1783
568,404,-2328,-2204,-45,1805,1180
569,215,-1942,-3434,1934,-718,1095
570,6097,4665,-7487,658,1729,-839
571,-59,-3496,5075,1696,-593,-760
572,-3720,-570,-402,-952,1508,1602
573,-2128,7462,209,401,-305,189
574,7742,5211,3839,652,1610,-949
575,-6801,5617,7757,1920,-107,731
576,-4636,6955,624,-555,-301,-1241
577,2379,233,7469,153,-738,1106
578,-1998,1724,1272,905,1642,-1207
579,5005,6857,-4739,-1006,875,-1222
580,-5162,4112,7790,1188,1091,-1398
581,4607,4125,7933,-721,-899,-63
582,-1213,5881,2006,897,489,1126
583,4302,-1988,7208,-24,-712,1589
584,3241,-3280,2078,1815,-505,-901
585,-7495,-7977,-122,361,-914,-897
586,6122,-4483,3401,267,1626,-1668
587,-3112,-5929,-7372,1809,1661,-1389
588,-7426,-161,3748,-1637,-231,-1648
589,-4299,-768,-2156,-1747,868,206
590,-2691,-6841,7149,-82,-999,-410
591,-3252,-3319,-4592,315,1735,-1632
592,-3187,3952,7828,1794,539,-703
593,2230,-6169,1061,-859,-539,989
594,-2674,-4578,4231,-688,1280,1528
595,-5884,7452,-622,274,672,1520
596,-4720,1488,5909,-571,-1533,-1944
597,3271,1889,-1141,1890,1899,-1360
598,7573,213,-4522,-393,-1236,872
599,576,-6881,99,770,1634,1046
600,-738,-3533,2327,1533,1393,-532
601,2641,-5551,-4227,-847,-476,860
602,-3322,4709,-1237,-1837,-508,-616
603,-2339,-1419,1457,-1425,-1420,1966
604,-1381,5298,4090,-1673,1086,-487
605,3656,-3839,3514,790,-1179,220
606,608,-1788,2047,402,-1893,240
607,-983,2828,-4473,1634,1905,5
608,-4725,-3271,6258,1854,458,1383
609,4306,1783,-681,-1610,389,777
610,6770,-2732,-3125,-680,-1016,1382
611,-2613,-5296,-7960,-251,-459,1383
612,-1028,3594,-5824,-578,171,-1328
613,2455,3940,-3629,152,277,428
614,-1307,4469,-618,-1217,-1380,-773
615,-1777,7975,6930,469,390,384
616,-7740,-4565,2098,-640,-403,-637
617,-2492,-5539,1530,1322,1617,-1188
618,1326,5435,-2226,-1086,-1175,-405
619,3474,3539,5951,1160,1142,-1169
620,2369,4253,-7888,1529,-561,76
621,2445,3222,358,346,138,1735
622,-6570,-869,-4915,-928,1832,1796
623,-4541,2107,-97,1043,981,1871
624,3285,7009,336,-645,38,972
625,-408,-3315,3225,-195,1488,-355
626,4113,-901,-7631,-420,783,966
627,7546,6523,-518,-1861,1183,-420
628,-7758,-7208,4610,452,240,1503
629,-380,2882,-4822,1020,-1362,1554
630,-660,5948,-6485,-1515,1159,240
631,-5723,4909,3227,-1508,-1146,1660
632,-1125,347,-3048,-225,666,-1925
633,3785,3146,713,-751,-639,1775
634,-4544,4294,1515,-1912,-1377,1171
635,-7378,6730,-3602,35,-1962,-1753
636,-6985,-4581,5797,1473,1244,-1464
637,1192,5666,-6534,79,520,-1890
638,-752,2804,-7385,-284,-1925,-155
639,2236,-3158,-531,1388,1094,-900
640,4728,-4291,7242,723,-1784,-1604
641,-2118,5955,3297,661,-1152,-724
642,666,4876,2259,1284,515,46
643,2416,1856,3788,1739,-1443,794
644,1233,4308,-3146,-1276,-419,-1851
645,1049,-2173,-5401,731,-1021,-1589
646,7571,-181,2322,703,-1670,-1855
647,-6873,-6047,-4367,1745,-42,490
648,6315,1681,-2335,-584,-525,-719
649,5042,-5930,7536,-586,623,-308
650,7884,-4218,1196,1382,-1810,1182
651,4876,3168,-7367,955,721,-1205
652,5444,7622,3278,860,-1958,-630
653,7103,7273,-5642,-91,1153,1413
654,-7021,-7630,5541,-336,-1255,-908
655,-6128,-6644,7171,-1687,-1576,1902
656,5381,-4770,-5944,715,-1480,1414
657,6369,680,-2813,860,-1682,643
658,1638,1369,7433,381,-1518,-1699
659,7179,6065,7811,-993,1728,277
660,-4750,4732,-190,-1906,1484,1458
661,-5518,7607,6330,1579,1083,-765
662,5722,4640,-4663,1297,122,-1261
663,-6131,-776,6935,-331,-1264,-1897
664,593,6741,-7139,-541,-184,897
665,-4259,-1761,-2726,157,904,1758
666,1662,-5311,-7886,-1352,1344,1289
667,4784,7194,-2797,-1614,-996,939
668,2670,-415,7533,801,1969,-128
669,-5106,2103,6252,-494,-1350,-396
670,-2103,6586,640,391,-934,294
671,-4931,6236,-452,252,-1809,-1245
672,223,-6196,-6272,428,333,-710
673,3235,3415,-5291,524,1194,504
674,6088,2078,6771,398,1861,1723
675,7958,115,-3329,1890,-1315,1792
676,-7571,-628,44,-1820,-842,-912
677,-4508,3180,2493,-1705,579,-212
678,-5641,2116,-1392,1233,-678,-1594
679,-984,-6107,3334,1103,1732,-334
680,7117,-5644,3409,-1162,-71,1486
681,-6598,-495,-557,-1533,1461,176
682,1774,4173,-5059,-1980,863,-1039
683,7719,6186,-7007,386,-1403,-1952
684,-820,3361,-7106,-822,-845,-536
685,1244,-561,-2651,1752,-246,-1632
686,-6294,-1628,704,676,70,536
687,-7817,-5723,5945,1926,-115,-1341
688,5280,-2648,-3876,50,-1777,1903
689,2114,-944,-2382,-884,425,368
690,7730,6272,7879,585,1213,305
691,1898,7816,-4300,-1707,544,1903
692,5553,6162,-7864,1056,-1008,1676
693,1202,-6869,2339,-786,-839,1610
694,5808,6146,-1714,857,967,-149
695,7202,-7351,5295,-1957,-1590,847
696,7117,-6972,-844,-1421,1472,544
697,4680,52,-4020,1457,-1429,1676
698,-1220,-748,566,263,861,1126
699,7885,-7579,3476,1733,25,-1879
700,-1670,958,4210,1720,-1189,1357
701,-6491,2435,-3148,-1495,-16,976
702,2725,-1403,-2288,-1562,645,398
703,-4619,6665,-1735,-1758,-77,1231
704,6408,6713,-3965,1204,1714,1694
705,2456,-5390,-3518,-284,-1007,1779
706,-5180,6511,-519,1592,1600,-1973
707,-1819,-2728,4966,652,1275,271
708,-1134,4055,2453,-365,1914,-1935
709,1801,5572,5458,-1300,-276,177
710,-2852,7033,-6543,1083,-978,600
711,-7947,5413,-2380,895,502,370
712,3871,1753,3736,1071,-441,-148
713,3734,-6150,-1282,1404,-769,-850
714,-4708,-5036,-3793,1673,-1615,-1328
715,3216,-1887,-5232,-377,-1250,83
716,4620,-5094,4980,-964,339,-1709
717,1697,1426,6492,-393,-1996,-1676
718,-4432,1795,5288,-1480,1797,1017
719,-323,-4323,3291,-1724,56,-260
720,-1155,-329,5818,-439,180,-692
721,-3311,-7905,4534,-1624,1166,1898
722,7625,1842,-4076,-1540,1961,1677
723,-4365,3316,-2785,-484,-957,-448
724,-406,-1870,4678,1740,334,-1173
725,-2629,-5175,-5551,1224,-1042,-1586
726,-6783,6041,-2129,-909,802,1340
727,1256,3469,174,529,-1448,-756
728,-6420,7202,7347,883,867,-981
729,660,3571,7988,1783,190,-749
730,2166,-6422,-3623,-302,-1360,-1518
731,-2700,4591,-4617,-1623,1532,387
732,-3437,4978,3629,1793,-239,1756
733,5484,7763,-5807,-942,0,-1962
734,-5371,61,-1394,-1196,259,1352
735,3468,5992,-3848,656,-548,-13
736,5310,-7120,7542,-591,614,-1744
737,3752,-5810,-4739,-1056,-1664,1530
738,-5754,7114,-6705,-261,1327,724
739,7153,-2057,5389,-614,813,1068
740,-3207,2459,-692,-378,-542,91
741,7292,482,-3253,-1419,1974,-1457
742,5129,7168,-2165,-1426,362,-723
743,-1372,-5312,-6863,-1195,-454,1553
744,5604,-6467,-3172,-124,618,-1967
745,5224,4029,-6327,1949,538,-2000
746,3418,7219,-4422,-34,1062,1274
747,2040,396,6072,-1562,-1810,753
748,5968,-700,673,1470,1804,-1794
749,-2820,-2833,-3818,-1829,-1238,-1504
750,3871,7709,-6655,-1093,-870,-1026
751,-7881,-1494,-2782,-1431,246,-891
752,-7803,-7094,-5463,1321,-781,-171
753,-6670,6415,-2995,1668,1012,714
754,6679,3503,6403,1244,854,995
755,-596,948,-2657,-1798,-872,-888
756,-6236,-4133,-5546,1690,-1364,1778
757,1597,1658,1562,749,-268,-502
758,-188,-7233,-3427,74,908,1309
759,6387,-5436,-6424,695,1211,392
760,-3677,-1134,-7066,-501,1942,-1885
761,-5265,127,6819,1584,-612,-1593
762,-6403,-2509,5293,-1628,1371,-1010
763,-325,6718,7419,-1398,1617,608
764,3414,-2340,2586,1810,1294,-1461
765,-4994,1786,7790,-1035,-535,-591
766,-1506,6512,-1905,1541,-639,1140
767,-2274,-4136,-246,-254,-953,925
768,-2723,7350,2743,-1451,75,1351
769,550,5759,-1565,-1633,-1808,-723
770,-1035,-5333,-533,-60,510,-1852
771,-7321,4599,7798,-1314,-1235,-493
772,-5805,-6988,3326,128,837,1193
773,5865,7370,-4472,534,-1064,1042
774,-104,4737,6701,702,-1363,647
775,5069,5971,5766,-1462,-864,78
776,-6959,232,7060,1375,-180,1421
777,2132,504,-6551,1135,921,-1492
778,-1445,2228,3147,971,-1556,243
779,5422,1392,7153,1093,1808,1522
780,5544,-2210,2795,-1140,-1517,-77
781,-7844,-2718,-5185,1641,173,1187
782,-4084,-7266,262,671,-360,-1896
783,-5105,2856,1414,-1223,1222,1086
784,-7545,-4089,6010,-1851,-1240,1950
785,-195,-7691,680,-1414,-868,1449
786,-5360,6715,-6663,138,-1402,526
787,-741,-7836,-7078,325,-1336,1858
788,-1341,-5417,-4091,586,1426,154
789,-324,7869,5180,151,16,497
790,-1972,7278,2519,-1807,352,1885
791,7388,3861,-1957,1384,-893,1948
792,-4543,2561,-3923,1060,1639,-733
793,847,632,-1215,148,117,-1888
794,-6136,6549,7277,-1131,212,1278
795,5826,447,-4709,126,-1033,1122
796,5282,-4603,2787,758,-934,-1077
797,53,2696,5852,1323,1203,244
798,-1058,4019,-3202,683,433,14
799,1654,-4854,3531,-630,-1287,-1363
800,906,-2737,6278,-141,637,718
801,3829,1042,6882,-1976,1889,-160
802,7537,-2614,-5406,1535,-1316,477
803,-2057,-6924,-4274,-1852,-1235,-491
804,6225,761,4438,1323,-1774,-1695
805,-609,-2024,-3833,305,-818,139
806,7827,-1528,5294,625,381,1832
807,-7544,7528,-1883,1333,-1241,1084
808,-115,-7289,-5796,835,-1770,406
809,4486,7469,3203,-1640,-1201,868
810,6828,-3027,-5273,-1236,1784,-187
811,6974,7556,-1596,1521,-952,-1242
812,-3770,-2924,1529,-76,-1911,524
813,1850,-4136,-3914,-1567,-1989,1329
814,7466,-3557,-3139,1168,-1823,-1412
815,4258,998,-448,131,121,94
816,6760,-2618,5199,1011,-750,-1925
817,-2566,-2736,-2970,-855,1225,1073
818,1271,-5357,6153,-1508,1785,-1712
819,-5801,-6557,-5015,-461,651,-1631
820,-6978,-2393,158,-76,650,-223
821,-7676,398,-3322,-1602,1756,1972
822,7380,-1166,-6505,-1741,471,1268
823,1334,-3650,-5325,-613,-1324,-382
824,336,-5724,3185,-1624,1342,-1460
825,-2032,5680,3217,1198,1490,-1350
826,-581,-1685,5470,-1904,-835,1642
827,-6479,1126,4471,682,-1184,1748
828,4570,3907,-2182,-1475,61,-885
829,-7882,-3531,-2976,-1040,222,513
830,7641,3164,-114,-1034,-689,-14
831,-3536,-4204,-1950,-97,-129,-580
832,-3491,-5375,-6182,230,-1056,-1008
833,7692,-6265,-1268,484,-169,-1314
834,7587,6341,2993,1444,-587,1220
835,2986,6304,-4686,1512,-634,-1200
836,3541,-4907,-2268,-853,-908,635
837,5317,-7532,-7417,-1312,-476,1061
838,700,6127,-4406,-661,1311,1323
839,-7618,6612,-4277,549,840,-369
840,-1476,-7979,-2739,-801,1915,1651
841,7131,660,3253,-837,1411,1998
842,6063,7131,-1689,-1223,1045,359
843,5340,-5034,923,-445,-1165,-1157
844,7365,-1163,-2874,97,-1451,704
845,3752,-4271,4721,-291,-1437,1582
846,3731,3504,-26,482,732,389
847,6759,5079,-1688,-823,-1590,1504
848,2423,6240,5382,-1360,-1940,-1013
849,7544,6372,-6520,-1478,-793,1557
850,716,3726,5480,1292,454,913
851,-5189,-2068,4211,-676,908,1207
852,7505,-7624,-4710,-1231,139,-707
853,268,-6701,-486,-1907,455,-1395
854,143,-5379,-310,-1795,93,-1617
855,-3030,7258,-3457,380,1311,1531
856,6185,2606,-2660,1037,463,-661
857,-2350,-7106,-5913,-743,-1464,922
858,4674,5844,-2784,1274,-942,576
859,3243,7713,-2465,1978,-1726,309
860,-2847,6292,6288,1174,966,-988
861,-7023,3088,-3249,1387,-1687,1142
862,5099,1590,-4697,1039,-1878,1297
863,-6427,3249,176,1174,-1799,-1275
864,7478,-2262,4483,280,-133,-1390
865,3892,2717,-5695,989,-589,-648
866,4157,1803,6914,-1206,1129,-412
867,-3764,7473,5374,1115,-1251,-1811
868,-6088,-3779,1797,-1737,1258,-1889
869,-2627,-1750,624,-1786,-1305,1787
870,-5624,-1581,7450,-789,130,-341
871,-6657,1241,-3702,442,1604,-758
872,-7071,-7470,2615,1385,-219,943
873,-5085,3278,-1049,-810,1785,1596
874,3246,-6585,331,927,-1016,-432
875,3868,-18,-6662,-622,1289,-1232
876,-7302,4660,5364,1115,-1566,-1349
877,6855,-2751,2624,312,1599,-155
878,-7542,-5404,6512,-1380,-639,-682
879,-2165,-204,7089,-486,820,349
880,-7380,2618,4230,-510,1180,319
881,727,-1181,4532,-1981,-852,461
882,-2576,-5742,7030,1242,687,-1412
883,2061,-2586,7431,-254,-752,1087
884,-1164,-1648,5087,-757,83,470
885,5952,-6563,5078,-1217,1640,-1826
886,-7265,-5869,-3903,-1135,-1986,1623
887,5151,1872,-910,-83,1477,-1396
888,2782,5142,-5883,1801,1798,1871
889,-6387,-351,-1155,945,-1578,491
890,7628,-4501,-7335,1878,-1610,-646
891,-3679,3553,7958,-1451,-1399,285
892,5829,2169,-1253,612,1161,1664
893,-1156,3973,-186,1378,1630,246
894,4819,4203,-4204,-429,1495,-660
895,7734,6541,-961,1853,-992,-1621
896,-2131,-135,2764,-987,-1197,1731
897,-924,4624,5946,337,739,-1652
898,-1000,2954,-7326,-1233,-997,-141
899,3895,2772,2594,-1149,-1829,-33
900,5007,601,3987,-1728,-1207,32
901,6413,2401,-3360,1831,-766,718
902,1849,758,-5696,-1692,-1362,-893
903,-2990,-6158,-4296,-228,1809,539
904,6699,5160,4337,-899,-649,1847
905,7882,6976,4528,1832,-1580,-1325
906,1205,-3256,-4776,269,300,271
907,2234,-4775,-5794,442,-1553,-140
908,-4949,-5790,294,-1430,1917,-1148
909,5311,3823,6566,-1827,-227,-194
910,1751,4662,5297,-1875,-909,-999
911,-4038,-2815,6543,1335,-256,826
912,6079,-7358,320,-313,1099,1517
913,4139,1796,5224,-1048,1499,340
914,2964,-4002,2415,-1525,544,-1928
915,5310,2588,-6372,1674,1430,-1541
916,5712,2565,4432,-1969,70,-1635
917,6110,7515,2673,1172,-1968,1308
918,-4379,-576,2826,1839,749,-1828
919,-2235,2564,-621,961,8,1391
920,-4591,6894,2220,705,-1031,-1294
921,4181,-6207,5086,-840,1157,1082
922,1689,4247,6015,-127,504,497
923,-5656,-4030,7344,401,1285,-140
924,3760,-531,1922,-690,229,-612
925,5550,-2845,-7548,838,1600,215
926,-1173,5847,6131,-165,-362,-1751
927,-1886,3160,42,1434,851,147
928,1543,-2922,6227,1955,1502,1332
929,-6660,-5550,-2050,1844,1162,1908
930,5464,-6580,-4189,1904,1404,1842
931,-2899,-2852,-3542,-540,325,-612
932,3747,5615,796,149,1378,1634
933,6662,-7135,7820,-1112,395,-984
934,-4645,-6994,1726,1654,-623,-1950
935,-2696,4591,-4906,304,591,-323
936,-1080,4727,-516,1252,-1681,-1420
937,2652,81,-5128,790,-1118,1058
938,-5412,2438,5516,664,-1618,-1786
939,5591,-4949,-7893,7,1470,-923
940,4791,3113,168,-1543,-1193,553
941,2988,-4170,-1418,-1142,1683,-1761
942,5245,7605,7344,-986,90,784
943,-962,6056,-7755,1709,1707,-274
944,7862,7783,-1629,551,1411,1863
945,-7143,283,6446,-1019,-1465,170
946,3922,-1761,-126,-638,1226,868
947,-5980,6629,7937,-795,862,-875
948,-5636,6118,29,-1331,896,-7
949,2395,967,4367,-1381,-1200,-688
950,799,-355,-7463,1082,1542,-44
951,-1065,4104,-7940,-1842,940,-773
952,3318,-5325,289,-1812,-1973,-1019
953,-6506,6030,-7849,-1612,-936,407
954,4107,1618,1086,1245,-159,1207
955,-361,7809,-5045,-1267,-118,1159
956,7383,3818,4105,-1997,-959,1957
957,1178,-6039,-5141,-1695,99,494
958,-2089,-7485,-7181,1271,1047,368
959,6574,-7643,-858,-1469,1555,775
960,-4625,-2269,-236,-931,1234,76
961,3360,5015,1808,-1498,1408,-1949
962,3806,-6671,4005,513,-1557,-1752
963,7724,6823,-2385,921,1646,1847
964,1734,-6707,6203,-1056,-988,-486
965,1346,4654,7887,826,14,608
966,-7151,-234,4417,-1358,204,619
967,-1043,4615,-6048,963,526,1079
968,-5506,-1463,-6587,-283,1909,1460
969,5238,7788,1433,-178,-253,-947
970,-7500,-6546,-1665,253,-878,1816
971,268,6265,-6593,1403,-1824,-1443
972,1952,-3574,343,-1584,-1652,-900
973,-5724,4918,-2617,1352,-1149,1125
974,-2722,-3669,-5178,-1770,-65,-1784
975,2553,7351,7369,-93,-1683,-1446
976,-4472,456,7060,139,-1369,1888
977,-1892,5655,5833,-576,-1308,224
978,440,3996,801,1801,-1770,1865
979,-1927,6010,5255,-1461,313,340
980,-2267,7218,7995,-1867,227,-208
981,-7885,7680,92,-606,1500,1906
982,7335,1383,7609,1361,-90,-182
983,5879,2612,1536,1616,-804,369
984,-1485,36,2990,-1328,88,-795
985,197,4614,-1923,-543,1046,-947
986,7818,2837,-137,263,-886,-1263
987,3036,7836,3697,746,920,508
988,-424,4236,-3329,-599,-1098,1128
989,7790,-3581,4491,1058,187,-1264
990,5427,5353,4848,190,886,-1514
991,-6866,952,6133,1764,-1661,-752
992,-924,-7346,11,-1784,-944,1842
993,5001,-1058,-7955,-941,-486,1817
994,-2679,-6757,764,-1868,1869,66
995,-3023,5536,-5753,-1184,-575,-915
996,3677,-539,3731,-393,-595,-342
997,-5520,2072,1369,-115,1959,-1630
998,-7794,6542,7744,1880,-848,1841
999,5690,-7224,-5657,185,-789,1368
1000,612,-4787,-7958,-1468,-651,-1203
1001,-3187,-6358,-5016,273,-714,715
1002,2676,3725,-6164,-1912,1508,-447
1003,-1713,-2507,-1720,-809,323,130
1004,-7118,6133,37,57,785,-621
1005,-3498,855,-4631,-1361,803,-1448
1006,3601,1620,5154,-779,-998,-992
1007,-7320,1260,-1336,-1790,-1355,-290
1008,-33,-4556,786,-973,1210,-915
1009,-5413,1839,994,53,-1154,-1329
1010,2858,-4544,-1486,-1559,-507,-1372
1011,3292,2532,-91,243,370,1038
1012,7488,3561,4748,-1397,-623,1287
1013,-7917,6307,-1423,-14,1639,1246
1014,-6449,-4927,-5134,-1088,306,-1569
1015,295,7308,-7994,-733,760,-20
1016,1452,-7232,4681,-1455,1853,343
1017,-1343,-610,-4442,-1809,-1163,-1104
1018,5920,-3548,5037,1508,-1848,-391
1019,-4157,1529,-7533,-586,-637,279
1020,-5147,-418,-7905,690,1974,1580
1021,1320,-4304,4422,223,-1875,-1226
1022,7701,-7491,-2432,-471,662,610
1023,-7322,6718,-7802,-179,1069,1664
1024,-5128,5475,2374,1443,888,-753
1025,-4629,-1271,-5100,312,-1797,1496
1026,-7513,7195,-3169,1485,-36,-768
1027,-2006,-3436,-6916,-1541,-610,-1951
1028,4209,-2021,-4446,1987,1038,-474
1029,-2537,-3886,-2004,-1608,1793,1184
1030,4816,5375,4389,-224,367,-1019
1031,2658,6767,-1361,846,1199,1465
1032,-7336,-7503,-2724,-635,-1102,-841
1033,7379,-5134,7529,1393,-431,-1435
1034,1933,1886,2643,1626,-825,-447
1035,1537,2313,-5982,137,-1839,-1266
1036,3418,3843,2013,1736,-1906,-1731
1037,3435,-3946,5267,342,843,-1367
1038,3361,-7131,572,-969,677,-1512
1039,-1817,-6927,7878,-1271,-36,841
1040,1567,2072,-4309,323,-1005,-1525
1041,3404,-2882,-7922,728,357,-129
1042,-1171,-7534,-4209,-1482,-1641,-597
1043,5982,-6482,-3206,528,289,1346
1044,-7991,3965,-1270,703,-1069,304
1045,4935,-806,4313,-1034,-1428,-19
1046,4051,6367,-1443,663,-315,832
1047,-3587,3945,3979,1910,1235,1670
1048,5200,6540,-7887,-771,1746,409
1049,3312,6414,-5406,-122,-184,-442
1050,-7920,-243,-202,-456,1484,680
1051,-4113,-3324,-579,1106,93,581
1052,2577,-5823,-290,1627,365,1540
1053,-916,-5403,1503,-776,1650,420
1054,6866,5163,2684,242,-514,-1048
1055,-2358,-3758,-1995,765,207,531
1056,-1701,5168,534,563,-1849,-132
1057,1980,-2879,7582,1314,437,-1845
1058,5940,1639,2305,-1525,1903,210
1059,-5359,4549,3020,1489,469,724
1060,2723,2421,-342,1801,1790,-403
1061,-7325,7521,-4600,-1054,-1701,-1140
1062,872,6556,-6006,-229,-1658,-1935
1063,-1633,6300,-4496,-1190,1438,-275
1064,2770,-4714,5635,-1598,1106,-11
1065,-4269,-75,-6262,-156,-315,1397
1066,5368,-944,2340,-1512,87,-259
1067,-7689,7002,-585,1298,861,-709
1068,3776,7337,-4560,1551,213,-1081
1069,-3775,2187,-2785,-65,332,-278
1070,-748,-7987,7240,1319,795,-129
1071,-2767,-396,-2575,1828,-253,1570
1072,-6908,6104,3090,-1973,-1404,1256
1073,-4931,4583,6906,1460,-717,-1511
1074,3370,2989,-4314,-1189,1895,269
1075,4602,7632,-5578,187,-555,841
1076,-6842,495,-1201,1100,342,1903
1077,271,-4314,3975,-1793,455,-735
1078,-6776,-3428,2991,63,-1435,-1006
1079,-4921,-5494,3670,-22,-1473,1969
1080,-467,-5363,-1363,-114,989,1236
1081,2659,-2536,-7342,-1796,752,-1944
1082,5636,6280,7796,628,1313,1384
1083,-70,-527,1034,1248,-778,265
1084,6013,17,-1478,859,1693,1257
1085,400,-4080,1066,-1325,531,785
1086,-2676,5727,6446,1174,1785,1070
1087,-5576,5435,3909,-45,-172,-1872
1088,935,-377,-7725,-1740,819,-401
1089,790,-6713,-539,1503,1647,105
1090,1506,1573,4762,1659,978,157
1091,-7883,-4133,-98,1392,920,266
1092,3265,-969,3077,-394,282,401
1093,-3098,-3775,-3861,-1577,1420,254
1094,4487,5350,-127,107,-1760,-1927
1095,7573,-1877,6518,1109,32,-967
1096,7623,4359,-7520,833,304,-1927
1097,-4269,-1784,-5286,1268,-119,1820
1098,-2436,-2838,3376,134,1562,-612
1099,-2867,-5811,6508,1272,0,122
1100,-2016,-5552,4336,1281,-839,316
1101,3745,7128,1356,750,1798,1209
1102,55,-6039,-5724,-1538,1405,1839
1103,6887,3476,359,-262,1471,-616
1104,-2063,-4621,-4691,-1712,-760,-1833
1105,-2181,4917,-1668,-375,-305,-1266
1106,2075,4003,6969,-1459,1349,1542
1107,-2577,7023,-6709,-1175,488,187
1108,-4947,3097,-7084,1302,1539,-246
1109,-4261,-2222,3628,-308,1808,-234
1110,-5936,6937,760,990,1859,-1918
1111,-7724,6532,3859,761,1794,1286
1112,-189,7070,6170,509,-1827,1458
1113,2731,6299,-5542,1760,-1198,1601
1114,4392,-2948,-333,1992,1017,-615
1115,4867,5436,3012,1782,1678,-1454
1116,-1528,-6778,1023,1852,-1335,855
1117,4192,-334,-5805,-1902,-1207,1776
1118,-341,7321,-7692,831,771,372
1119,1951,-4746,7010,718,469,582
1120,-4613,-468,3965,-628,-1394,-1782
1121,-1379,-6154,-6405,733,-905,790
1122,-239,-5229,-1273,921,-739,-1790
1123,-1234,-7944,-5745,-373,1909,1539
1124,1548,5155,3484,-1001,-1376,1191
1125,1519,6343,-872,913,-766,1297
1126,2571,-7673,4779,1090,1418,837
1127,5220,5544,5675,1980,745,1977
1128,-1257,3365,-7617,-1099,870,1882
1129,-2747,-1178,365,1834,-1962,-1893
1130,-3567,-2624,-1637,465,169,66
1131,-2301,340,-7576,-1936,-1446,-563
1132,3895,-6051,1952,-1728,-1002,1739
1133,74,-2264,4261,-1896,410,-1821
1134,-3432,2431,-3934,737,1534,-458
1135,-4960,-3794,1466,-1364,-1523,-479
1136,-6344,735,-6522,356,-1542,1178
1137,3377,-5820,2769,427,1867,1852
1138,7689,-1019,-47,-1856,-879,744
1139,674,1921,-3325,124,161,1229
1140,4306,-3114,3208,-796,-692,1733
1141,4059,-2381,-1890,-553,754,-713
1142,-6761,-3766,5930,-1393,393,-1418
1143,-625,-705,4785,-1989,-1857,-679
1144,6717,-1963,-1105,231,843,-900
1145,1466,-7301,-7717,-1041,-22,1278
1146,-6683,1352,-5173,-757,1900,1526
1147,3829,3094,-4490,109,-562,1198
1148,4250,-5725,2575,1791,-1915,-1794
1149,3839,5314,-6938,1083,617,-1008
1150,-5331,7913,-7860,1270,-1028,-2
1151,6680,33,-619,87,1213,1430
1152,6823,3206,5126,790,-1133,323
1153,-4638,2112,5132,-1228,155,1794
1154,6446,4135,-3764,-1748,1244,-1130
1155,-2345,-4762,3572,-372,729,1049
1156,-507,3575,-7731,406,-1644,-1434
1157,1625,-7704,7219,1304,-366,-1246
1158,-867,-2446,-4639,898,-246,-1614
1159,-1684,3671,-901,702,-163,-573
1160,4515,4602,7060,-1292,-1112,1392
1161,1623,-1726,6005,1283,-82,-1848
1162,-5074,303,-4431,1178,1474,791
1163,-5274,-7281,170,-1415,1611,171
1164,2642,-7139,-4670,-190,-1243,837
1165,1719,3874,5637,-1706,-1115,-233
1166,2803,-4691,-1931,-849,-725,-761
1167,-6842,-7597,197,1703,504,1377
1168,6745,1069,1093,1034,683,-552
1169,3172,7477,-2410,1667,-89,-1332
1170,-1409,2354,6275,1798,1855,1499
1171,1189,1265,-1496,-1201,328,63
1172,-4864,-2751,-4993,1248,7,-1499
1173,4862,640,3853,1418,735,-879
1174,2487,-168,-3530,-1631,-1879,-1830
1175,4637,4226,-444,-41,-955,218
1176,-5168,-7486,923,1621,97,-770
1177,129,5082,-4792,977,1563,-1094
1178,-6100,-3349,5940,-1075,-995,619
1179,-3831,4695,-556,972,36,940
1180,-4725,7296,-6507,1700,-1579,711
1181,7532,5880,1975,-304,-446,1678
1182,-3783,1461,1679,-1493,1349,1799
1183,1113,1219,-4181,935,35,-1771
1184,-127,5913,5372,-306,1739,-1250
1185,-6580,-108,4799,-1654,491,537
1186,252,274,-5061,1631,-1751,273
1187,-2123,-3423,-6807,1113,14,1397
1188,1719,5282,-2943,-1759,-669,-134
1189,-3637,5982,6325,210,-1303,-1885
1190,-931,-2913,6364,-1653,949,60
1191,5583,2148,7493,-1643,75,-1714
1192,-2619,-1989,-5710,-1245,-1883,-1332
1193,-11,2007,-4585,16,-672,260
1194,-3458,-5235,-3730,-593,594,-1608
1195,6252,1345,7510,431,273,-1422
1196,4597,-5442,-4276,-1727,-1371,-583
1197,-7396,-5266,-1855,1364,1505,-464
1198,1309,6367,3844,1598,1423,-445
1199,-5212,3567,2267,-728,-1820,1358
1200,5280,-3914,-7334,1809,1889,1135
1201,-7922,3274,-1996,-728,-1164,-125
1202,7016,6330,6100,-811,-789,1123
1203,3333,6739,5189,1309,541,-1603
1204,-1866,-6763,6737,-478,-182,127
1205,-714,1005,-2138,-992,-236,1113
1206,-3843,6374,643,-1318,-165,-69
1207,-5790,-3306,6836,537,477,1564
1208,-4397,249,-7573,154,1304,1083
1209,2496,-562,-4493,1667,-1579,909
1210,3999,-1608,2483,1759,1987,208
1211,2605,3558,282,1122,14,213
1212,5491,1904,-7304,-1748,-518,733
1213,-2773,6279,2538,-422,989,1776
1214,6127,-2183,-4595,-1313,-1898,-1337
1215,-3107,-1951,7700,612,668,-1305
1216,-341,-5567,-3359,-675,545,355
1217,118,121,7941,682,816,-1329
1218,-7465,282,-977,-1567,1453,-1993
1219,-6888,-3265,7687,-1276,-1426,-1200
1220,6770,-2979,7505,1553,-1722,98
1221,6708,7896,1732,-408,29,-1082
1222,24,-7007,1803,-1732,1232,-1196
1223,1988,3124,-1055,-172,-566,1410
1224,7325,1460,-3008,-1527,379,-431
1225,-7670,7199,-176,1606,738,204
1226,-7873,1591,7480,-379,1174,-1202
1227,348,5959,2488,1105,213,728
1228,7810,3867,-3227,-694,-702,265
1229,1545,-1631,7340,1908,-1078,-592
1230,-1354,1051,2198,-1131,-136,-1455
1231,-4712,6984,1234,-822,-1179,1695
1232,6332,-2032,-82,554,-535,1139
1233,-6479,6341,-5014,1218,253,-1893
1234,-4378,1208,-409,512,-1022,1831
1235,-4595,7345,7007,568,-1670,-537
1236,2454,2137,3984,1447,-1329,1725
1237,-1658,-423,-1743,-1001,-1017,669
1238,6370,-4383,7836,467,1101,606
1239,241,5198,2805,-1630,-1507,1408
1240,999,7397,-334,-533,-1875,-1725
1241,-4593,6507,-5671,-1962,-1926,-285
1242,471,4463,-246,1718,-252,1535
1243,4684,5465,-1263,1218,-1791,-1309
1244,1822,-1378,-7528,1767,-765,971
1245,-7796,-3592,-995,554,654,1292
1246,5740,-2797,-7910,1482,317,-932
1247,302,3808,5964,1460,-1,-1725
1248,-1651,-7648,5333,-1405,-1797,-793
1249,435,-4396,-947,-1035,-858,428
1250,811,-5140,2442,754,-1521,1963
1251,3295,3538,-7319,-1727,904,537
1252,4092,4090,-7531,559,-289,1642
1253,2947,7726,1977,1142,-1592,26
1254,-7210,-7114,-4424,-1283,-1385,536
1255,553,-6159,4615,1631,564,1466
1256,-5964,-3011,1544,785,-1267,1722
1257,1846,-6631,-114,1987,952,454
1258,6053,1078,6554,430,916,1527
1259,-4096,-1375,427,1699,-82,-534
1260,2772,7140,-3830,-1481,-1969,385
1261,-5430,-6859,-7698,1979,262,1140
1262,-4977,7085,7402,464,-1502,-658
1263,7323,1284,7166,1039,1468,111
1264,-5521,-7803,-1397,-13,95,-1128
1265,6749,-5869,4798,-400,-1922,-580
1266,5714,3759,4762,338,1729,225
1267,-4951,728,-4337,1106,992,-384
1268,2064,3700,-6400,1855,-308,-360
1269,-3423,-7747,3864,-1464,1009,-706
1270,576,5331,-2521,-1147,-146,1017
1271,-5298,-4874,-3560,-1973,-47,1125
1272,-370,5888,4504,1029,640,-1800
1273,-5650,-5334,-1625,-1928,862,-468
1274,-6454,-4195,-7554,-246,-49,-1020
1275,719,2162,1603,1649,-296,1831
1276,-1807,-3462,1612,-1746,-45,-1459
1277,5810,-6555,-4812,1248,-1496,1705
1278,790,3716,2403,1940,-1246,-246
1279,-3998,2768,1478,79,813,-1154
1280,7440,-6469,-3142,-1314,-1973,-1085
1281,4554,5476,5150,-1801,474,1931
1282,5672,2578,6855,1218,1159,-1840
1283,-7884,4459,1290,730,-385,1266
1284,81,-5512,-6566,452,534,-74
1285,-2795,3139,7277,-1878,-532,1653
1286,-1202,-5439,-7401,-1418,-1375,352
1287,-1081,2732,5536,-83,-128,-1599
1288,364,7512,-7094,-1648,281,1302
1289,-7792,-7019,5425,-296,1249,-747
1290,-6657,1490,5834,610,1053,287
1291,-4426,-3673,-7141,84,132,-1563
1292,-1850,822,36,1484,-1033,-470
1293,2526,-3213,-235,-848,-1940,1030
1294,-3645,7938,-935,-422,-756,1024
1295,-5986,1879,2653,1282,-738,-1289
1296,3481,-2625,5748,-916,32,1444
1297,-2568,4067,6192,1019,803,-1014
1298,1980,-5620,5068,-1177,652,233
1299,-1648,-2117,7164,-86,1352,-1567
1300,-1833,-4862,-1547,1039,1296,-1824
1301,-287,-2418,5193,1898,-467,-1685
1302,7497,-4230,-4362,367,-1531,-456
1303,3729,-4750,-7352,1633,295,-1098
1304,3935,-6879,-4275,419,225,184
1305,3283,6355,-4005,1543,363,45
1306,-3251,-3769,-785,738,535,-1999
1307,-5097,7384,-5459,-710,-1060,750
1308,-2735,-6752,-1109,-1393,-1964,1020
1309,-3512,7454,1422,1718,237,1288
1310,6101,-3478,-6854,-455,-1080,628
1311,285,-6693,3059,-1300,40,766
1312,1523,4258,677,-941,1156,178
1313,6577,-7994,4888,1605,415,191
1314,3714,-783,-4276,-1479,1998,88
1315,6851,2130,-4745,1194,-1263,-825
1316,1427,93,-378,425,-842,-1871
1317,-1573,2201,6628,455,293,1552
1318,3373,-1917,7086,397,1361,620
1319,-717,5118,-3366,823,564,51
1320,3255,-995,-2041,-633,1535,-1758
1321,-6774,-1790,-7231,-603,1627,463
1322,6552,1752,2509,-601,-194,553
1323,3277,-3534,7294,-346,858,134
1324,2599,-2643,-6969,-1661,-705,-1349
1325,-1751,5081,7162,-1856,-185,1695
1326,-5088,-5438,-679,752,-495,1128
1327,-2981,-7520,1154,-1517,-1302,988
1328,-4108,1169,-2656,-225,-1621,1591
1329,-2463,4,-5732,1436,1588,-1853
1330,-1424,628,-7828,1631,-43,-911
1331,-7349,-4968,4055,-209,803,286
1332,4554,-6635,2276,-29,878,-275
1333,-2319,-5125,6765,1628,-310,1340
1334,225,-151,3596,-672,-1949,-212
1335,215,-1558,-4706,-939,1056,1406
1336,7659,1934,1566,1946,1676,169
1337,3235,647,7346,-1420,-1572,-309
1338,3973,-5475,2991,403,-702,143
1339,758,1806,6346,1162,-1500,862
1340,1719,-3385,-7263,1537,1640,-431
1341,2837,-6126,-5909,-1610,-842,-1140
1342,3156,-4764,728,1666,-37,779
1343,-1532,7059,6551,-912,-224,217
1344,499,-6340,98,348,1104,-705
1345,-6677,365,5799,1479,-608,1195
1346,7493,2760,1961,1238,92,-1210
1347,-1157,3505,1240,-1607,-100,1745
1348,3011,3678,-1019,363,257,823
1349,6853,-4117,-6101,-1920,-780,-1447
1350,-781,-1960,4282,-665,613,540
1351,-1366,-468,-7195,-1257,-1424,104
1352,1017,-1917,-159,647,263,511
1353,-7700,5874,2100,-1257,1187,-275
1354,1590,3441,-6961,-1236,-169,1291
1355,2405,5310,7591,971,-1644,-849
1356,-7714,1273,-6842,-1176,-1380,-1278
1357,1928,-2340,-1261,-64,-1100,306
1358,6082,5867,-2937,-789,-1090,13
1359,3578,7815,1078,-1174,-64,272
1360,-1219,-1890,4568,1298,-1564,589
1361,4848,5629,-4034,-214,458,-968
1362,-7937,-5329,-339,149,364,-1982
1363,3618,-343,-870,-273,319,196
1364,3234,-7419,7387,1542,-1482,139
1365,3618,93,-3466,-1304,1414,288
1366,-4970,7734,-1208,-244,727,1203
1367,-395,-785,-5579,-1819,277,-1193
1368,-7425,3170,-829,803,1720,765
1369,-7380,3951,-6148,1839,-878,-210
1370,-3464,3573,5817,156,1363,-370
1371,-7403,6070,1819,86,257,553
1372,1848,-6772,-2904,43,1398,-937
1373,369,-4509,7634,12,1008,1630
1374,-3132,5387,-4575,355,1183,559
1375,-7986,-5293,-7022,-953,-1062,394
1376,-7434,420,-264,-1582,438,-1057
1377,-2957,721,3681,840,467,-1986
1378,318,-4203,-6874,980,1462,27
1379,-2551,-1521,-6502,527,-707,-605
1380,-3931,6494,-1232,-1951,991,1912
1381,5715,-1520,7476,-1720,-1245,374
1382,-6056,3648,-7279,1804,-290,1923
1383,-21,-1795,-5739,-1593,-1383,963
1384,-1777,-6929,-7896,-1145,1335,-772
1385,-3945,-2688,814,-788,529,760
1386,7776,7684,-862,512,-1013,-493
1387,-7884,-3471,-2345,-641,1449,-259
1388,-5564,-1085,2744,39,-1334,506
1389,-638,4831,-7184,222,-674,1079
1390,-3652,3290,1053,1000,908,1786
1391,-1131,-1134,6944,1326,-1647,-860
1392,92,-6907,3712,-1820,1979,-785
1393,6147,-7957,1254,-1818,-1323,-1008
1394,-2414,-3802,-1299,-1508,-993,-1221
1395,-7426,7501,4280,-600,1231,-1301
1396,1577,1938,-150,-1859,94,-299
1397,6244,7121,-4606,1783,1337,-1112
1398,7210,-657,-3995,297,-651,-1497
1399,-2345,6935,-7000,726,-676,-1357
1400,7674,-4376,-564,1024,1527,-39
1401,4819,1366,-2087,1384,-1635,331
1402,-4520,7775,7012,-1018,1707,1044
1403,2298,5784,-5307,-1205,-586,1785
1404,-603,-7584,7542,1871,10,-546
1405,2364,204,-2799,-190,-1580,-1317
1406,7748,7898,-2879,-1904,239,1305
1407,82,4612,106,1897,-1997,1054
1408,6237,2231,4263,1105,-1841,1650
1409,361,4997,-4554,-993,1867,-1112
1410,-7394,3832,-1463,-1811,664,-1188
1411,2282,7626,2837,-1317,-881,-590
1412,-628,2555,3009,688,-944,1548
1413,1950,4876,-7627,1069,-481,-1922
1414,6432,-3592,-7502,-1645,-1424,-1772
1415,-1632,-2129,-2181,-1013,-1511,1846
1416,2791,-1936,4785,-813,-1905,499
1417,6615,2727,-7088,133,-315,-1773
1418,-2379,3291,7429,-1538,864,-1949
1419,3227,-4067,-3525,-1081,1348,-388
1420,-325,-3467,2517,213,-1534,-1499
1421,5157,-3782,-5893,1875,-138,-1154
1422,3558,3188,5053,-276,1775,1775
1423,-2264,3269,-5571,1043,-261,-611
1424,-1853,-2647,5648,-1674,-1679,781
1425,-3901,-1497,105,-1998,-1093,1357
1426,1842,-1101,-7822,330,-1857,-551
1427,2218,3958,367,1452,291,1499
1428,-2185,1524,5489,-698,1676,-1250
1429,-1376,4538,1483,-931,-1829,1309
1430,2806,7349,7530,-1791,1542,1520
1431,-2810,5649,6537,-267,-1768,-1505
1432,7662,2026,-2347,-1198,1045,1144
1433,3192,-4553,4004,-138,-1303,-1472
1434,-1261,-7070,2644,683,-1894,156
1435,483,4735,1501,-588,1715,1389
1436,734,290,3834,981,-1403,977
1437,-3379,1139,993,-619,-681,-629
1438,-3608,-1185,7103,1735,631,-1822
1439,-7343,5578,6727,-1714,1539,208
1440,3621,5045,6752,-807,64,-1793
1441,-7926,-6910,-4140,-305,520,-1694
1442,-3305,-2844,-7772,-1519,-1322,-1451
1443,-2947,-6659,-1650,-1974,1877,1997
1444,7132,-1575,3621,213,-1271,1946
1445,-7776,-4712,-7661,-782,1466,-548
1446,-2622,149,-3223,1927,-939,1890
1447,6017,4303,4329,-260,1970,879
1448,-1646,-883,-7186,-1209,415,1775
1449,-334,-6539,-7384,-1219,160,134
1450,5925,1944,-1716,1574,1324,1521
1451,-3896,7612,-2519,1783,-1762,1255
1452,5242,-4789,-2997,371,457,1732
1453,4288,5764,5964,778,-829,-524
1454,-6999,-4831,7022,1917,1215,-16
1455,-6388,833,-5175,1177,-185,-261
1456,-2537,-2100,-6440,-959,1034,494
1457,-1666,2056,-456,-1595,753,-739
1458,4222,-7907,-7163,-692,1548,538
1459,-4458,6018,-5758,674,1792,-1527
1460,7139,-3626,-7310,-453,762,-116
1461,7362,-2315,-4551,1612,477,-901
1462,-3720,2850,3767,-296,-1633,417
1463,2493,-1117,5640,1284,1216,501
1464,5447,-3366,2948,1473,-708,1780
1465,5860,6479,-65,-1183,1775,-674
1466,-3016,-820,-6135,783,-1403,-1555
1467,-6321,487,-2337,-561,1037,-431
1468,-1571,-1946,5502,-963,-568,1320
1469,1938,3812,4351,664,-1134,-495
1470,2342,6876,-4226,331,-1751,1932
1471,2428,-6338,6884,-1777,-803,242
1472,3284,5428,-2441,1841,1392,-13
1473,-5840,7325,7937,1471,1779,-308
1474,2835,7975,-7067,-630,1543,786
1475,-7874,7276,-4712,-1602,1457,-1999
1476,5030,1328,-4295,512,-1041,-1443
1477,-1925,-3938,-7192,-1000,1116,-300
1478,3264,-6739,-6447,-1345,906,744
1479,-101,-1644,-3157,-1868,698,-1307
1480,3657,4520,-5820,-647,-1867,450
1481,-4885,-2490,-2547,-1319,-1567,1865
1482,-7683,-3350,-5870,202,133,-1175
1483,991,214,-2689,-652,1202,269
1484,7639,-2371,-1148,1167,-878,-1032
1485,2947,5711,-5628,-1956,-948,1435
1486,4305,-7041,4571,1606,-907,890
1487,-2183,-6335,-2337,-824,303,-1561
1488,-4820,-3929,-4162,-474,-150,355
1489,-3812,-685,-2385,-1054,650,852
1490,4779,-4357,6712,-1865,-1602,-211
1491,-163,-1989,5365,1328,-1350,55
1492,-7876,-4022,1367,-1416,-1209,255
1493,4720,4433,268,-868,-160,-1406
1494,-5891,-169,-5921,-1280,-1594,178
1495,1724,-6456,-6958,988,470,-254
1496,-7859,4269,1729,654,-253,-303
1497,1027,1641,-5333,-323,-490,1353
1498,166,7960,-1805,-475,-1052,501
1499,-3951,-3463,-1987,1586,-1907,-1501
1500,6333,-6231,-999,-360,1941,-1958
1501,7821,4008,2713,1051,1664,-1905
1502,702,-7376,-550,-1817,923,-1082
1503,899,5480,7295,589,807,-1676
1504,1491,7584,-5166,-815,1238,-345
1505,7971,-6150,7165,-1674,-1763,461
1506,604,-4210,4193,178,1513,1891
1507,3238,4707,-6134,-200,-1493,-1455
1508,-1637,6945,6800,-110,-1068,-262
1509,6740,7246,-4331,-1231,-772,327
1510,7528,-5379,-3044,-695,1374,-243
1511,-1585,4653,6431,252,983,1059
1512,-2132,-3496,-4588,-1062,-717,-1205
1513,-7127,2737,55,1560,-796,109
1514,1090,848,4598,287,-659,-1949
1515,6426,-2272,2538,-1555,334,-686
1516,3868,-2333,-918,754,854,-1908
1517,2504,-21,-5421,1938,-536,1603
1518,4473,-4989,6675,53,-1851,1458
1519,-6724,-1229,-1622,185,-1518,106
1520,5418,692,7404,-815,-1476,-1733
1521,5905,-3423,7180,1570,-716,-1253
1522,1867,4495,-5434,-1616,1584,1378
1523,-1613,4470,-5049,-560,-868,494
1524,-653,-924,836,-241,1818,324
1525,-891,-3834,-737,1917,1692,1182
1526,-3089,2031,-2709,996,-520,1783
1527,3797,-7800,-2406,778,-539,1168
1528,4096,4271,-1110,1340,1096,267
1529,6427,-4004,3011,-1728,16,-1254
1530,-5407,1418,6981,908,-21,666
1531,-2757,3054,3992,-1675,-1719,1454
1532,2649,764,-6498,-894,-899,1457
1533,7794,3871,2160,1504,589,-310
1534,-693,-6888,2603,1881,-500,-1669
1535,-4904,2236,-3402,-927,1654,851
1536,5258,2430,5762,-1642,1971,-1451
1537,-3816,7868,-788,-1163,-1730,-782
1538,3696,271,-2491,1131,1259,-896
1539,-1632,4533,1539,-15,-1036,-457
1540,4118,1264,-2898,456,-1797,-1381
1541,1816,-1959,4816,801,977,-836
1542,-5531,776,-3231,-1260,-1785,1360
1543,4068,-7570,-7172,963,-321,-1456
1544,-6836,771,-6569,-437,669,-1895
1545,-3618,870,-3628,514,1098,1349
1546,-2552,677,-7952,1381,1920,-329
1547,1408,6055,-5720,-1579,1098,-757
1548,744,4700,-1890,13,-1502,-1250
1549,-6926,-3528,2382,-613,-1567,525
1550,7380,584,520,1773,-608,-1356
1551,2899,-2730,-2756,-1240,-1086,-533
1552,-276,2931,1604,-1126,-663,-1800
1553,2339,4681,7655,-911,-1386,-910
1554,5012,-5070,-3251,1824,-1106,1727
1555,1602,3855,6653,1037,-839,1169
1556,-7284,3255,-5213,511,-1435,-1339
1557,2530,2857,6830,654,1872,932
1558,-7035,417,1586,588,-293,-364
1559,-7420,-350,-5109,-307,1956,758
1560,4354,2067,2221,-204,1229,1758
1561,7110,5288,-5827,1679,1392,1515
1562,1397,-7178,-467,446,1526,-176
1563,3700,-4429,-4625,538,-1838,-1427
1564,7506,-3642,6557,1209,-1357,-1775
1565,-4313,-6336,-1165,783,-399,1507
1566,-1321,-7673,-5405,-1513,1133,622
1567,5147,2125,-4978,-1340,16,1473
1568,-4632,5902,-423,1579,1754,1412
1569,2332,1946,6393,-755,668,-1594
1570,5711,-4466,5043,365,-881,1785
1571,-125,-4575,-6694,1865,946,-1821
1572,-7641,7750,3306,1477,-1726,-214
1573,1286,-601,-6459,1391,-1439,1236
1574,5411,991,5811,-700,64,-1015
1575,3084,6602,7805,-8,395,498
1576,2394,-5384,1880,-1174,-1117,731
1577,-3487,2648,6181,1168,-1578,-614
1578,7625,-7857,2000,1969,626,791
1579,-6684,3403,3613,-349,1224,-1395
1580,3513,7889,4751,-1523,1411,-1146
1581,2422,-1328,-2183,882,1554,-1239
1582,7778,-7306,6130,738,1064,450
1583,-5226,6048,-7750,1282,-501,1692
1584,1747,4925,-2377,-1885,-1740,545
1585,7662,6825,-553,1879,1784,884
1586,6106,-6091,5261,1772,669,-1095
1587,-7450,7054,-1745,-1858,-1020,955
1588,-3349,-6158,110,-1657,-823,1967
1589,-7627,-2385,4490,-366,214,-1176
1590,4361,-6555,-7841,56,1058,959
1591,3242,7733,3349,-1531,-221,-284
1592,-3966,3122,-7214,-719,-339,-1176
1593,640,312,5731,1756,-1110,-1971
1594,5029,-5810,3324,-860,1904,-688
1595,-2150,-7649,1259,1528,221,-1271
1596,6307,-5185,-6318,294,1176,-1183
1597,5437,-5291,-329,943,-753,-167
1598,7149,-4630,5322,364,1035,-1960
1599,7959,-3011,-6221,1538,543,-342
1600,-3560,5261,-28,933,-697,630
1601,-3436,6721,375,992,-770,349
1602,-2908,5534,-3783,-33,-440,1401
1603,-7940,4834,-4292,717,-1818,-660
1604,-7202,6542,1487,32,-943,-1197
1605,-1540,1079,-3884,613,497,872
1606,-6280,-5400,6766,1474,669,-750
1607,-5125,7302,-2448,-1148,459,-555
1608,-3149,2708,-2631,-123,-769,-1823
1609,4976,-730,878,-561,-298,-1820
1610,4115,5499,7714,-1049,-500,1116
1611,-7006,-1916,5841,626,1673,-73
1612,-649,2406,7265,1101,268,673
1613,-2263,-2021,-7758,953,-1272,-1354
1614,7085,-5112,-3179,368,-812,-71
1615,-685,-6299,3984,1244,-660,554
1616,6744,-812,4913,937,657,-1009
1617,6262,-6325,2336,-1641,898,1481
1618,5505,-4569,2550,1354,281,-83
1619,-2174,-1196,6531,-1438,1507,-616
1620,-32,-3271,3125,388,370,1448
1621,2003,2205,4020,-37,376,127
1622,-1819,3582,1190,-503,-1216,-669
1623,-6221,7632,3344,1412,-1579,1124
1624,-2567,6362,479,488,-1571,-1400
1625,3416,-7087,-7469,1664,513,-265
1626,-6121,2119,2173,1844,1130,-995
1627,2031,-1706,-466,-700,-545,419
1628,-1691,-2520,-421,1613,177,1670
1629,-3143,7298,6191,-424,-1527,1302
1630,2418,-2576,3721,1871,-1664,1302
1631,584,1602,4998,1101,1816,-741
1632,-6410,5340,-359,-1616,96,342
1633,-577,-3266,3963,-835,-1390,940
1634,-1403,3330,2659,304,-99,442
1635,3897,4517,-6638,-642,-1072,1489
1636,5409,2094,-294,474,-1908,-360
1637,825,-1492,-6233,1244,625,1530
1638,2239,-4393,3101,-426,280,1462
1639,-426,3695,3766,241,-1129,-558
1640,2128,4927,-2565,101,897,-1621
1641,-7968,1920,1377,1900,420,-614
1642,736,3667,4769,1247,-1311,-124
1643,3678,5708,-7400,-2,460,-771
1644,3473,6034,-3940,-1747,-531,-175
1645,-6750,-5888,2012,1463,-1525,1492
1646,6595,-5072,7909,-1168,603,1797
1647,-2330,2082,2478,1038,986,1464
1648,2605,7616,-3569,-41,-531,-839
1649,7299,5377,-662,-1255,-1243,-1541
1650,1924,404,-6878,1441,-1418,1527
1651,7052,-6791,-2681,-1639,-1994,-116
1652,-4235,3902,5428,-1885,-699,-16
1653,7567,-2882,-4098,-1529,-381,495
1654,-123,5457,-5137,1588,1520,-1698
1655,2973,4977,-5448,569,-838,-608
1656,-4392,6177,-4223,-1776,458,-125
1657,1525,-5319,6001,-406,-1677,550
1658,5155,4082,-3266,1764,-1362,1776
1659,-4695,-6415,7780,1907,189,-731
1660,3705,661,3550,1081,430,-1501
1661,5280,-4745,-547,-1038,-788,1987
1662,-3846,-3702,-195,298,920,1255
1663,-6284,7579,6033,-1497,-972,-635
1664,-801,-6415,1450,191,-254,745
1665,4193,-4720,-365,448,-1238,-38
1666,-2028,1752,-6118,1184,46,-1130
1667,3511,-6356,-907,-804,753,-1945
1668,6566,-6599,2963,18,1593,-1657
1669,852,4310,-912,-1443,125,1244
1670,3835,3742,6763,474,1766,-218
1671,-2087,-4078,-4921,1646,-1834,-79
1672,7375,3110,5834,491,418,822
1673,-110,-1,5059,-892,234,-1941
1674,-3512,5389,-2537,551,611,1335
1675,833,7337,-6516,525,-453,1176
1676,-5722,1748,-4615,1778,-1292,1648
1677,2689,-4576,-5350,802,1222,1034
1678,-448,2897,4965,154,550,-664
1679,2776,5175,-1171,-1906,770,-1111
1680,-1593,4685,-2745,-314,-710,1465
1681,910,-5661,307,1124,907,121
1682,-7669,-6731,6087,-987,-1477,-1083
1683,5490,3545,-7624,-1416,-1801,-200
1684,-7537,-4493,-5385,1413,253,-414
1685,-3040,-3121,-3733,-146,-329,931
1686,-5524,6033,-780,-1554,-1046,-1698
1687,-4022,2016,7533,-1439,-209,-1293
1688,4063,-7691,-2095,-579,-1842,1328
1689,-1705,-1220,5742,1796,-1155,253
1690,2386,4571,6444,-1873,1836,1868
1691,-7748,7793,853,1862,-1509,1680
1692,-4980,4736,357,-124,-861,704
1693,-7313,-7303,-736,-416,262,-243
1694,-7092,-7578,5382,-150,-577,-393
1695,-3817,-6131,-2957,1515,1166,1802
1696,-1440,-391,-2764,-734,-426,-1747
1697,-6614,-2951,-3635,872,1312,-143
1698,-338,6284,7373,382,-922,613
1699,-6145,-1655,-840,-1751,749,-410
1700,3934,-7177,-2178,-488,-576,589
1701,-3892,7633,-1236,-1675,-16,-470
1702,7983,4516,-6290,-224,24,-104
1703,6522,4254,7880,895,384,1797
1704,6246,1569,-5540,-951,-1022,1322
1705,-7090,1909,-888,507,-1947,1596
1706,1420,5917,7228,944,65,-1453
1707,-2635,-1837,1289,465,-1431,-498
1708,-944,4146,-4714,-1996,-615,1983
1709,2669,2381,-7594,-273,-1296,-1416
1710,5933,3395,2208,-932,697,1224
1711,-6240,-6742,-836,-823,-883,-64
1712,-3611,-698,1224,-1183,1555,421
1713,5940,5348,4385,-1497,-443,66
1714,7240,5123,-3602,1421,-320,65
1715,2435,4558,3041,631,557,-491
1716,-5298,-3030,3953,-1207,-570,1539
1717,-5828,5633,1535,-333,-1861,-1244
1718,-5893,-2143,6616,946,-1344,-404
1719,-6184,7402,-7394,-1160,-781,607
1720,-5815,-4554,-6135,-1058,778,1005
1721,176,4235,4703,1142,1988,-411
1722,-6143,-3306,-6782,-1491,-784,286
1723,-2890,3409,1981,-1514,-1801,1204
1724,-3194,-7798,-3393,1641,-1070,-1277
1725,2271,-3480,-2032,-894,1695,999
1726,3662,-7601,-313,1949,-842,1879
1727,-1467,2861,-3902,972,1863,939
1728,-7261,5177,1461,-351,836,1529
1729,7508,-3968,-5732,1021,1618,1251
1730,3935,-2828,-6853,-667,742,-1311
1731,-636,3372,6038,-1492,-455,-411
1732,-4963,-7286,-752,-1860,-714,-531
1733,-7382,7295,3864,-1827,338,-2
1734,-7176,1989,3296,-1697,-1599,971
1735,7929,-1128,-7692,980,-277,-734
1736,223,-2779,-2224,-8,167,-1617
1737,4914,7468,1902,1717,383,1919
1738,5422,-3938,-737,-1690,270,-585
1739,7366,5226,145,1442,-264,-1160
1740,-4206,-3091,-3456,1094,672,-918
1741,5153,-7057,-3595,-528,1426,-1060
1742,-7391,695,-813,1706,256,813
1743,6323,-3845,-4028,-474,150,1945
1744,-6580,4203,-4518,-1979,-1708,-351
1745,7575,-6364,2090,1214,-16,-1869
1746,-3828,7213,2505,-820,421,1399
1747,-6740,-727,7051,-1514,-541,-1782
1748,2953,-2519,-1248,1806,1542,1405
1749,5597,4973,-1351,-1533,-643,-624
1750,7344,-5458,-7871,1400,-1038,1379
1751,3620,-7987,7786,-415,-342,40
1752,3486,1312,5032,-1453,1093,1020
1753,2976,-4275,2133,-4,-411,-1333
1754,-2698,-5365,-692,761,334,-166
1755,-1708,2553,-1552,-1298,923,681
1756,3762,-3826,1129,933,-1494,232
1757,-1215,316,-873,-1688,83,-1816
1758,307,6902,-5283,-1359,1792,1649
1759,4135,-6512,-4470,-511,-783,-1069
1760,151,-4420,-837,822,1631,-1593
1761,-2597,3733,1132,-757,545,-1660
1762,3756,-2989,297,-805,1380,1956
1763,-3424,-5137,-7740,973,1284,-225
1764,-3372,-2898,-587,-1726,-925,-1999
1765,698,-2158,4334,-1406,1791,855
1766,-4472,4816,3748,1342,-230,201
1767,-7696,-890,2745,59,1191,-96
1768,-4449,-6573,5655,127,1292,-814
1769,4992,4662,2602,604,1175,835
1770,-7336,1905,-7888,1369,-258,-763
1771,6788,-2353,-2496,-1537,145,-46
1772,2847,-6904,7702,-694,28,-1628
1773,-4543,3425,4126,-22,766,-1747
1774,7978,5022,1552,-1482,-1594,834
1775,4288,-1968,6014,648,-1595,1003
1776,6893,-7589,2102,992,662,148
1777,6929,-558,5547,-1782,-234,-1930
1778,-6595,-105,4141,-1092,362,-1471
1779,-4821,6793,1835,-571,1832,-1308
1780,-5983,334,5330,1133,-1481,-1684
1781,4846,-5623,-3487,-80,709,-853
1782,7826,-1068,1866,-1998,-2000,306
1783,1248,-2023,-5699,-1745,518,-94
1784,-5751,-636,-986,1243,-41,1478
1785,-2049,-6930,-6184,-1022,-4,31
1786,-6733,-7213,-793,-1874,-1640,389
1787,-7725,-2357,-7512,-701,1875,-1639
1788,-241,3939,-7512,-109,-1110,1444
1789,6091,2287,-6663,1147,-763,-956
1790,6931,3333,4742,1796,120,232
1791,6578,1868,-5653,-404,280,-1289
1792,-2568,7695,-2373,1402,-226,-1729
1793,3308,-3843,410,-1083,-977,1706
1794,4975,-2426,7717,-1144,1927,1804
1795,1061,7089,-465,-1688,-1911,-1777
1796,-833,-6594,4308,1202,-1572,-1540
1797,-7283,2849,7626,521,770,-633
1798,2461,679,2720,377,-1160,-1407
1799,-2201,-290,7314,1010,124,-676
1800,5867,-7411,-4032,-1709,-1153,-1642
1801,-1351,-6078,-6308,-1360,-783,-695
1802,-7111,-2950,-7957,-626,-154,-1738
1803,-5899,-3248,-199,-1873,554,905
1804,-6818,6884,7329,-279,-444,68
1805,-5449,-2359,5544,66,1373,-1680
1806,-1367,-7122,7897,-396,-647,-1941
1807,-5144,1472,-252,1510,1339,-497
1808,3014,-2324,1963,1940,1528,1556
1809,-6088,-4144,491,-942,-536,647
1810,3553,1050,1554,-1732,-233,112
1811,-2556,6506,2095,-247,365,697
1812,-5199,-1680,1551,-485,-1767,880
1813,1888,3867,-2957,1229,50,912
1814,-5241,4636,-7419,732,1022,-1979
1815,4146,-5967,-2984,-1669,1065,-366
1816,3266,-6227,-4117,-1991,1340,16
1817,2313,6465,-1064,196,1702,913
1818,1276,5431,1844,1124,220,-1670
1819,-2007,3282,6190,1377,-1660,660
1820,6580,7675,-7711,1912,682,283
1821,-5323,-964,-526,109,267,1016
1822,3155,3838,3124,1414,938,-1871
1823,5422,5610,-270,36,-598,-907
1824,366,5062,-6061,-1770,-123,1815
1825,-618,-2563,-830,-544,-1685,378
1826,-1539,3622,3585,379,-978,586
1827,3064,3210,2970,-1152,1094,-1342
1828,7573,782,-4273,-652,-431,1058
1829,-7703,-7037,-7263,-1091,1137,311
1830,-5998,1302,613,1811,-207,-821
1831,-5327,-4293,-2787,771,-762,1223
1832,6150,4525,-3247,-159,-1210,-1344
1833,4522,2830,-3542,-98,912,1087
1834,307,-715,1907,-1172,49,-33
1835,390,316,4524,1570,418,1223
1836,2806,6156,6776,-963,1246,-1207
1837,-6749,6534,7360,1260,-133,1276
1838,-4970,-3140,-4680,1154,475,80
1839,-1315,-7173,5353,-1582,1342,375
1840,-1094,317,5692,-898,1201,1104
1841,-4071,-4598,1047,-439,1012,-643
1842,1730,3036,-2609,-989,-216,-551
1843,-3957,3532,-524,-243,-1320,1337
1844,59,-1673,-1013,-1751,-830,1518
1845,-6052,6915,6323,-1765,1387,-1246
1846,-4669,-322,-4316,378,715,1056
1847,6498,2207,5221,1105,638,-1624
1848,4094,2915,7335,-1142,582,1162
1849,-4737,-818,1544,-1025,575,1735
1850,6945,-2522,-2183,1555,-509,-1915
1851,-3812,-3955,4059,-1792,629,114
1852,7079,-7467,-4551,-699,-93,-438
1853,2032,-470,-1275,1425,-1715,-975
1854,-5236,2079,5242,-2000,1280,143
1855,-7923,-1637,-1805,1168,-1163,450
1856,-2058,1334,5301,377,463,1535
1857,5320,4956,3666,-392,-1167,23
1858,64,-456,-184,1748,-1981,-1040
1859,-6602,6287,3614,-756,1665,22
1860,919,4912,4983,-90,502,-1911
1861,-4048,-5233,5414,-576,-1570,-1755
1862,2376,1757,-2064,993,-100,746
1863,-4653,-5563,-2227,-1917,1576,164
1864,2325,-5484,5358,-1761,130,1593
1865,-4279,-3864,1007,-67,1331,-1989
1866,4728,-7049,2083,1356,1187,1032
1867,5282,443,1157,612,1594,-1771
1868,-6070,7810,5117,197,1895,-1269
1869,-2217,7544,-7120,321,107,-1953
1870,5116,-1715,-4956,625,-1588,-446
1871,-4997,-772,6134,-310,-1690,-1816
1872,-7696,6762,-4967,-600,1964,1889
1873,-4148,7846,3223,-1617,167,-135
1874,-2529,-5740,-6404,-1174,-1563,-1597
1875,4212,3174,2135,-1198,507,15
1876,6605,-7979,169,1700,-1092,-757
1877,-3405,2997,-5660,-1538,-294,1784
1878,7898,1413,7012,-481,556,1734
1879,5296,5576,472,123,-1974,998
1880,-1423,5146,6340,-1434,107,1946
1881,-2665,428,-6387,-385,981,-1904
1882,4346,2445,-484,431,727,1157
1883,7344,-4026,-2807,-1008,-1606,631
1884,1434,-1010,6699,-283,1813,-88
1885,-2511,2897,4682,-742,-1533,1831
1886,-5142,-7963,-3641,-1159,726,1658
1887,7967,-3504,-7885,-654,-1510,-289
1888,1866,3886,3042,1945,-151,-1798
1889,6760,6210,4808,848,38,2
1890,-5484,4154,-5577,1800,-416,-248
1891,5074,3386,1993,-1005,-1273,611
1892,-5451,-4892,2418,-1282,-1389,262
1893,5257,6594,-7091,839,1741,1856
1894,-5325,-1681,7764,-1446,-1160,852
1895,1110,1675,-1060,-1217,-596,-1051
1896,-1625,-5604,-1844,1335,-463,274
1897,2421,5808,-142,692,-1802,-142
1898,6306,1808,-4736,-628,-1090,-1405
1899,-7426,5078,7070,1514,-1416,-133
1900,-938,-2642,7729,1451,338,-1254
1901,6115,7369,346,-1110,699,-943
1902,-6002,5505,1043,370,46,-1879
1903,1745,-6539,1188,-856,889,1476
1904,-7945,6644,-7256,1378,-895,1979
1905,4195,1685,668,318,1130,743
1906,-7689,5487,2573,-495,1673,795
1907,-2370,-2788,7805,1029,-611,53
1908,3970,3739,7951,-1410,-1723,-657
1909,-6228,5280,-2039,859,1814,1283
1910,-3392,672,-2617,-1413,1100,992
1911,-4879,5938,-3129,-701,1000,-411
1912,-7808,-5252,2023,143,-635,-525
1913,-199,-3965,2463,1744,-1116,-637
1914,1935,4481,-7766,291,-304,1949
1915,3972,-1059,1736,1708,-1209,-907
1916,1858,6895,-843,-304,1454,-1941
1917,-407,-1570,5366,-1511,1025,1975
1918,-170,5714,-7109,171,822,136
1919,4412,4960,3952,-772,-1824,1671
1920,5298,5165,-419,-624,851,-700
1921,-1777,-4075,5389,1080,-1204,329
1922,7508,7860,-5045,-240,1596,-1984
1923,-4628,234,4182,305,-726,1035
1924,-7861,3679,-700,-751,953,441
1925,7948,2120,5871,-1181,1584,-276
1926,-5360,4933,2302,825,-1266,-960
1927,-6436,-4855,1079,482,550,-1295
1928,6567,4815,-4530,-1377,-1981,-1401
1929,6887,-4953,4722,446,571,753
1930,-7012,3689,7212,-1989,1335,-162
1931,-5952,3653,-7789,-309,-1192,1661
1932,5830,2986,-2834,-394,-1621,-251
1933,-6360,-1288,2827,-1336,-765,-447
1934,-6690,-5097,-3532,1153,-51,-1117
1935,-3785,-4723,6712,1763,-574,1744
1936,-939,-6519,-4641,-1602,-1146,1734
1937,7878,2497,4559,-820,-1707,989
1938,7667,2939,283,-1615,1647,807
1939,-6818,2838,-1212,1307,-814,-1122
1940,7025,-5922,251,1185,-233,-683
1941,2148,2183,-587,1429,1977,193
1942,-3377,1128,-727,436,530,1772
1943,-1454,7392,-6515,-851,-1360,952
1944,4453,-7146,-3591,-1127,1985,1906
1945,-2381,5605,5762,1639,946,-476
1946,-5596,-7358,-1319,-296,949,-1427
1947,-2382,5593,-2593,-916,15,-225
1948,-6842,-4675,-674,-52,731,-1735
1949,-611,6698,5327,-941,1039,-100
1950,-5702,-4053,550,-1949,-1468,-1382
1951,2721,-5338,3231,-1881,-933,84
1952,-2215,-4537,7992,-414,-846,169
1953,3301,2454,2085,612,-559,849
1954,-5071,1657,4972,1874,1307,761
1955,-963,-5336,-7574,624,1621,1623
1956,-3029,-934,-5609,-1931,-1682,-1758
1957,7499,1754,-6624,17,1734,-331
1958,475,-7217,5772,915,1213,907
1959,-1807,-4505,-2961,899,-43,-1623
1960,-4423,4885,6990,-1925,-171,-1698
1961,-2349,2726,3152,-1052,-251,1875
1962,-4595,4830,-1972,-1977,215,1893
1963,7456,-7033,-6679,444,-538,-1996
1964,-4689,-5450,-1492,-1172,266,871
1965,5135,5915,-1306,-1441,-473,-579
1966,-2913,-3010,1787,-360,1598,591
1967,1175,2289,-3813,-751,-780,1856
1968,6918,3349,-4887,-768,-230,204
1969,-6043,4512,-6921,-931,1240,-1699
1970,7370,3496,1010,-80,-991,737
1971,-2663,736,7248,-247,-577,-620
1972,-4045,2720,-6635,-143,-1241,433
1973,-6634,-5559,2144,-230,-17,-952
1974,-7557,6176,1168,1509,851,190
1975,2808,5613,1345,188,1836,121
1976,-6593,7270,4066,1550,81,-1841
1977,3731,-7060,4348,875,1921,1303
1978,5303,2621,-808,-246,978,-1534
1979,-2531,791,308,-824,454,-667
1980,2242,-4087,4101,40,-1126,1153
1981,4573,2107,6355,-797,474,714
1982,-3745,-1663,5010,119,1419,-1954
1983,-879,-1400,-7875,-1573,-856,-1874
1984,-6655,-3598,1834,1022,905,802
1985,1523,4932,3915,-597,813,-1971
1986,-4626,5050,66,-292,535,-1937
1987,-5845,2942,-7338,-1914,-299,393
1988,7527,-7103,-2235,-696,-1148,-972
1989,-1468,-1987,-5571,656,-1660,942
1990,4441,2969,6718,-1739,-799,-203
1991,-6501,-4717,-7374,1899,728,-1992
1992,2349,3650,-4846,-1487,20,465
1993,-752,-2427,5110,-1780,1540,1374
1994,4707,-79,1874,-1672,-917,10
1995,-497,-5071,2919,-161,1436,1265
1996,-2778,1399,4206,-1940,-588,7
1997,585,5888,-7781,457,-1825,1134
1998,697,-1668,2883,-1889,897,-159
1999,3210,-7875,-4196,-469,-1833,1921
2000,3795,-7433,-1983,804,-1705,-1844
2001,7161,7781,4531,1017,1629,999
2002,-1561,-317,6733,-1400,-1019,-1191
2003,5779,7542,-5717,-480,766,-296
2004,-7931,4813,908,1979,585,820
2005,-5278,-2919,1321,-121,1137,-831
2006,-2240,6090,4336,-770,456,-743
2007,-2057,-5531,1996,1544,210,120
2008,-5408,-6980,-633,1976,855,258
2009,5451,2271,-356,1716,806,331
2010,2595,-5445,-979,1609,1588,806
2011,-3915,2855,-2412,1989,-772,-1705
2012,-2469,-3171,-65,1698,-1681,-1097
2013,189,-5212,1724,1169,1169,371
2014,-3705,-6660,4293,-1154,-787,1911
2015,3217,-7869,7188,-1604,-621,1502
2016,-3646,3788,-4256,-472,1301,-1775
2017,258,6446,5463,332,-469,-273
2018,-6880,-4026,-4264,1635,-967,441
2019,628,4175,1323,1307,837,421
2020,7407,632,-1109,-282,1492,-1694
2021,-7234,-5288,-1126,1394,-1417,-1977
2022,-5323,2811,1399,-1923,-101,503
2023,-5739,-5419,788,-1002,215,-1160
2024,4379,3968,7009,422,45,-1345
2025,4530,440,-4218,-63,-17,1567
2026,4610,1360,-2730,672,-1171,-819
2027,-4413,3528,-5102,-1305,-448,730
2028,3916,5898,1694,-1444,-1118,-35
2029,7278,2419,5630,-575,361,-363
2030,3146,-2032,-1669,1499,-494,48
2031,3651,414,-2893,-127,-1702,-723
2032,1361,5959,7276,-1261,593,360
2033,6161,6916,-1088,1334,-820,-925
2034,-1895,2828,5448,660,-1670,-1483
2035,-1793,1068,6120,1632,-1189,-1662
2036,3352,7013,7158,1616,-495,-1213
2037,3333,2285,-2497,889,-1647,514
2038,-3687,-2593,-431,159,608,-38
2039,5637,-694,-828,300,-300,-742
2040,6900,-2366,3152,1271,38,1849
2041,-6529,-2986,4022,807,1389,-563
2042,-2076,-6555,-1045,-1450,-1689,-1898
2043,-3998,7322,1185,-676,-938,-689
2044,7001,-2712,3622,-1675,1181,1337
2045,-6770,-2334,6451,1244,-1155,607
2046,297,-5711,-1048,700,536,-645
2047,3576,-7981,-4038,-1043,1228,-1309
2048,3002,3058,688,-809,-951,1486
2049,947,-6762,-7101,733,-848,-317
2050,5090,3319,-1139,643,1961,-587
2051,-3858,-2412,-2894,-905,1185,1324
2052,3702,-1303,4380,1470,-1346,-1396
2053,2139,-1962,6669,316,-917,994
2054,185,2019,-4118,190,-1173,-1052
2055,1213,5909,-7740,-20,800,492
2056,-292,3277,4422,405,126,-48
2057,-5070,-4796,-897,-1772,-728,1402
2058,-4235,580,788,-728,1015,849
2059,-2555,-3788,4419,54,-89,1808
2060,-4160,-2233,-624,1405,-1229,1975
2061,2840,880,-7932,1444,1813,-1731
2062,1192,-3174,-4207,-1873,-384,1490
2063,5330,6636,-5669,-1308,-688,-1106
2064,1693,-1770,-6821,72,-763,1281
2065,1849,-6674,3017,-573,1560,-1419
2066,-4173,1318,-2384,1931,-1133,-1992
2067,-3885,-40,7138,656,-988,-1178
2068,7301,7652,3213,-103,-1046,1093
2069,4341,-136,-2486,1271,-1530,1121
2070,2822,689,-1083,1923,-972,1375
2071,1937,536,-6,1812,-279,-22
2072,-149,7759,2427,-1438,-664,614
2073,1093,2206,1626,1994,-666,1711
2074,2573,-1370,4051,-504,-169,1655
2075,-4639,678,4606,-1854,-1698,-1668
2076,-5386,-4310,3538,1589,-1975,-1727
2077,-804,4375,-4499,896,-1846,-368
2078,-1698,-7802,-2495,430,578,1388
2079,-3743,-4723,2618,-1086,-1808,659
2080,1683,1362,-659,-949,452,1505
2081,-6906,-4569,-2228,-464,-578,192
2082,-1651,-4278,1460,987,432,338
2083,7976,-6272,3315,782,-175,-1671
2084,-5920,-3356,2156,1246,1714,-1181
2085,-1880,-6818,-3554,-526,774,895
2086,5227,6008,4963,1736,1845,-1078
2087,-123,-2974,-6326,1587,239,743
2088,-4399,-804,4467,458,-921,1631
2089,7583,-2125,-2328,1763,856,952
2090,-4946,1983,-3589,-1494,-613,-1167
2091,321,7405,2875,1639,1214,1290
2092,1815,4685,-1299,-1528,1907,-1307
2093,4657,-5569,-792,657,1108,605
2094,931,-2605,-3376,-1994,494,1998
2095,-5703,-4880,4824,-800,-850,-873
2096,1923,-1881,723,1429,-1321,1662
2097,-5010,-7214,4229,2,601,311
2098,-142,-7853,3277,-723,1338,-510
2099,929,-6564,-6028,1743,1266,-1730
2100,3921,-3905,4232,726,1485,910
2101,2341,-3331,6666,-1809,-771,1447
2102,997,-3175,-3148,359,1,-242
2103,-4672,-2640,-3657,-53,1761,-1235
2104,-1406,-4607,-7932,1570,-1420,-715
2105,1283,455,6884,575,792,-118
2106,1922,-3337,-5921,1843,1768,-71
2107,1573,4382,5521,1234,-1078,-579
2108,353,-6028,6224,569,-1852,1078
2109,2926,-3523,7731,-890,102,70
2110,-5118,3309,-4344,-1188,1807,1482
2111,-5115,1890,7416,1031,-1441,-1084
2112,1653,6583,-3977,-498,-1820,386
2113,7819,-7589,5812,926,366,242
2114,6329,4103,-540,-1980,1696,-1492
2115,-4299,6916,3681,1602,934,-1712
2116,-7610,-4656,1148,48,940,74
2117,5686,-1773,6182,960,1458,-1196
2118,-2401,-804,3511,-417,145,-384
2119,2093,6445,3238,817,-1337,-1165
2120,3909,5462,6638,328,1953,-11
2121,-1659,-2826,-1082,967,283,890
2122,-1979,7116,7518,-175,128,1163
2123,5399,-7440,-3599,1529,-1998,-1244
2124,-4493,-336,5324,-1061,1509,1981
2125,-1820,-5568,-2025,1707,135,-820
2126,7130,5451,6332,739,1977,-1657
2127,4346,7442,-6783,-1408,1050,993
2128,-4711,-4419,2402,1452,-444,1512
2129,-4398,-556,-1850,814,1094,-40
2130,309,-2729,-3199,1651,-1353,-1464
2131,6009,5617,-5901,-1992,1802,1907
2132,-2722,-3384,505,-55,-891,-389
2133,3110,5532,-4241,1926,172,786
2134,4787,-4922,-3988,-1440,1845,-1782
2135,-6876,-6516,-7849,1477,-1744,-543
2136,344,582,7064,-911,-316,-23
2137,-7238,7786,3307,-1560,-1029,-1163
2138,-782,-1069,-1177,1112,-332,1649
2139,-3835,-1740,7576,-173,-360,242
2140,-3285,-7444,-54,-1965,-249,276
2141,2026,7513,3275,-1458,1863,1108
2142,-3238,6704,299,-1799,765,-806
2143,-96,-5882,7588,613,411,1143
2144,-1603,3027,-4416,904,-1452,-488
2145,-3470,-2015,7974,-227,1622,-163
2146,-7934,3431,897,1324,1760,869
2147,-799,5436,712,517,1409,-1032
2148,-6921,-6793,-2900,1403,-627,-1163
2149,-7342,-506,7421,294,-524,-1403
2150,4336,-6543,-4595,997,1208,1787
2151,1593,-2894,5947,1491,-1692,-1340
2152,-341,-6240,2881,1689,-290,94
2153,-3840,-4923,-4980,1971,1073,356
2154,4101,-1863,-6660,-1114,-189,942
2155,5118,-5345,-616,-1292,1925,1760
2156,2248,1228,7784,1696,-676,-1431
2157,7618,-369,-5398,-1862,-1431,-779
2158,5052,7222,5378,-575,-1189,1879
2159,-5175,546,-4393,-240,1127,78
2160,-2062,6246,4521,-1616,234,260
2161,-6470,1543,6198,-174,1595,642
2162,-5084,-4834,7964,-1060,493,-1647
2163,-3140,3201,-5022,-1950,1040,694
2164,-7338,-6198,-6506,-1943,335,575
2165,968,916,-4713,710,837,-391
2166,5955,-5833,-29,-1984,1312,559
2167,6501,-7460,7455,-1189,-1465,-1440
2168,2759,-1316,-5176,1852,420,1985
2169,3416,290,4562,418,-751,1478
2170,5918,1787,-3740,713,-817,-1373
2171,-5530,-4838,7806,-1309,-1613,-1623
2172,2096,-1992,-3612,-956,1376,1129
2173,-3835,-7157,4624,387,1265,-1995
2174,2775,-6191,-91,848,949,741
2175,1695,-2459,-1207,-1409,-1386,1315
2176,-3178,3863,-774,-1709,-1786,1152
2177,-5676,5028,2810,202,997,172
2178,-309,596,-1318,46,-1014,-1003
2179,-1954,-1014,1341,1514,-185,371
2180,4658,1097,7009,-1921,-845,-1655
2181,780,4452,-4002,804,1633,-261
2182,-3200,4930,-3045,-807,-1942,1260
2183,-3251,7791,-6540,-1360,-1129,357
2184,93,-4425,-4703,1364,1059,-1822
2185,1762,-3117,-7053,591,1715,-194
2186,-2137,-2465,914,-164,602,-700
2187,-4554,234,3391,380,-422,-1713
2188,7459,1610,-2693,-1889,759,-1951
2189,-7008,6445,-6970,863,-1035,-305
2190,3725,-7974,-4002,1237,-809,-1138
2191,-3394,3027,3351,-1168,871,694
2192,1407,-2156,-6642,1202,-1207,-67
2193,3757,-732,-4476,249,-1940,1663
2194,-2879,-3291,-865,1856,-705,-131
2195,-7206,7410,-7737,-1860,-1424,666
2196,5064,-167,964,-727,-1912,-201
2197,-2993,4262,7041,1218,-897,-589
2198,-5144,-7413,3069,1338,47,-1455
2199,972,5962,-141,-253,21,463
2200,6544,-3238,1671,-1389,-19,-495
2201,2609,1639,-3092,-841,1418,631
2202,4357,-49,-78,-670,709,-507
2203,-338,4687,143,125,-998,1461
2204,-7779,5619,846,-1608,250,-191
2205,-3512,-7876,5694,1003,-597,398
2206,4443,2893,-2697,642,1632,222
2207,-7369,-3370,2050,-336,1990,70
2208,-2735,6418,7596,-664,-89,-860
2209,7587,736,1489,580,-1648,691
2210,-3438,2190,7206,-603,-892,1265
2211,-5134,1533,-3708,317,1989,1929
2212,-1072,1609,7981,-1236,-18,-561
2213,-5016,-546,833,-475,-785,847
2214,4706,2837,7715,680,-791,1388
2215,-2363,7401,-7498,-253,-121,-839
2216,-2112,-6762,1506,1573,-805,-13
2217,5444,6303,5503,1584,1661,-457
2218,-6796,883,2336,-355,610,-1246
2219,-7185,1722,4814,-1508,1146,-755
2220,7965,5367,-5894,1039,-1931,1168
2221,1544,5274,-6558,-36,1291,-1712
2222,-484,3959,3938,-642,-893,-699
2223,-5513,5262,7140,-1095,1904,1560
2224,-2786,-3992,551,226,506,645
2225,5614,-7497,-2112,1112,1750,-858
2226,-1546,1201,-1693,-458,-1407,1448
2227,5365,-2803,3468,884,-1102,1436
2228,-995,-1059,3229,-1767,1348,1672
2229,2323,1139,-1902,-1311,437,552
2230,-1259,-2360,4507,-485,1511,748
2231,-4467,-1333,6292,891,-1243,141
2232,7368,855,4502,78,126,-1721
2233,-712,-3409,-4280,830,-366,885
2234,7145,-5531,-4461,-1011,-520,-1151
2235,3880,-4435,453,316,172,-1984
2236,-7322,7288,3943,208,817,145
2237,-4794,7927,-6203,-314,-1180,852
2238,4363,-5371,-1236,-1908,-766,632
2239,1698,-5142,3581,-553,1926,971
2240,-4842,-7029,6239,-867,-851,367
2241,6467,-2749,3202,-659,106,1561
2242,-2145,3272,-7508,-780,-1868,-18
2243,-5901,5325,-2718,90,688,1452
2244,-3972,-3108,2725,667,-1267,686
2245,4394,-5428,3392,1383,-821,-735
2246,-7370,1108,-6925,1729,1826,-486
2247,-6077,-2818,2994,-1724,1011,1523
2248,1783,2405,-7535,-447,-793,1811
2249,618,1939,5319,-960,692,1700
2250,7727,-7309,-6388,538,-1078,1788
2251,-4364,-412,7313,-947,1779,370
2252,1386,-6243,5512,-1590,1012,-1562
2253,6767,-5011,-3833,-1732,706,-1687
2254,-2464,2638,-4616,1723,-375,61
2255,-1972,-5309,-761,-1499,-1476,1074
2256,4283,3099,741,1605,-1525,1906
2257,-2137,-388,-4729,-656,1058,1649
2258,-71,5701,-4236,-1762,1927,-227
2259,-908,6811,-2861,1909,-1918,-33
2260,-4581,6118,-6780,2,1048,-918
2261,-3497,1341,1187,1175,-1689,3
2262,-4078,-5344,5291,1586,205,-885
2263,3683,6850,-2482,1298,-1891,-672
2264,-4071,-1265,1754,-1656,1131,1754
2265,6232,-778,6024,-738,-984,1471
2266,-6503,-4158,7470,1876,-202,1613
2267,-7785,2782,-78,-1132,-1787,189
2268,-7744,-9,-1801,1814,-1469,-1701
2269,7767,-306,1243,-508,57,-1256
2270,-5145,-5594,-2374,993,-774,334
2271,3644,-374,2483,747,1302,700
2272,3721,-3986,5669,1922,-1196,-295
2273,-6427,-1163,6405,-357,1341,1873
2274,-1521,4811,3522,1836,794,1196
2275,-3015,3908,-7672,1469,-1401,-530
2276,-3522,4321,-4605,251,-440,-97
2277,-4797,18,-5636,-214,831,292
2278,5808,6794,7213,1122,572,796
2279,676,-2928,260,887,-1689,-933
2280,3698,468,-5548,1818,-20,-1974
2281,6864,-2968,2703,-1099,1316,-1239
2282,-2192,3036,5810,-799,-1248,-1352
2283,5500,7704,-2570,-584,-995,-1191
2284,2063,-2859,3748,-88,1082,1147
2285,6267,5111,-7498,1771,319,-1452
2286,-7688,-7537,3226,-805,-1046,703
2287,2838,1431,1297,-1435,-814,1402
2288,3019,-1822,-10,706,183,1346
2289,3210,-7555,-1547,526,260,431
2290,5031,-5115,-4791,-1756,-301,647
2291,-3729,5114,-5031,1029,1239,-1137
2292,5989,5063,5755,-640,1637,-788
2293,5067,-6697,-4689,1496,442,-1913
2294,6966,7857,7304,-304,1204,-1876
2295,3575,-2871,-404,924,-258,574
2296,-1177,5115,-962,-165,493,-1730
2297,-3582,4125,-133,-1105,-1541,796
2298,2577,710,6049,719,1532,-538
2299,-5565,-2534,-6868,-1582,-393,1977
2300,7001,-837,2104,94,-1545,550
2301,142,-767,-5205,-1481,1037,339
2302,-5670,7081,-4960,-1044,856,379
2303,3152,-2679,-623,-381,-1871,1592
2304,7048,1792,3204,1375,1273,567
2305,-6806,4266,-2868,654,230,-702
2306,1503,1494,-6648,949,1794,1833
2307,-6132,-4608,-6067,1801,-1235,-1165
2308,-5046,5760,7124,-1229,375,-85
2309,3580,-1093,7601,-1943,-519,-655
2310,-7227,-2041,5658,1368,927,-1243
2311,6397,2750,-2986,-302,678,-656
2312,-3037,4727,3144,695,-988,-72
2313,1572,1771,-700,-690,291,-1796
2314,3906,-3586,-1278,-1048,173,568
2315,-1639,-3049,4751,832,-1471,-179
2316,-779,1398,6193,1095,1061,-1098
2317,-2828,3852,-457,1717,-661,-777
2318,7030,-2655,-1271,1330,-886,264
2319,7407,5183,7440,499,-1783,-940
2320,7652,-3448,-3189,993,1498,-1979
2321,4763,6975,-7703,-290,-213,-743
2322,2662,6284,7487,430,861,1513
2323,538,7793,7359,-984,-203,-179
2324,1981,-364,3509,582,451,159
2325,-1091,-6515,-871,-689,1556,-172
2326,-2636,-5615,-2171,435,-515,142
2327,2460,-1164,-3912,-1118,-43,-1052
2328,-3383,5212,-7036,593,395,679
2329,216,5379,-175,-341,859,-1267
2330,-468,2276,-7247,890,1681,1918
2331,1005,-3967,7765,394,753,1458
2332,5805,-3658,3772,-1821,-555,-1539
2333,-3092,2849,-4095,-681,-1313,-764
2334,-5509,3919,5858,1717,691,78
2335,7700,2799,697,407,1782,784
2336,800,-2472,-6778,-1547,743,-1174
2337,2234,-1583,-6569,447,-487,-1208
2338,1549,-2999,6246,107,-46,-842
2339,-7418,3252,4859,1956,1150,1247
2340,2142,-44,-1888,1271,-1358,302
2341,287,4483,7908,1710,339,338
2342,2365,7718,5790,-1015,269,-1347
2343,-4888,4496,2393,1867,856,-1888
2344,-3624,7708,-2617,-1496,-1921,-703
2345,4905,5435,4957,326,-187,1930
2346,6828,7835,-4621,-1987,-246,-294
2347,1774,-3129,7944,-661,-706,-980
2348,4754,7321,-5720,1109,527,-26
2349,7575,1665,7804,-940,-1785,-220
2350,3120,5249,913,543,-1859,-269
2351,-5069,5190,-4701,97,-67,-813
2352,5418,7840,6463,1495,426,-429
2353,-4775,6799,-1973,-119,-1821,1361
2354,-86,-3002,2387,-1271,-1676,-272
2355,-1784,5898,7981,1642,1370,1785
2356,-44,-5735,-4595,1753,-1211,969
2357,4667,-2201,-2942,90,1775,-382
2358,2083,-3791,-4220,684,-1264,954
2359,-5239,4546,909,1386,-340,1758
2360,-1571,6539,5167,1246,-628,-665
2361,-1703,-3609,-4917,925,-572,27
2362,-6056,-2847,5074,-1091,-1708,1166
2363,939,3765,-553,213,1864,1510
2364,-2767,-4140,-2508,1527,-1068,-888
2365,-6289,-6901,2469,47,-1072,-1984
2366,-2240,4715,-5224,-912,-714,1883
2367,221,-2757,7964,1048,689,894
2368,-1510,-436,-7981,-1020,926,1853
2369,-1941,-5366,1266,-293,-516,1049
2370,-5654,-6569,3228,1026,303,440
2371,-3424,2776,4401,1874,730,86
2372,-631,-1518,-5489,1385,-1138,-1372
2373,-788,-1638,5352,-965,-575,-406
2374,-5723,-6917,777,1945,1437,-509
2375,7723,6413,-7607,-1044,673,1712
2376,6096,-2087,7704,231,-985,1256
2377,-5111,6400,4208,-1852,1851,-1704
2378,-1959,3969,238,1655,-376,-1935
2379,-3249,6235,791,1899,577,694
2380,-3812,2506,6552,1039,1075,-1045
2381,3511,5506,-6416,216,-310,-1364
2382,-5233,-7332,-6723,835,-1407,-1669
2383,5862,-7560,5511,-223,1660,1293
2384,7287,1047,4594,-710,647,1956
2385,1858,747,6823,1815,-374,-219
2386,63,-4891,-7969,1766,892,-863
2387,2003,1013,2139,1736,-825,298
2388,-5816,-3674,4206,405,1525,-727
2389,-3254,1323,-3247,134,1815,-1549
2390,-4522,-2337,7129,1203,-753,1334
2391,4110,-6515,-6524,-1994,-1035,704
2392,31,4820,5021,203,-964,1954
2393,-1771,2128,722,-1715,-1366,263
2394,-4418,-4635,-5626,1695,-45,593
2395,-3814,-2563,-7558,-1409,-772,-1286
2396,-1048,-846,2726,-811,552,1691
2397,-6631,-3557,-2474,-577,1413,491
2398,-3781,-6453,2225,1641,-928,1780
2399,1582,-5200,1176,286,787,914
2400,7544,-5114,-5300,-662,802,1080
2401,6604,-2440,1855,-1022,-657,-1038
2402,3620,-3669,-833,786,801,-1281
2403,3411,-1867,-3215,1790,1246,-376
2404,6185,7579,-1448,-1744,-1382,-44
2405,5299,4112,-3754,357,-877,-1976
2406,-5023,-3660,3051,52,-642,-1395
2407,-5615,-5691,-1430,1100,-1089,792
2408,-6685,3221,5906,-1833,959,1877
2409,4017,3983,6539,654,1865,-1593
2410,-5422,6175,2334,205,222,-1126
2411,7748,-5943,5837,-927,-1602,-1642
2412,5170,4561,6497,-366,-1571,827
2413,-7709,-5233,-5391,-1656,-1329,-1538
2414,-6870,-4358,7524,-732,-1299,-31
2415,-1118,7303,-196,1575,-1418,317
2416,-2222,7734,-2081,-319,346,-1079
2417,4527,-4553,4252,709,-1264,-1353
2418,6026,-6668,-7041,-1428,194,875
2419,3756,4796,6510,1686,473,-1202
2420,7109,-7919,-4877,7,1706,186
2421,-5646,-1732,7947,-522,-791,367
2422,-6622,-6312,-1132,-589,-529,1440
2423,-1990,-2190,-359,50,-93,1820
2424,2028,6940,4646,-1203,1362,-1531
2425,-2974,-1101,-7061,-1773,-1886,-1202
2426,130,2438,1891,-541,-180,-946
2427,-796,-1283,3598,-498,815,104
2428,-6720,-5428,-348,-1850,-1421,1928
2429,2226,310,-4608,-470,1343,-1660
2430,-272,-5590,-5283,1311,-1388,170
2431,7210,-1793,-5593,690,-1461,1336
2432,3069,5662,2747,1161,1147,-879
2433,3573,-3064,5880,-1739,1821,-1975
2434,4282,5386,6424,-1889,-326,-1092
2435,7936,6879,2507,-1238,-65,610
2436,-1435,3983,1968,63,-1071,1855
2437,-1099,-892,-1653,1106,1854,-1404
2438,-6069,2819,7998,566,1429,-1262
2439,-2150,5975,6248,1120,-1790,521
2440,4790,-60,5121,1381,-1112,-1393
2441,-6387,-762,5399,996,76,-1057
2442,842,6354,7902,-768,-896,-1037
2443,4167,4522,6650,1049,1317,-696
2444,3224,-5786,3303,-1450,1827,359
2445,-3733,-7092,1213,225,-1430,-1545
2446,2910,4554,-6227,-1795,-598,-748
2447,5975,-1872,-3923,-1075,524,473
2448,1057,-174,-2016,800,-1687,1574
2449,7059,4716,-5681,-67,-1037,-328
2450,3451,6524,-1684,-1341,1146,-1871
2451,-1580,3637,-3783,1971,1016,1251
2452,-4664,1712,-5405,144,-1064,522
2453,-2003,-731,-6159,-1605,1612,-1183
2454,2037,4328,-4920,813,-1857,1698
2455,3960,-7886,-1470,-997,774,-1248
2456,5467,7284,6938,-1544,-1577,1689
2457,-1741,-4211,-6144,880,1627,1935
2458,-3131,5654,4186,-1609,1941,-1553
2459,-4478,-7155,4104,857,-623,-897
2460,5072,4541,-1193,1031,1144,182
2461,4609,4150,5287,1605,545,1860
2462,1721,4462,-3788,-1093,1866,-767
2463,-1194,-4681,6952,1572,457,389
2464,-6082,-3365,3564,-1484,939,-1816
2465,7315,32,-2498,-567,-1123,580
2466,6416,7560,-323,28,-690,-154
2467,848,-6059,1595,-677,-762,-1937
2468,5846,2111,-2361,1920,1006,995
2469,3183,1444,4752,-1460,-976,-702
2470,-363,-2743,2752,-1720,-1150,77
2471,1201,1794,-5892,-694,-890,-836
2472,-5471,-705,1074,-1597,702,-97
2473,1393,5530,-822,1890,-1802,1909
2474,7695,-2689,-1069,-1669,1392,-709
2475,-5905,3875,1924,-584,-774,-196
2476,-3171,-4014,1965,1112,-243,980
2477,-2449,7568,-2170,-576,-1268,-1676
2478,-5247,-1617,-475,-9,-1220,-1350
2479,-5565,3324,7020,-67,570,-920
2480,3669,2780,-4289,1020,-1310,1239
2481,-4731,2353,6836,1946,1447,1274
2482,6388,7949,3949,-587,-713,-1001
2483,465,-4970,3477,870,953,-342
2484,7875,-1959,-6484,261,218,-1925
2485,-1353,4131,-2370,595,1594,-1268
2486,-2859,-1659,4670,865,-69,648
2487,6852,5662,2870,32,1859,74
2488,-5567,-6531,7330,1580,19,-1868
2489,-6932,1707,-1949,610,-932,386
2490,-5944,-7854,-6225,1254,-316,75
2491,5358,2101,-490,432,-791,1945
2492,-3442,-7316,4237,-15,-1689,1944
2493,-6050,6364,2928,231,-1819,1406
2494,-4587,-109,5273,-732,1176,-1403
2495,-2475,-890,-1578,-568,1959,349
2496,6546,7844,-4867,-1055,-1090,-559
2497,2771,175,5693,65,1945,-170
2498,7081,4864,-7604,802,-517,135
2499,1018,1906,-6816,-258,1594,1038
2500,-6803,-6561,-210,1540,990,56
2501,7377,-7732,-6321,-297,-1440,1103
2502,-4338,-171,-1580,-1346,-1716,-1620
2503,-5635,7841,-1618,-936,-1380,1561
2504,-58,3232,5366,-993,207,656
2505,-2356,-4484,-2121,149,-1353,264
2506,-6460,-4196,-3555,-1401,1446,-330
2507,-7620,-7580,6189,-628,1541,-318
2508,229,-3792,57,1402,1237,-313
2509,3095,1945,-4896,-704,1546,-1481
2510,-4393,-6625,2164,1944,-301,1894
2511,-2681,-4939,414,647,-1022,-605
2512,7328,2497,4497,1924,-1517,992
2513,3301,7387,-2851,-1900,1764,-557
2514,-4359,-5683,-7964,-1889,-1610,389
2515,-5992,-6473,-5889,-1585,1016,1511
2516,-1757,-4277,-7048,1972,-534,-1981
2517,2820,6884,-7408,-984,-827,214
2518,-1343,2381,5625,-1410,1072,498
2519,2546,6407,3262,-285,-1899,1234
2520,-4301,2076,7313,-1773,-475,17
2521,-3564,-4546,2116,-180,1867,631
2522,-4306,1820,4027,1580,1210,-1620
2523,1655,-4853,-1743,-635,1515,1938
2524,-7812,378,-3383,-1211,1110,779
2525,2250,-540,59,843,889,1986
2526,5949,4692,3385,523,-876,-379
2527,1109,-1653,3369,1070,1518,-1608
2528,-3746,2391,-3538,1573,605,1735
2529,-5959,4974,6886,-1020,404,-724
2530,7806,222,-3326,1694,-1560,-1782
2531,-7477,-4942,-7928,1565,-55,598
2532,-6812,6187,7640,-92,-1775,726
2533,-6972,6537,-3225,-1178,1027,936
2534,-1005,290,-4513,1349,869,-1879
2535,-3950,-5891,77,-39,239,-822
2536,-6154,-3507,-2465,1047,430,1614
2537,-2000,2290,3391,-172,1121,-1246
2538,3329,497,-7477,510,-1997,1151
2539,7770,-2516,7302,-667,-44,1166
2540,-2622,7018,-7465,-1038,488,1797
2541,5730,-3128,3187,-1564,-1995,-1886
2542,1122,3355,-5515,-445,1145,-1136
2543,6009,-2128,-4743,-1167,-1454,1668
2544,1893,4406,-7056,724,640,-1325
2545,-1569,-7349,-5896,-1143,-1876,-1518
2546,6396,-973,1419,1889,873,729
2547,3105,-4458,2183,1557,-1978,-608
2548,-2466,1962,5861,-1649,-1687,-1171
2549,4914,-4824,6535,-95,-1853,1956
2550,347,618,-1697,1417,-1904,-1383
2551,3425,3269,-1536,-1469,1028,-1790
2552,2174,7024,-1134,-1057,1161,-709
2553,-5210,-3179,5450,-831,-1702,1523
2554,-6447,5911,-3894,-690,375,-1223
2555,-5467,-5474,-1933,1871,-791,1207
2556,4517,1197,-494,1464,755,-703
2557,-6433,-6208,-3935,-1070,-113,1378
2558,4971,-1060,4814,-1007,-787,229
2559,-5778,207,-3239,-1420,649,1618
2560,2895,1795,4961,905,-1405,856
2561,-2702,6853,357,1020,-1363,-758
2562,5812,4384,-138,1994,-824,371
2563,-3127,4942,4993,1760,684,365
2564,-7502,-932,5299,-891,1226,687
2565,-3883,-642,-6924,-1165,925,-288
2566,-4394,-3615,4425,1288,-633,-1725
2567,-6236,-5529,-7473,-1276,23,-220
2568,7078,-539,5804,1048,-1828,661
2569,511,3594,-172,-74,-1339,1324
2570,-7466,-1510,1455,-1992,-105,547
2571,-4174,-3850,5557,805,-1402,-565
2572,665,3641,-5578,115,-365,1371
2573,3556,-5308,-7567,30,-1792,1830
2574,5609,-1197,-6348,-1092,758,1660
2575,-3724,4454,6016,440,-1426,-1770
2576,-1817,-7658,6340,-691,1612,1409
2577,2863,2606,-4534,207,1476,-1193
2578,-1510,3197,-2123,-1251,-931,1496
2579,-1262,-1790,-3264,1244,1037,246
2580,2186,-7313,-6889,1747,-1121,631
2581,7289,-1918,-2430,523,925,-685
2582,928,1545,1962,-1690,-1426,-762
2583,-4082,-3195,-5583,-271,1830,-444
2584,-4170,-6373,1527,-867,-1270,-308
2585,7118,5669,-4407,1493,262,-411
2586,7148,-6185,3659,-973,-1203,-1428
2587,-307,-1173,5882,-1261,1628,1420
2588,-4591,-3713,900,-1550,-288,-509
2589,-6068,-7953,2527,1567,-1677,1130
2590,-5933,-927,5202,537,-1552,-938
2591,-3273,303,-3649,-1344,954,1615
2592,-7758,-1832,3798,1104,-1179,-1104
2593,5505,-5499,-4708,340,1573,305
2594,-1994,174,-4984,-1739,650,-1947
2595,6836,-2276,-566,1733,396,-606
2596,-6351,2973,1381,-1389,-1445,1132
2597,842,2153,7213,-1733,-991,878
2598,2288,1254,-1390,-640,-1089,-403
2599,1531,6699,-1496,1844,741,-458
2600,-4595,-3702,4199,70,542,-563
2601,-3629,-1731,5814,-1067,840,126
2602,5026,2877,-3876,-146,713,1960
2603,-5651,-2823,7957,-1857,1969,-516
2604,-6856,6235,-2209,67,-487,1999
2605,-1891,-4652,6293,1129,1013,237
2606,2442,1301,5103,-562,-1649,-1496
2607,-5645,753,929,1323,1329,702
2608,-7447,5043,-5793,-930,512,538
2609,4809,-676,-32,-186,-391,822
2610,7808,3189,4029,1385,1796,504
2611,-5835,-5194,-6834,1582,-832,-395
2612,-5283,-7403,6335,-1211,56,1931
2613,4993,-922,-2779,-952,925,-489
2614,4127,2185,-1407,1055,-1755,231
2615,4207,2784,291,1149,1435,132
2616,-326,-1895,3925,1701,-295,757
2617,-174,-2670,-1057,-978,-67,-1786
2618,-7962,1322,2782,592,-1662,245
2619,311,991,478,-1743,-869,-1411
2620,-4213,386,-7393,-895,-565,1669
2621,-5765,-3819,-3273,-1549,1117,-183
2622,5853,6882,-533,-669,1695,1460
2623,3261,947,6006,1592,1849,663
2624,4406,-4105,-3890,-148,1164,313
2625,-7603,-542,-4228,-892,1092,869
2626,933,-7807,333,94,1941,-777
2627,7936,6681,-5947,-822,1372,-431
2628,545,1423,-3739,-102,1874,1800
2629,4353,-3854,-7752,-479,385,628
2630,-7311,2540,7708,-434,144,1316
2631,3345,4506,-1590,88,-225,687
2632,-5902,-1388,6725,-1134,-1614,284
2633,6869,4576,4283,823,-1839,-214
2634,1214,-2338,6216,212,1013,1022
2635,-4763,-477,4351,-430,1925,-581
2636,930,5300,7890,-1820,1192,593
2637,833,-2113,-5367,-369,1243,-1434
2638,-4131,4162,-1493,1322,655,-1439
2639,6884,-5526,7028,507,56,-1264
2640,-7489,5299,6454,-1363,1511,-1951
2641,-5739,3668,869,736,-1275,165
2642,-5597,1845,915,-54,1767,1210
2643,7617,-1781,5670,-204,-1127,-1794
2644,6404,-5029,300,1440,-1508,-353
2645,-7783,-1337,-7690,1237,-1380,1736
2646,-684,5985,6111,1389,500,-1710
2647,-5228,6021,3407,60,956,-48
2648,4187,3170,-6241,42,-852,-1342
2649,4332,-7606,2546,-1277,726,-569
2650,257,-4893,5087,962,603,1897
2651,-5434,1294,-4496,198,-113,534
2652,-3781,-5455,1157,83,602,-215
2653,-136,3649,7926,1421,-1595,-471
2654,7748,6385,6450,1894,489,-400
2655,3668,6590,-4106,-1373,390,-1769
2656,-6873,1237,4213,1753,-1388,303
2657,-7758,531,7908,-342,1943,-1199
2658,-1748,-6170,-3983,185,-1840,898
2659,-73,2563,-1804,-1527,1024,576
2660,5381,-564,-2160,1413,-645,-1509
2661,-1125,-5912,-1877,526,-504,-1401
2662,4505,142,3134,-227,-1739,-949
2663,5017,7154,4490,1841,-142,-625
2664,5152,2429,-4556,-381,1143,765
2665,-5919,-1217,-2685,1069,-12,393
2666,-1521,-2512,-1426,-1278,-1542,-1523
2667,2222,-4691,-2446,1453,1187,42
2668,2170,3782,942,57,-553,1912
2669,-7001,-612,6023,-883,19,267
2670,-7355,4350,-2648,237,-1001,250
2671,5248,3324,-4404,1722,1182,-676
2672,-7623,5665,6854,-892,1076,1787
2673,-4068,7833,3451,-1019,518,153
2674,-2070,1023,2242,495,-645,-496
2675,-6726,4643,-5718,-371,-669,555
2676,2934,-6966,6272,892,-1516,1030
2677,-430,-7730,5410,370,-1943,-937
2678,-5547,1683,6835,114,1704,-631
2679,2622,7319,-5449,1544,1146,1378
2680,2054,-4403,4105,-1203,103,1527
2681,1123,266,5853,529,-216,1173
2682,7666,-7488,7791,1353,-1462,1135
2683,-7302,5363,-7556,1240,-1059,-285
2684,-4681,-6496,-586,310,204,477
2685,-7601,5753,-1809,986,-1603,309
2686,4627,-6892,2612,-1617,213,-233
2687,4720,2284,-6134,902,1347,-1705
2688,3773,-6010,1624,340,1390,1303
2689,-7239,3529,7321,9,-865,-1746
2690,-1320,6327,2484,-1248,1829,1368
2691,4960,779,7404,-1030,-1409,271
2692,6675,554,-3992,-289,-1139,-977
2693,5828,7426,-2460,5,-726,-942
2694,1435,1556,-2333,407,399,-1847
2695,5714,-6496,-411,296,-1780,1525
2696,-1364,-7518,3851,-304,1348,-1258
2697,3506,-177,1013,1299,-1602,-1142
2698,5318,-6402,-4426,-780,-1436,174
2699,418,7567,-5039,1884,-754,1633
2700,3041,-160,-6930,-336,-1332,1781
2701,-5350,231,-7172,-15,407,245
2702,5097,1206,-2981,-152,643,675
2703,-5521,-6954,7132,-1819,-985,-422
2704,4306,-324,-2869,210,-636,-1449
2705,-1063,-1482,-5926,-1229,-569,-202
2706,1505,-2752,-462,936,-1549,-1865
2707,-2078,2985,2778,-425,-1824,-630
2708,-1038,5096,7374,-369,-1892,-1743
2709,7854,-5881,-6263,1171,-1866,942
2710,7265,-2527,-5401,-915,-1289,-119
2711,3335,4064,-6469,-381,1870,-1128
2712,-7138,4087,-2919,660,356,1256
2713,-7959,-6439,7247,1925,1834,1864
2714,7170,7457,3836,711,74,646
2715,1915,-4338,-565,-1738,-1686,-1834
2716,-6662,-809,1683,-639,-1736,-1165
2717,-7703,-4669,-7783,-1164,-1458,-1493
2718,-82,1446,196,-369,969,1947
2719,1264,-1916,818,-1127,-1899,1951
2720,-6895,4868,-1228,-52,1919,-1007
2721,2624,6837,-662,-1373,1562,-1971
2722,5807,-1454,7796,-1163,-1234,-613
2723,-4291,6983,-1610,-1106,1705,1162
2724,4213,-7905,55,108,23,-1672
2725,4627,-789,5834,-1401,-211,-1530
2726,6764,5221,-920,1711,689,981
2727,1857,3205,5346,-258,-1117,516
2728,4950,834,-7779,-1353,1454,-141
2729,249,-7988,3279,-1121,6,607
2730,1004,7846,-5006,-759,428,1970
2731,5999,6457,-2897,-1491,-1716,1747
2732,6131,1055,3614,476,647,175
2733,4421,7702,-613,-1821,-393,-19
2734,1292,6641,6856,1904,-180,1932
2735,-5871,-5642,-4249,-1733,-549,-1285
2736,5237,-2189,-3788,1309,1676,-416
2737,-4470,-455,477,-534,-1323,-1033
2738,2749,3334,5573,233,79,-1040
2739,6870,3031,2989,-573,-1303,1472
2740,5539,125,5302,-887,1028,696
2741,3382,4320,-5188,-725,283,-803
2742,-7468,453,-6112,-457,-852,-273
2743,4703,-6847,1571,-778,1457,1717
2744,965,4464,7623,-673,-1122,-1332
2745,1720,-7686,-6728,1177,141,-1280
2746,-5574,-6985,-1680,-881,1678,-611
2747,-2316,-2082,6812,304,-649,-171
2748,745,1837,-6889,548,39,-15
2749,-1748,-336,4990,409,-795,-1409
2750,990,-1693,1082,-27,-1073,1152
2751,-6117,4143,-5342,1812,-142,-661
2752,2605,5876,6070,130,1695,1191
2753,7763,1863,2591,1811,590,1134
2754,-2663,-635,5737,1724,724,56
2755,2887,3897,7788,-1545,-1175,-1997
2756,1572,4071,5964,-891,-1572,-1621
2757,-1978,2351,-4347,-630,-374,-311
2758,3545,491,-1306,-899,1270,1324
2759,3480,6549,1885,35,-1677,556
2760,272,-3800,-1275,1331,1047,-826
2761,810,2145,-7432,1934,398,933
2762,6159,-288,-7496,1685,1683,-1413
2763,-3899,-2509,-2630,1469,-1221,1402
2764,-194,-7103,186,1917,1410,1173
2765,-4106,-7598,-1849,1783,1715,-1646
2766,-2497,1054,-6194,919,1472,-1297
2767,-5430,-5305,-4438,1147,-136,-151
2768,6199,-3800,-4114,247,1379,928
2769,-5125,973,3526,2,-910,138
2770,5006,-4016,-4311,520,-750,1041
2771,7210,5449,-997,-176,1053,-1319
2772,312,7218,3875,1496,-742,-549
2773,-1490,-2098,1411,1962,-1275,-1995
2774,2004,-7953,-1233,1550,1185,-1891
2775,-616,-1664,-1968,1859,991,513
2776,-7291,2944,476,770,992,1738
2777,-2212,4172,-3790,-321,146,249
2778,6554,-5823,984,328,-486,-98
2779,-4576,4802,-237,-747,1513,1340
2780,-520,4394,-5775,-1421,-470,1499
2781,-7105,-6085,7366,990,1716,1268
2782,4371,7701,-3877,1701,445,477
2783,-3898,-6464,-3511,1220,-1528,1098
2784,6889,-7066,-6898,839,784,1013
2785,4138,1608,5426,1214,1773,-1907
2786,-7105,-6732,6170,559,1895,1090
2787,-4318,-1672,-4805,982,1811,202
2788,-2778,1141,2328,-484,977,731
2789,-850,4808,-1087,-1686,857,1628
2790,-1843,3391,-2159,-813,-1254,-604
2791,6396,4636,6814,-1663,1273,-165
2792,6603,-7169,-5371,1928,165,-53
2793,-7334,3734,830,-126,1516,-1876
2794,5187,2991,-52,832,-544,978
2795,-3476,-2636,6184,-1496,-1456,-298
2796,5472,-3047,-4507,646,1295,1437
2797,880,392,-49,-708,1955,825
2798,622,-4756,-6389,-1249,-1465,-1579
2799,-1168,7175,2207,1511,-190,-1632
2800,-1224,20,3013,-1597,1840,1533
2801,-252,-2773,7875,1946,616,1879
2802,5035,-4037,6402,1755,723,1224
2803,2365,5434,7635,1423,-1099,-1419
2804,1450,7712,4222,1342,-996,-888
2805,-4182,-3339,7182,1105,685,531
2806,7918,-2208,359,1560,564,1604
2807,-331,-6210,-7328,882,1385,-216
2808,-306,-5016,4959,-1752,-1407,793
2809,7989,-2297,-6879,-1356,-1211,318
2810,1203,-4405,5632,806,-1542,450
2811,1690,3800,-3148,-1758,-166,-409
2812,2117,1700,-6059,1033,-82,-1007
2813,5643,-5966,-3658,-889,-1639,445
2814,3161,6713,6652,1689,-530,-88
2815,-2181,5215,-3028,1283,1935,-913
2816,5766,-3824,-3011,1856,-462,936
2817,4177,1498,3536,-819,-872,1334
2818,7108,-2482,5338,-1190,1538,417
2819,1609,-2638,4739,-1800,-401,1178
2820,3659,6051,-4436,809,-1566,1687
2821,6916,3364,-2442,1275,42,933
2822,-2730,-6133,4208,-1778,935,-455
2823,-1402,-4304,-5959,635,419,-1393
2824,5048,900,3727,-459,-248,1770
2825,3956,209,-7724,-1093,-1184,-1769
2826,-3652,922,-2567,1345,321,940
2827,1872,-6304,-7824,1557,-841,-1028
2828,-7105,-5618,2931,-1140,1284,1327
2829,-2677,6988,-7139,-694,-806,-590
2830,28,-4188,-6587,-1888,1781,-206
2831,-3272,5305,-7702,-1428,-1972,-951
2832,3043,2544,7165,-15,-1477,1351
2833,-5062,4926,-5739,-900,-1327,1780
2834,-1312,706,410,99,-1159,-1802
2835,-2246,1345,7882,755,-35,-256
2836,-6401,586,5579,-63,-84,-1125
2837,1501,2297,-1928,988,1760,73
2838,-3477,-1425,-6438,1622,-1939,1650
2839,7127,6302,4487,885,-1478,-1104
2840,1327,-3998,-7543,1151,1590,-86
2841,-3641,7367,-4053,674,1174,-1737
2842,-7133,-4770,-968,-707,-207,286
2843,-2828,-6842,1704,-878,331,177
2844,-4572,6748,-4929,1358,622,233
2845,-6826,-1238,-5254,-361,-340,787
2846,-4149,470,-6466,-835,-860,-1948
2847,311,-3413,-4998,1248,717,378
2848,-4427,-491,-3496,-184,296,-734
2849,-5097,-7206,-7856,-1599,1671,983
2850,2284,6509,7696,900,771,-631
2851,327,-668,460,1494,-525,860
2852,-1901,658,7177,152,-1983,1037
2853,-2980,-2873,4074,-118,-1951,1286
2854,5676,-5446,-1190,1660,848,-935
2855,-4125,2166,3659,326,1409,-1907
2856,-5678,4606,3537,-42,1708,-1911
2857,-5182,-4852,7980,90,1279,-1922
2858,-5764,3156,5568,1818,1212,-695
2859,6295,-195,5331,-1788,1348,1477
2860,2976,7085,6519,-1416,-1538,-1836
2861,4191,-1091,786,983,1253,-1212
2862,1311,-7146,-37,-1805,-895,437
2863,2382,7517,-3144,1990,-1378,-1195
2864,-417,368,3907,1236,1571,-528
2865,4641,-3222,5504,968,-1628,943
2866,-3060,1704,-4053,-249,-122,-1341
2867,321,-357,7555,-209,-318,-58
2868,-5807,-2327,-2071,-1317,667,-1434
2869,1279,-3216,-1964,-152,-554,1850
2870,2281,-2157,-6374,-1278,-720,1754
2871,322,-81,5947,1075,43,1069
2872,-3520,-3884,7856,-128,1178,-1453
2873,-5313,-3614,3799,681,-1944,790
2874,4536,2845,-2782,105,-286,1211
2875,5360,1227,5406,627,-247,-1559
2876,-5627,-3465,-2430,424,-1186,1379
2877,6836,-3885,-1233,1992,1880,-655
2878,-1547,-2962,5770,-1780,-1135,163
2879,-5254,-935,-1747,1638,-1113,827
2880,-3783,-7446,-5042,-689,892,-238
2881,-7303,-274,-1414,-1895,1138,-1146
2882,6242,-377,-3253,747,550,1567
2883,4718,-7461,4142,-84,-1566,-953
2884,5420,-1550,1706,1905,-911,-1887
2885,7786,1246,-315,-60,1965,-75
2886,1955,-6419,-2538,999,-274,-1056
2887,640,-5831,-6769,-718,1698,-1008
2888,-7952,4048,-6562,512,-115,1438
2889,6003,6909,7022,344,1934,-1297
2890,1560,-4612,3154,-1955,299,1753
2891,-7307,2678,-4607,-1032,472,-109
2892,-7441,1501,2780,1922,911,-50
2893,4124,496,7448,581,1028,-1112
2894,-1575,-6128,-5807,-625,1502,10
2895,-1020,-2078,-2505,1243,-346,384
2896,3485,4580,6894,-344,-29,-1495
2897,-2921,1027,-5132,-15,-1349,-886
2898,-7698,7139,5523,-1226,943,-1147
2899,-4163,4076,-4590,-1461,-907,1110
2900,450,-7046,-1290,-276,-1915,-1441
2901,4468,-4854,-154,1628,-365,-1648
2902,1746,226,4529,109,228,717
2903,-1948,6359,4847,1632,1038,-1797
2904,3231,-734,-6274,-1438,-1682,-1182
2905,2947,6759,4410,-117,1270,1401
2906,1756,-5628,-1964,1636,-963,452
2907,3692,6314,-7102,-625,-1739,-768
2908,-3854,5212,5326,1019,-886,-1232
2909,7938,-5602,7563,-205,1807,-621
2910,7488,-482,7186,1126,-1610,1259
2911,-7879,165,-5148,1856,528,-418
2912,-3130,2299,-5028,-208,-508,1473
2913,-1952,-1158,-4730,460,1374,1488
2914,-6211,-3235,-2247,1524,1867,794
2915,-3640,-4009,-4850,458,-1534,-901
2916,-5602,1795,-6601,1048,1166,-1416
2917,-4676,-2823,4411,-915,858,-1273
2918,-1382,6229,2639,1087,-1557,1871
2919,3632,-215,-7070,404,237,-1247
2920,-2079,-2299,-124,303,-1780,279
2921,4600,-101,3751,-1815,1165,-158
2922,-1977,-4570,3688,1658,1805,-285
2923,4334,3098,7103,-1786,496,-1771
2924,4440,3799,3168,-542,977,1082
2925,-4990,4455,-5302,-611,-1487,-1636
2926,5399,-452,-7202,415,694,221
2927,4590,-5639,5841,-163,679,1947
2928,-3815,2590,-4395,-1587,-1546,-587
2929,4278,-2413,-4736,1456,-1475,-1285
2930,7711,-7518,3605,1459,-224,1625
2931,-6431,329,3940,1747,-1560,1528
2932,-3200,3020,-924,595,1612,-1577
2933,5826,4945,-1560,-242,-1259,1884
2934,-7008,7462,5548,-320,209,-1570
2935,-7121,3058,-3737,-787,128,-658
2936,-2948,5004,3932,194,1481,149
2937,1096,1523,6669,-57,-166,854
2938,2272,4059,-1721,1481,1637,-1728
2939,1360,-6627,-6049,-609,-427,-744
2940,-6047,-7788,-2643,493,-1779,1389
2941,-5521,7519,2904,-4,1862,1001
2942,-7,4117,-2661,-1659,262,1312
2943,1777,1771,6516,-18,1360,94
2944,6815,3517,2837,1332,1916,1403
2945,-5826,5320,100,-1555,-178,654
2946,1841,-7409,-1829,-1991,1856,-1682
2947,-85,-7779,-7007,1894,-594,1279
2948,5049,5437,-7839,1990,-566,-270
2949,-6104,718,6628,-524,-1882,1723
2950,-3270,-4252,1834,128,137,1029
2951,2860,-6613,5401,-516,649,828
2952,64,2876,2717,625,326,-79
2953,170,7298,5650,1606,-4,-562
2954,1522,7378,518,-788,1394,-1053
2955,-4170,5090,5807,1347,463,634
2956,-4386,3038,-4615,-505,-725,-695
2957,-1447,2909,4333,-1527,1477,-107
2958,5025,-5242,-968,1277,-1136,1575
2959,-1224,-575,-802,-674,1099,1353
2960,7595,-7921,2295,-106,506,-1033
2961,3278,6022,-6196,778,1743,995
2962,2344,-2504,-6696,-1770,716,294
2963,6477,6370,-2857,1375,51,1213
2964,-4031,-4647,902,-99,-489,1413
2965,-2089,-4145,-2416,-1992,1982,-675
2966,2517,-6486,1504,891,-952,1111
2967,-6116,-6202,6433,1563,1114,1204
2968,5597,1766,6167,-1762,-1055,-850
2969,-853,-3011,-6752,-108,-1517,1701
2970,-7275,-418,-6335,1209,1652,-516
2971,-1689,-4409,551,1749,227,1407
2972,-3376,4857,6483,1418,165,96
2973,6475,3122,1925,-1453,1295,-1101
2974,-3083,-3904,-4820,-72,-1182,-1647
2975,1530,4946,-2466,470,1097,1333
2976,-4164,5714,5312,-1003,-1131,-1569
2977,1082,-7929,5740,1949,558,-847
2978,-7844,6343,-1475,84,206,-546
2979,1864,-728,6573,-1099,-66,-294
2980,-1617,-663,6912,-300,-1096,1905
2981,-3598,6898,1015,1730,487,-1737
2982,-4132,-1798,4696,319,-1334,-1329
2983,4114,5983,7733,1048,-385,-1021
2984,6670,-272,-4526,-829,1612,333
2985,4558,1049,-4810,-669,866,-1918
2986,-4929,-226,-460,-1740,142,-1152
2987,4108,1976,2224,-25,-603,1620
2988,6167,-586,6821,170,-1281,-1373
2989,-7493,-162,4410,-700,-609,451
2990,-4470,1042,7371,-458,-1767,735
2991,-7160,-7625,7301,1521,549,-1481
2992,-4175,3013,815,551,-222,-1910
2993,6265,-153,751,1631,-1526,-48
2994,-1246,1005,1188,-77,-381,-1525
2995,3609,4528,6774,-1972,493,-819
2996,7189,-1369,-3311,828,-89,-166
2997,-778,-7319,-3183,-581,-929,1331
2998,-2974,4733,-3018,-105,588,-997
2999,-520,-2938,6601,-990,-499,474
3000,7211,1846,4738,1472,-212,-1724
3001,-157,-2744,-7358,1916,-369,1716
3002,363,3907,-1297,-685,-1156,277
3003,1967,3984,-3940,949,-1173,428
3004,-316,7567,-7078,1140,1588,1368
3005,-2735,5743,287,-1352,-61,-423
3006,-7892,-2214,333,1540,-1916,1650
3007,-3136,739,-728,511,-129,1526
3008,6873,3788,2273,-522,1525,-1975
3009,2795,-3303,6039,-188,195,-891
3010,4259,-5376,6938,-1965,733,-65
3011,6607,3209,-2081,-911,161,1247
3012,1441,892,114,-1806,1887,-447
3013,-6847,1234,-7173,1457,888,-839
3014,-7980,6878,-7085,1365,-402,-249
3015,-2718,241,7158,38,961,111
3016,-5756,-2661,2840,-1851,1186,1449
3017,-2929,-5886,-326,-1697,1185,27
3018,-6894,4121,2457,1884,-1216,1137
3019,1463,7936,-3349,856,-565,-601
3020,1839,-3771,-5876,-667,-1622,1406
3021,2601,5770,-4930,1096,-140,-1693
3022,-4240,-3947,6321,1422,-1573,-124
3023,6922,-1263,-2639,-343,1496,-1436
3024,238,3626,-675,1612,494,1515
3025,-2743,6120,-2020,-895,-1142,-1168
3026,2185,-4494,6823,-1999,1554,-167
3027,-5133,7859,-832,626,1649,-1498
3028,-5901,5082,-3655,-1976,-1567,1327
3029,-1577,-1137,1102,-515,-1998,-836
3030,5850,1273,6240,1187,852,-510
3031,-2638,1434,-6848,1381,849,325
3032,-2025,1808,4599,-1594,366,1707
3033,-5783,146,5907,804,782,176
3034,4813,-1803,579,-459,-825,-1593
3035,5587,4400,-3338,293,762,-849
3036,-4130,-1451,-1680,921,-194,-1653
3037,-2693,-7859,-118,1872,-1652,173
3038,1458,827,7434,-1320,-1544,-1447
3039,-4529,-2226,6482,1114,867,-540
3040,-439,-1945,-4978,-258,1770,-338
3041,-1603,-5999,7147,1979,1467,-1502
3042,-1365,-7805,-3528,-1095,-364,-1165
3043,-3180,93,490,-51,-1489,-264
3044,3952,-3205,2432,336,29,-1024
3045,5129,-4043,2076,1623,564,-719
3046,-2619,-7097,3190,-1340,-1168,-669
3047,-1203,-5685,-4135,-1724,-453,481
3048,1702,-2355,2432,-1913,-637,-121
3049,-3719,-145,-7997,892,457,1230
3050,-3871,-7469,4543,664,1368,-144
3051,-6735,2629,-4338,-1243,-1735,1055
3052,1979,4902,-1450,1183,466,-944
3053,2629,-1713,-1931,999,915,-178
3054,4944,7197,1404,386,-1411,-934
3055,-2332,3676,-5176,914,-1252,-1299
3056,-6587,925,-5833,1034,-770,-953
3057,302,-148,-5645,608,1409,1469
3058,3373,-2377,1447,-242,745,-482
3059,2504,-5555,-2403,119,699,1209
3060,-6447,-3075,-2213,-374,-769,471
3061,3634,-5803,5055,1343,710,302
3062,-5104,-6426,-157,1913,208,385
3063,-7170,5856,-406,1518,1499,768
3064,6197,-3048,-4867,1098,1492,-1289
3065,7638,-7210,-71,-1056,685,1983
3066,4401,5503,-1233,-42,909,-422
3067,-5567,5143,4295,-1786,-110,0
3068,5412,5861,-5388,1155,1709,-208
3069,-1732,1805,1048,469,-1091,-17
3070,-4417,6219,-4518,323,919,1500
3071,1495,7520,-401,-341,1903,1226
3072,1203,-7438,2050,-1713,1037,-1088
3073,3168,-4257,-6705,-147,-601,1478
3074,6534,-6982,-6311,640,1819,-268
3075,-2375,1591,5865,-136,408,-107
3076,6159,-5530,6070,1964,883,255
3077,-1888,3211,-5337,1761,250,1587
3078,1408,1457,5387,355,-1139,457
3079,-4031,-1378,2129,-1599,1658,1824
3080,1602,-3663,5060,420,985,1378
3081,-7046,-667,-2445,596,-1504,1538
3082,-6117,244,-1599,-1598,542,-173
3083,4759,5186,-3212,-1412,-186,-1335
3084,-3760,3773,-5295,-1559,-123,-1089
3085,-2762,2558,-3561,-1179,771,-783
3086,-689,-4413,105,1328,998,809
3087,-7914,-3879,7477,1015,-538,787
3088,-5666,-4470,-6944,-407,722,1220
3089,5887,2453,-445,-1819,1651,27
3090,-7021,-2625,3474,1618,-1056,1073
3091,5742,-770,168,1411,1170,-1851
3092,616,-4027,-2944,-1206,733,-1480
3093,2553,3943,3380,-190,-1100,-152
3094,3347,-7449,-1630,-1741,-945,-1967
3095,5332,-3013,-1921,-1120,-1659,1003
3096,-7482,7388,3869,1572,-44,-1148
3097,30,6926,646,-696,610,1737
3098,-113,-257,-5572,-782,1136,-1679
3099,-7104,-5334,4211,-1908,562,263
3100,4187,950,-2555,373,-478,792
3101,7585,7112,-1654,1654,1907,944
3102,-1372,6349,-4262,-955,229,678
3103,-5473,-2139,-5572,1458,-1765,-1603
3104,-6775,5342,-1165,-267,1340,1499
3105,7677,-5496,-6443,790,1970,505
3106,-4450,-4736,5935,339,1129,1543
3107,-7580,-2227,-1335,1472,-404,823
3108,4523,-4055,3937,1437,-1061,-1871
3109,-6518,7962,888,-1465,-1800,1242
3110,-4590,-3364,3666,1854,1904,-1370
3111,1484,-602,-4774,897,-897,-226
3112,-2634,-3217,-3774,860,836,1471
3113,-7585,47,2002,-402,-1691,480
3114,-1777,4487,-7780,-1082,883,-440
3115,-2668,-2863,-1858,1187,1729,-1386
3116,-4457,6018,-4411,1799,-397,1992
3117,-798,-97,2857,570,-1266,842
3118,-2518,-2342,456,1531,793,312
3119,-6146,-6693,5232,-1982,1451,-1586
3120,302,-4298,-2556,1489,-1837,-389
3121,-5433,2272,2201,456,1385,1054
3122,4864,-6366,-3133,1291,-832,21
3123,-6833,-1451,7017,101,-1797,509
3124,941,-422,7361,736,200,-1136
3125,-4110,-818,-5670,1103,314,-1203
3126,-4760,-2999,2016,1930,441,-1409
3127,-724,6868,5243,874,-988,-1079
3128,-4842,5086,1465,-1922,-1190,464
3129,2051,1260,7590,1018,-1745,1562
3130,-1261,-1901,2673,-1406,1929,-69
3131,5499,-2065,7844,-647,1746,-1236
3132,3953,-5498,-3550,-1101,1263,1971
3133,-3642,-5375,7799,1020,-928,-1785
3134,-6708,-7356,7002,-712,416,1893
3135,2632,-7531,-318,-77,671,-720
3136,-3243,-2914,-1515,1663,-588,1070
3137,6475,4643,6766,1448,-1293,-815
3138,2216,3530,-7174,-1727,-981,-232
3139,3010,-5296,-5011,-817,796,-44
3140,-5583,1676,257,343,222,1408
3141,-6218,-5948,4603,-1982,527,-766
3142,-3656,-6448,604,791,-963,-117
3143,7503,7949,-2407,1670,1441,-1708
3144,1014,-34,5243,962,1926,35
3145,5880,-2531,-2077,1878,-1689,-739
3146,-810,-2681,5134,-332,-239,-766
3147,-5926,4002,-2085,1078,-474,281
3148,5131,1622,3299,-187,-416,1684
3149,-6969,-4575,-774,1720,1736,-319
3150,3789,5335,3676,925,-1925,1222
3151,-4842,-6150,-1599,214,-603,905
3152,-697,-6878,-1907,-1416,-1594,-568
3153,-7545,858,-3161,-1236,-278,1025
3154,4558,5448,-6014,1582,1274,1945
3155,-5092,-4019,-971,-604,-996,990
3156,2450,4543,-4071,1568,-1918,1324
3157,-4950,-5362,-3456,1510,-476,-347
3158,5638,395,4230,776,-1837,-16
3159,3353,-5570,5035,1045,612,-305
3160,7055,5134,-6893,1711,1302,1165
3161,4626,-5518,-5522,1175,-1747,720
3162,-2812,-308,864,-1698,-719,992
3163,849,4593,3378,1167,-1350,-980
3164,-5942,-800,-1031,719,-257,1280
3165,3572,6102,7551,1911,109,-1620
3166,6816,7639,-503,320,1725,-1408
3167,-7602,1931,3625,-1180,5,-1032
3168,4452,-6054,-1379,-1300,1389,298
3169,-2511,7860,3938,89,-296,1667
3170,1319,-3186,-1450,-1385,-1185,1677
3171,-4650,-4515,4646,-1640,-1153,1439
3172,-6434,1642,-5427,48,-796,1626
3173,2233,-4707,1062,-1123,123,-1389
3174,1868,2991,7138,-1670,1227,-517
3175,-6166,-6012,-7230,213,-392,-1763
3176,5253,404,5341,-877,-526,-395
3177,6206,7936,5085,748,-1603,1643
3178,-2252,4779,3117,1309,-1248,690
3179,5061,2328,6284,-516,1186,509
3180,2710,-1219,-7062,-805,-1963,-1895
3181,6551,4182,-3531,360,-1324,859
3182,2435,5462,-4410,-1748,1124,-485
3183,1323,-753,5124,572,-1601,-163
3184,-616,5162,-4040,933,-1781,-148
3185,7530,-7370,-5780,1776,540,1531
3186,-6299,-4557,5450,1913,1652,1841
3187,2818,-6615,352,1560,-1946,-278
3188,-5669,7279,3680,-688,791,-1142
3189,-42,3591,-7489,-1824,1750,161
3190,-4634,1879,-7771,-1862,-1845,314
3191,-1859,622,1566,-728,1770,23
3192,-1474,1393,3621,-923,-1665,-478
3193,-4705,-5228,-3277,1621,594,-1556
3194,2204,-351,-6161,-186,810,-1477
3195,4832,4714,5416,-981,-750,1074
3196,4748,-4508,2030,884,757,243
3197,6932,3753,719,-1042,-365,-1676
3198,-5036,-5156,6609,681,-1885,122
3199,3241,1774,-5249,55,83,1481
3200,-4883,3213,-7101,-1832,50,294
3201,-3240,-7844,-2146,1598,409,-711
3202,7901,3645,-3156,32,-297,-198
3203,6262,-672,2113,1322,-1168,-44
3204,1381,7255,2763,-669,-175,-70
3205,-7667,4290,7881,-1799,336,-1151
3206,6205,3672,84,-1312,-279,-1167
3207,5569,-4449,-3093,992,-1771,757
3208,472,-2002,7675,454,-1053,1230
3209,-899,-5757,7730,-616,1549,-523
3210,-3879,1946,1407,1662,-404,1629
3211,-2369,-6529,506,1326,-1969,-1498
3212,-7662,-512,4058,-116,-967,-1677
3213,323,36,5455,1730,1491,753
3214,4716,3585,-7974,658,924,245
3215,5153,-6687,-1360,1653,1521,3
3216,-3060,-1892,4203,-1094,-664,418
3217,-7852,7205,5788,-756,-1548,-701
3218,-317,2575,-808,-1584,-1202,270
3219,-2705,295,2539,154,-1184,1571
3220,-4052,7418,-635,50,29,277
3221,1187,4745,-2789,685,466,367
3222,-803,3438,-7883,566,-1361,-982
3223,7033,-4880,7686,-100,-756,172
3224,-2441,1518,-4820,1913,606,1629
3225,-6544,-3619,-5986,-1093,-1411,-1325
3226,4578,-5784,-1257,-1953,-1309,-1766
3227,-1474,-7984,6580,1583,-1134,-1664
3228,-1467,2060,7713,-437,-683,-1587
3229,3528,7021,-6272,1188,1820,-850
3230,1902,1236,4713,1545,9,-168
3231,7110,7452,-1606,-1232,-1154,-353
3232,-7347,-5283,-7830,-4,1079,762
3233,-807,6822,-1005,1040,-731,-886
3234,7217,-1942,-948,1252,-394,1533
3235,6036,-3361,-1385,132,708,1453
3236,-1690,2031,-1420,-404,-1513,-349
3237,-6157,6722,-5069,-380,-1139,-1995
3238,2305,-2661,6878,1788,1564,1840
3239,-7314,-2554,-4883,493,-1490,-630
3240,4148,-3135,2377,-1643,-104,1742
3241,7430,1133,469,-1492,-1491,-1285
3242,-3698,6804,-101,761,622,157
3243,-2686,-1769,-2792,-253,1381,1028
3244,5418,-815,-7004,-1996,1049,-1684
3245,1852,-7348,-1415,1686,1318,-1999
3246,-1660,6179,4936,-971,1456,-1254
3247,2958,-800,-6452,-635,-1016,694
3248,-6702,-6740,2702,1182,474,1883
3249,-2289,-7199,1691,-489,-599,-1310
3250,-4045,-4473,4341,-931,-144,-1179
3251,-359,-6077,-5424,-1049,-1169,-1369
3252,7691,-6838,-5610,1330,-979,-1104
3253,1847,-1744,-5208,-402,130,1320
3254,-1019,-1791,6831,631,1679,-395
3255,-7574,-279,3731,-317,991,739
3256,7154,2350,-1777,-1446,14,-565
3257,6698,-4694,1313,-856,-965,1049
3258,-2544,-5561,-5100,-1169,-372,1098
3259,-4236,7177,-6181,1405,567,-893
3260,-6920,-526,4292,-1977,-587,-260
3261,973,-4512,6361,927,1683,-1448
3262,-6722,3050,2272,-1495,-730,-1298
3263,2946,4180,-3984,926,-635,234
3264,7891,-5306,6844,-1566,-1657,-804
3265,5014,-228,2802,-942,-243,-1552
3266,1914,-469,4615,-550,1139,-281
3267,-7941,5193,-4705,-1082,1807,-907
3268,6130,6295,395,-289,-1475,-724
3269,-4890,-6776,-1454,-374,1864,-567
3270,468,-1046,-5935,-1448,46,-1149
3271,-614,-7430,-4683,-1510,-1248,-1419
3272,-3984,-301,5807,1339,-581,-202
3273,1932,3562,7588,-191,136,968
3274,-7731,3404,-6543,-1466,1472,-985
3275,-3568,7992,5159,-738,-1669,-1053
3276,6908,-5663,-5631,1586,1512,-80
3277,5407,-3620,4068,1727,-54,1017
3278,6103,1360,-7110,138,1454,-1443
3279,-932,4113,3229,381,1752,86
3280,-1297,-6078,1295,1703,-574,-1527
3281,-1214,-5675,5836,1156,-1409,1662
3282,977,2426,146,-1390,-1185,1245
3283,-5299,6225,-2467,-1259,-1530,193
3284,-7314,4268,-1992,1586,-634,-931
3285,1587,6622,1828,-1468,-1184,-1541
3286,2570,1801,-2814,-1470,1494,701
3287,7707,5633,7330,1985,229,-867
3288,-3130,-707,-545,-1164,-727,-1220
3289,219,-2255,2650,-1375,408,-1791
3290,2498,2323,5187,-1354,-1485,-727
3291,7895,-4502,3346,-78,1243,1265
3292,512,1486,-5223,981,1362,171
3293,5560,3864,-3384,-1410,-436,457
3294,-6984,-2828,931,-1533,1953,1876
3295,-1604,-2904,6096,1277,708,-1247
3296,-6038,5439,7472,-1672,-765,-1719
3297,-775,-2948,-3423,-1294,596,1417
3298,-2083,2628,4599,-850,1696,-555
3299,7090,1814,-3175,1611,564,-1987
3300,5934,3870,-3349,-740,-1886,-1803
3301,5348,-4669,848,344,-1153,1679
3302,-4623,2140,1846,-56,-52,378
3303,-5928,7694,-6201,109,1968,-853
3304,-123,-2051,-702,-1229,-2000,1175
3305,-4233,1003,-3843,-628,1167,1351
3306,-1305,-2551,2868,995,-916,1339
3307,5339,5625,1331,1867,27,1046
3308,-7661,-2506,5864,651,163,-1543
3309,-7937,-3674,-4972,-1060,-1109,1457
3310,7119,-4686,7576,-149,-1096,-420
3311,7390,-3611,-2248,-880,-20,-627
3312,5756,-858,-6714,-1916,1652,903
3313,-4773,-7680,-2121,-1147,1516,611
3314,-4152,71,-2061,1719,-1538,1472
3315,-4219,-1865,-7221,-1665,-730,-263
3316,7371,7114,6379,1390,-1301,-1078
3317,-5338,-6135,-2533,-1108,-317,-854
3318,4782,2932,6298,-328,1680,1653
3319,6263,4329,2372,957,-1807,1037
3320,769,-353,-7484,218,-171,-743
3321,5787,1487,-271,-1863,1475,-542
3322,-1816,-4797,-2436,997,1158,-1415
3323,-5134,618,-5355,-32,1606,1358
3324,882,7728,-515,121,-827,1984
3325,7334,-2994,5532,1633,1920,912
3326,-206,-1644,-6991,-575,781,789
3327,-6941,-462,-6040,549,-1613,-879
3328,5743,4403,-1826,1447,-1539,-1326
3329,-542,-3496,5499,-191,1003,-1494
3330,417,931,-3484,989,1722,1277
3331,-3487,2643,4603,1095,-1419,900
3332,5310,1332,7785,-871,-1251,838
3333,-1056,6910,-4266,-1012,829,-216
3334,-555,2138,-1978,-109,-565,1937
3335,-1366,-5891,1232,-178,1179,244
3336,-1363,3509,-2996,-535,-1258,-1719
3337,-7702,-3138,-589,262,-496,1919
3338,-7247,7366,3064,263,-1241,-327
3339,-571,-5266,5233,-115,971,372
3340,6242,119,-4819,776,-1614,-503
3341,753,6854,7448,-1047,770,1453
3342,1806,-428,1105,-204,1958,-1012
3343,3259,675,1341,-1207,-845,-859
3344,-7947,-5770,-1987,1815,-733,-583
3345,-5176,-7981,3118,1338,-693,1619
3346,-7320,4551,-2165,1861,-1384,1496
3347,7880,7555,-3919,-760,-1976,-218
3348,1887,-7663,-2707,-1591,-879,1394
3349,-6870,6971,-7754,1484,782,-1427
3350,343,4449,4802,-180,499,-1907
3351,4366,5599,5725,25,89,-178
3352,-5554,740,4950,1866,343,-1250
3353,3297,-6768,-7471,397,-1152,148
3354,5135,6835,3396,-1390,-1044,1280
3355,-6656,-6262,4338,1121,-1558,-207
3356,-4394,6524,-2461,-142,-1971,-1617
3357,5322,5908,3380,1750,232,-241
3358,-3906,6189,1551,790,1527,493
3359,2845,-3225,-3344,1573,-572,1131
3360,258,-1810,-68,188,-764,-1461
3361,3674,-3966,804,-1191,1488,-233
3362,-2465,2946,4853,-1823,-1961,1685
3363,-7734,-7257,-4117,1019,1751,1032
3364,2773,4917,3677,-357,263,-573
3365,-818,3507,4863,24,-85,1259
3366,-7225,-3108,-2288,601,-347,723
3367,2749,-6965,7834,246,-1466,1612
