Sample,Ax,Ay,Az,Gx,Gy,Gz
0,-5946,-6549,-5964,-49,-1547,1729
1,-3710,3709,-1144,-1900,418,-376
2,3767,-6253,5179,1393,-191,996
3,6261,7258,-1653,-983,-635,-1021
4,-4553,1991,5249,1246,1418,1382
5,2889,-492,-5968,1473,-1872,1955
6,7229,-656,-3367,-369,-1665,49
7,-1311,884,5544,1341,1256,-72
8,1947,-734,305,378,517,1916
9,-5433,-2969,-5007,-952,-1408,-1308
10,1731,5339,-74,-971,-129,-395
11,-7710,2429,2470,794,-739,-1028
12,-509,-2178,496,990,1277,1668
13,1826,1285,4976,-410,1981,-1829
14,-600,5841,7754,947,1198,839
15,-5291,-239,7615,720,1454,-32
16,2406,902,-7988,-1886,1625,-1304
17,7756,-1436,-425,-409,1697,-711
18,1188,-3184,1453,-1540,772,1223
19,4308,-3302,-3994,1674,-1064,-1108
20,-4399,6532,-3394,1160,-1537,-18
21,-5298,-7910,1243,373,-1003,313
22,6786,5055,-122,-368,-1130,1332
23,-6210,-6538,6573,1665,1582,545
24,-4688,4051,-2513,1740,-725,-1208
25,5460,-1813,5021,-610,-1082,1298
26,-7999,-505,-350,1884,-946,318
27,-4340,-5391,-6677,58,-801,1506
28,-6239,6478,7796,1288,1483,-12
29,6653,3255,-5647,1434,-1130,649
30,-546,-4479,-498,541,549,-41
31,-2697,826,1733,1200,1562,153
32,6291,5337,-4770,-988,1092,1737
33,-2848,3755,-155,-1429,-4,-1944
34,-7723,-76,-5389,1514,-425,-1324
35,-6393,5104,-2962,324,-559,1925
36,5527,2578,4031,365,1845,1447
37,3703,5887,-5710,928,-1154,1411
38,7433,1519,-83,1441,1243,-318
39,-1434,-6612,1818,-917,-1233,-674
40,-4233,-1760,-194,-1584,-1349,-1977
41,-2497,-1342,-6321,-380,1776,-1818
42,-2502,-7229,2436,-1506,-222,158
43,-5804,5106,-946,633,-1529,-990
44,2660,-6500,6994,600,1689,1278
45,-5870,-5232,-5227,434,-386,-605
46,3610,-5554,6105,-1316,-306,-363
47,-7378,-2222,-1999,-417,505,-1625
48,-5129,3015,510,240,53,1098
49,-2216,-1313,7476,-572,-428,-1799
50,-1176,-5237,-7619,-1698,-1856,872
51,2277,4249,-6237,-20,-1243,-505
52,3778,3557,-6490,877,128,1712
53,3161,-1607,2882,-1782,275,-962
54,-1205,-6872,-2728,1676,1339,247
55,-7333,-3808,6344,646,-79,1725
56,-5444,4709,-676,61,1638,466
57,2116,-574,5013,74,1961,-357
58,6014,-7294,5651,1578,1368,1276
59,739,7382,6657,754,-1479,1639
60,1225,-449,1509,350,-1629,562
61,-438,-6374,6448,-1376,-1592,-917
62,4703,3517,-6949,-486,-460,1361
63,-1602,-2454,-7134,1291,136,-620
64,3547,-4055,-7028,-1368,-452,1704
65,2443,-2208,2847,1348,1919,247
66,-5272,-5807,-3061,-87,-965,-921
67,7017,3271,2731,342,-1588,1158
68,-10,2681,529,-1844,-1076,-1370
69,5693,-710,-5732,932,880,-743
70,-4179,7013,4122,1907,-1903,-1554
71,5348,463,1419,-1399,-969,701
72,1616,5313,7010,-1751,-33,189
73,-4378,-2960,6678,-524,-232,649
74,1467,6764,-4613,285,-439,995
75,795,-6125,4744,-485,999,-1097
76,3130,-2612,-5832,-1866,-1231,1738
77,-7488,-4532,-1622,-1347,-745,1745
78,3500,7117,611,1492,-44,-1511
79,-1920,-1081,-5892,1569,1242,-1022
80,4520,2888,5038,1023,1185,1737
81,2027,6023,4242,107,-1561,-1304
82,1019,5309,4850,305,1484,1210
83,975,-4393,3772,319,1,-582
84,-5130,-4540,2330,-1085,1974,-317
85,-5194,1811,101,-368,1007,1197
86,-2260,6893,-5360,-1113,1893,1976
87,291,993,-2435,-875,1623,193
88,2729,4457,4883,1362,-778,103
89,1406,1904,-6331,-849,-517,-1836
90,5127,1287,-7165,1127,470,-1279
91,-3780,4089,7628,-705,-870,-953
92,-7100,-2110,4571,1531,184,-1817
93,-5377,-4692,-3823,904,165,-1517
94,5968,7557,-1593,1209,120,-1723
95,-4363,426,1539,1897,-908,339
96,5715,5443,-7003,1412,93,1759
97,4272,-7192,3626,-1038,-1038,-550
98,7788,-2681,-4358,-1496,-540,-1197
99,-2047,-1680,5275,-88,-653,-1579
100,672,-6343,2055,-1590,-1391,149
101,-7927,1367,3809,395,439,223
102,-7208,-1765,-6681,1653,-787,806
103,-5711,3004,-2886,-1775,400,1346
104,5913,-5108,4153,-1773,-73,666
105,910,1257,1855,-1582,1342,-1400
106,-1505,4267,-4748,-31,1448,1620
107,3004,-6141,-6945,-1855,-938,-1398
108,-3259,583,7221,206,-67,-944
109,-1661,6729,-6031,1297,839,1076
110,4394,-5367,-3489,1593,971,-1073
111,-1927,-864,2476,1565,1386,-1770
112,-6885,2894,-1581,-1901,1491,-246
113,3518,3295,2801,576,-1546,-655
114,-5357,-764,6348,1635,-1025,-1410
115,-4621,-1004,-7963,449,-1128,1989
116,4220,5344,-2151,-1436,322,73
117,-1329,421,6927,1845,-1857,1792
118,1947,-3319,5343,273,176,-1180
119,-4775,-3195,655,-611,213,-1128
120,4493,-3287,7138,626,1146,1798
121,-5187,-7225,4952,-696,-1846,1225
122,7876,7714,6805,-475,362,-1263
123,3377,6618,-1916,-277,1309,-369
124,4960,6297,-1298,-1093,1122,1942
125,3612,-4999,552,1761,-483,-1076
126,6573,6964,-6667,40,1216,-1521
127,2800,-6543,7347,988,851,-1704
128,-2965,-4060,7985,-156,-1456,-978
129,-6714,-3816,393,1557,1702,672
130,17,-7807,4375,1691,1563,1195
131,7572,-1276,-3401,-1538,-1113,-572
132,3385,-2579,-5464,783,-1091,581
133,2017,1644,-451,-1297,761,-198
134,3169,5810,2067,-296,-1372,575
135,4029,-4550,-5467,126,390,-448
136,7511,-6220,2220,1486,-273,-1568
137,-764,-3622,7004,-1757,-144,-686
138,2543,-5936,-1433,202,540,198
139,-7073,-7694,-7070,1479,685,-145
140,-4042,-5263,-951,-970,-915,-573
141,-5721,6016,6638,-1715,-1408,840
142,-6435,7128,7463,-1363,360,785
143,-2040,-1968,-7373,-950,1703,-383
144,-3780,-5561,-2545,1274,347,1153
145,-3408,-6531,-7917,-1660,-1329,-1289
146,-1023,-6593,-6917,-1405,-1319,-1083
147,302,-6287,5119,-1063,1202,524
148,4342,2993,-829,-437,-80,-1460
149,-7852,-2412,-1026,-632,284,70
150,-7078,-1415,5542,469,-619,-1918
151,4695,-6908,1172,-957,1260,388
152,2061,-3141,-6444,60,-156,99
153,2108,-7449,-6128,243,602,-633
154,-6590,-2497,3916,-522,451,879
155,-6153,1575,-7252,787,-822,-910
156,4979,5703,7314,782,330,1718
157,-5206,2453,3306,-876,978,-1468
158,-879,-495,3660,553,347,-411
159,-1865,4097,-1677,-799,-672,671
160,480,6615,7999,-362,-1281,-537
161,1506,-4258,-103,-1248,1447,1062
162,4283,-4536,-791,-781,656,1363
163,119,1600,7719,-452,450,1776
164,-750,804,-810,-899,482,-1970
165,25,-7746,5883,-1175,1830,-229
166,601,-1717,6988,588,971,-1866
167,-3366,-3031,-6039,586,874,1258
168,6173,2244,-4301,1988,1388,-1261
169,1353,-4853,3950,-1962,689,81
170,3093,4249,3799,-1126,1772,221
171,-2680,676,365,1626,796,1324
172,7203,7269,-5046,-1590,537,-1018
173,-7371,723,458,1160,-1124,855
174,5043,911,5356,-165,-599,-1884
175,731,2894,-7148,919,-230,-812
176,-4331,-1338,2813,423,-1844,-1613
177,-4848,-7917,7881,-1369,1784,-1848
178,-1647,3169,-2372,1690,-247,-1185
179,-3207,4866,6236,5,1981,-157
180,4637,3639,-7731,533,867,-1050
181,1227,-4216,872,-670,587,-1523
182,-6026,-821,-2699,1864,1851,1498
183,2312,1462,-2212,-1791,1980,1809
184,2517,3661,-110,-598,-1765,-726
185,1871,4949,5704,1645,-1407,112
186,-3621,-6286,-5664,-177,301,1173
187,-623,-6655,6556,1241,317,-750
188,-2607,3229,634,345,-1898,312
189,4851,7594,-4008,-1349,-1817,512
190,-4480,6713,-5909,-538,334,-1689
191,-7054,6095,-4561,245,-789,548
192,-1955,-2485,-2772,-1322,-1694,247
193,7488,7066,2889,1500,1051,-681
194,6403,-3255,-7346,344,-346,528
195,7982,-1190,7093,-1311,-1169,1728
196,1593,-4489,-3370,-748,-221,269
197,-5631,-3543,-4146,-206,-1317,-970
198,-3416,-7970,3103,1914,-343,-1057
199,-5802,6741,-2884,-1302,1041,-667
200,5068,7238,-4427,-1212,1930,-125
201,605,1041,-5655,959,654,-759
202,-1429,-2562,6872,1762,-292,-462
203,369,-952,-1915,-195,-609,-868
204,-7873,-4400,1852,-1688,634,1094
205,-5095,1117,3790,1831,-525,-435
206,-4769,-2683,-4479,1045,-1418,-1314
207,55,-5177,-4057,1816,1694,987
208,-1569,-6650,-1818,-392,-1085,-1664
209,-846,3176,444,-1106,-277,1791
210,-2169,1044,5609,-462,1994,1229
211,-2063,1070,-1311,510,350,1127
212,7689,-7403,2877,-1152,-203,-141
213,5225,-1032,324,931,-927,1109
214,-1972,-1014,-6400,309,729,-14
215,6409,-1763,5990,-193,-1541,-864
216,-160,7926,-6491,-1484,558,-1478
217,-7637,-4247,3068,748,-1195,-1472
218,2478,650,-5241,1192,50,1310
219,3114,-1983,-5598,474,-397,-1205
220,6469,-5586,-641,1526,608,872
221,-3447,7254,-1506,-1267,1285,-1529
222,-3924,-3347,-3720,778,-1604,-130
223,6039,421,-1957,-1742,-1867,1278
224,4594,-2040,-5368,-130,1242,955
225,409,7311,1677,-1769,-959,-1260
226,-4730,-7004,-5112,441,-1872,-1722
227,7753,738,-3366,1349,1490,832
228,5018,-2240,-6954,445,-1201,411
229,-5640,-1905,-5208,-1140,1998,1231
230,784,-2312,4319,-989,1845,1220
231,-7592,3874,1081,-701,1485,-1071
232,861,6926,-3608,1545,1730,524
233,7250,6760,-2036,-284,1876,1630
234,-2093,2542,2159,-722,-647,-1981
235,5509,-4605,-6899,953,-122,619
236,2870,1971,5594,-185,-477,-148
237,-1255,-7208,-6037,-15,1734,948
238,-7029,-4303,-101,-251,84,-168
239,7625,4704,4687,-1134,-157,948
240,-458,-2225,-6715,-757,-1250,-1077
241,4591,-80,1683,-154,1175,614
242,4151,5886,6279,1259,415,-577
243,2299,-3873,5370,1593,386,1443
244,-7728,7186,1263,1078,443,1667
245,-366,4113,2844,773,-200,-31
246,7171,-853,4417,-2000,1332,-464
247,-4343,-2075,-2812,-1437,-1183,385
248,-2905,-3126,-5403,534,105,-802
249,-6439,6174,-5631,-120,-1059,469
250,2274,-4477,-6592,-955,348,-1619
251,6134,-420,2945,-1395,1778,-1424
252,4845,-343,-7590,-1487,-1988,1543
253,-7344,-122,-4056,-861,926,267
254,-3680,-4512,883,1065,-993,-256
255,-4021,-6890,3781,1366,1283,482
256,-3522,-2955,-2445,151,-1052,1264
257,-264,-2542,-5306,-171,449,-1078
258,-2996,-4947,846,423,-379,-292
259,4070,-7941,955,944,1159,-1028
260,1698,-2778,-90,-419,-750,-408
261,-2182,7103,4310,839,833,-1363
262,-5779,-2632,-1667,353,1149,-1822
263,-7512,3033,-1991,-1407,-235,35
264,384,5000,5130,-1398,-951,-1640
265,2823,-4069,-6632,-1723,-953,-1789
266,-867,-4689,-5389,1089,-374,-705
267,6863,6822,-2605,-220,1281,-1192
268,-3816,5809,1656,236,688,223
269,-7353,4640,7812,115,284,-1115
270,-4204,6369,-2995,1612,190,1785
271,-5656,-2318,-203,985,-1355,-1706
272,-4578,450,7380,1690,-1682,597
273,-2487,-5248,-5021,728,-107,1557
274,-7328,-5857,1302,472,283,480
275,-1021,-2744,-3363,672,-349,-78
276,2048,282,3524,1055,-107,-1997
277,-2129,1909,2169,-655,1671,1637
278,-2629,7894,-3111,82,194,1162
279,7438,-1953,-6668,874,673,1116
280,-4651,5605,-5457,-518,209,-83
281,363,-4907,778,1737,865,92
282,4078,-973,1633,-406,566,-277
283,2230,1653,3488,1421,-902,9
284,1810,-4614,-310,-648,1670,-1980
285,-5545,-2916,-6711,-1307,1631,-1973
286,-5621,-793,-228,-1274,1378,1780
287,3348,2025,5821,1549,602,1445
288,-6188,7483,7747,-18,1316,-1608
289,-579,7310,7232,1270,-389,16
290,5276,-7567,3381,-1426,-1206,-1988
291,3863,3093,-2008,1141,-805,-500
292,5921,4948,323,1142,526,753
293,7902,-3176,6464,-997,-7,855
294,-2017,7618,-4388,-8,16,1111
295,-4152,7366,-1760,675,39,1737
296,5091,-7803,-2232,-961,581,1145
297,-2991,-6694,819,-709,1839,-576
298,-1803,1849,-2018,-985,1971,1331
299,-6675,-1856,7797,484,-524,1246
300,1915,-476,5679,-639,871,257
301,2657,6512,-4465,1020,-49,323
302,-127,3828,-6753,-173,-801,1158
303,-307,5046,-3601,-105,-372,364
304,-1062,-1153,1795,-33,430,1786
305,7660,1655,-5838,979,-1865,1531
306,-234,-1378,6940,-331,616,137
307,4802,6681,-4837,-965,1370,1154
308,909,-6177,-4503,1951,226,475
309,3323,-617,2873,-938,-1642,581
310,5206,3699,-4338,-1645,637,-374
311,3278,2980,-7066,1634,-152,-841
312,-549,2764,7009,-1603,-1713,-493
313,3635,-4897,4044,762,1461,378
314,5020,5081,7755,439,-1924,-819
315,3578,-1929,-173,374,-1052,354
316,-347,3156,928,1692,1937,-1751
317,5789,3568,7248,157,-1830,-1540
318,-7152,7570,-6524,-1460,1161,235
319,4954,5288,-197,477,1278,-986
320,-1210,-7050,5745,74,1840,-626
321,-7406,3912,5111,691,1284,452
322,935,-2543,1643,1890,1358,-974
323,1646,-1105,7965,-1504,-43,1498
324,-4401,-6617,3277,-1091,-58,810
325,-5938,2256,5112,1315,109,23
326,6491,-4835,2238,144,-331,994
327,-7817,-2086,-5354,-404,1573,1671
328,-1453,-4744,3129,-660,-1952,884
329,-4100,-3337,7653,-821,-1796,-1482
330,-7853,4240,4592,-1831,-726,807
331,-608,-3180,-6954,86,-1483,-399
332,-5213,-2980,4659,791,-922,856
333,1296,716,-7880,-339,217,521
334,2305,-1802,-2580,-1412,-1524,-879
335,6414,4287,988,-1978,330,1183
336,-2464,1828,-2636,1335,-564,-1032
337,-6431,-4541,7441,-426,-1038,-1268
338,-5464,-2505,-989,-1155,-1584,1660
339,-5687,-4702,2828,-754,-1954,-587
340,-2579,2198,7288,-853,1188,-403
341,-6535,-3467,7925,-1305,1290,1533
342,6636,3665,-816,995,1433,1017
343,5765,5676,454,1658,1706,1672
344,3469,-2029,-646,1768,-720,-1480
345,-4709,-2335,-2324,1453,281,674
346,1001,1716,-3810,-1652,1646,856
347,480,7681,7287,-1567,1203,347
348,-5950,3816,-6011,875,1326,-154
349,1439,-957,2688,-1375,1829,648
350,-3416,-7085,-6504,307,633,62
351,-79,4509,4126,-156,-208,1498
352,-6764,-6796,-997,1002,914,234
353,-6018,1828,4503,-1043,-1089,1516
354,5145,-5603,-2683,1150,659,1351
355,5725,63,-3843,-963,-977,-255
356,-5744,-7927,-5231,-489,-451,1643
357,3071,3277,579,1344,-1648,467
358,-7797,-1040,-5276,-292,1770,-1456
359,-4385,-4236,-1274,-421,940,-1518
360,-3305,-7353,6296,1684,-1704,1840
361,-5303,2836,634,-1645,-642,1460
362,2252,-4923,-4383,930,154,447
363,1813,3973,-5549,1983,1555,513
364,-5419,62,-6763,-416,-576,72
365,4206,-2515,-5839,-1122,-236,1213
366,4252,-2032,-7934,-502,1946,-1573
367,-2157,-6697,7169,-483,-231,-1982
368,-1252,-1927,1442,83,-1952,-721
369,-5785,6188,2279,1251,-748,-93
370,-325,5452,4674,1774,1003,1704
371,-4428,6759,-2326,1968,-272,1477
372,951,-2781,-7370,-228,-1220,-1468
373,-1718,4573,-2763,-1894,-475,-417
374,-3466,6490,5862,-579,-1633,1582
375,1373,6251,-5779,231,-351,1670
376,6816,-1435,-4513,641,1920,1481
377,7979,-1425,-6249,655,1176,-1972
378,4667,6460,3291,-1771,-1234,289
379,3624,-5218,-6003,-384,-1875,-1185
380,4859,-5586,5499,1255,449,897
381,4763,899,-945,-591,-158,1640
382,-901,-1187,-6498,962,435,-213
383,-1203,2682,-117,-1304,1839,-433
384,4021,-5630,4168,-651,148,1240
385,-1816,270,2827,-1948,-1341,-1968
386,-3949,1616,5706,-1902,795,1083
387,6403,368,4966,-11,292,-622
388,5221,-1321,2820,1396,529,185
389,-6626,1518,-120,-1321,-918,1159
390,-5543,-4841,3630,1399,-825,-1740
391,-2581,5339,-4444,-309,-1575,141
392,-5021,-4370,-4436,1680,343,967
393,4926,-3670,-7285,-539,-1233,-153
394,-3849,6551,7264,220,-1695,917
395,-6816,-37,2344,1526,-399,1459
396,4771,-1812,6820,981,1379,1996
397,126,3143,5538,1386,529,-707
398,-5525,5095,-578,50,-1281,-1774
399,7050,5232,657,-819,775,1630
400,-7568,6820,5094,1718,354,1489
401,6147,-19,-115,-1170,-1541,1300
402,4591,-4590,4224,515,-900,-1577
403,-10,5493,-2943,-1561,-1444,1189
404,2878,6698,1698,-476,-14,-1906
405,-1999,-3243,4318,-1162,1333,-687
406,-6954,-5010,-4913,948,-1463,705
407,5618,1525,4505,1408,1598,702
408,5828,4787,-7835,-1208,403,858
409,-638,4630,-4378,-1815,259,777
410,-4256,-4545,3363,-1295,281,1094
411,-4873,-4541,5496,1535,1603,1578
412,4612,981,2932,-772,-31,77
413,-3971,-4555,841,624,-256,-1532
414,2033,-1163,6434,-1142,1140,-114
415,-3348,-1387,-7285,-441,995,-686
416,7202,-6979,-4510,177,1856,-1519
417,2958,-3566,758,228,-573,1812
418,-2422,-529,6464,637,-1362,-173
419,412,257,6018,-355,-1785,-859
420,2202,4994,-6479,1155,-1197,-1495
421,145,3817,6764,-1540,-1901,-1001
422,-4568,1171,-260,-380,-1818,1320
423,-1299,5035,-3606,602,-516,452
424,1505,7901,6500,-41,1792,-1331
425,1719,3214,6740,1167,-726,-2000
426,3530,6030,7862,-847,-908,-412
427,-1290,-6876,-7581,-1292,-581,1224
428,-1471,-7316,-5088,-1005,-1934,-1011
429,-2584,1899,5467,225,1298,1879
430,-518,387,-7613,-1811,-950,710
431,-5702,-2577,-4907,1503,-224,917
432,-7325,3852,2558,366,930,-1445
433,4962,-6298,4036,1704,-1025,265
434,237,-4123,16,-761,-1764,-402
435,2942,-3728,7436,-1007,-52,1494
436,-6696,-4335,4176,523,-14,1221
437,-1958,2206,-5527,-716,-1673,546
438,-6192,7759,1517,-1294,55,79
439,7472,763,-2382,275,1605,314
440,-6654,4033,-6937,142,1637,-1501
441,7781,5894,7263,-1003,-304,-436
442,1172,-4095,-6999,1672,1807,-1274
443,1688,-3908,-2802,-345,-793,-433
444,2256,-2902,-6693,1145,-1620,-639
445,3060,-3980,-3862,1107,-1650,-529
446,-4100,621,3793,-1182,1548,-345
447,-7940,5757,2160,692,1236,1168
448,2296,-7366,6174,730,1904,-905
449,-5174,-6578,-7,1669,1777,1672
450,-2101,-7799,-3176,1776,713,1101
451,-7844,-2657,-1621,1314,1838,-66
452,3578,-5090,5151,-147,287,-1788
453,6202,-3001,5490,-1075,-255,-1353
454,1960,-2494,-3989,280,471,1988
455,14,7432,-3402,-372,-1471,-805
456,-2383,-4433,7303,-924,-1213,1430
457,-4337,1187,5756,-1959,-44,-1954
458,1959,-6625,4983,917,1722,1092
459,-1733,5772,1042,-127,1241,567
460,-6316,-3398,-4522,-499,868,476
461,-6119,917,6889,513,-1576,744
462,-3789,-3107,2917,-595,16,-1417
463,-5129,1440,6901,910,959,-1337
464,-386,5072,-6287,-342,-1442,-1470
465,5729,-6096,1528,1570,506,-142
466,2587,-5290,3665,-373,957,896
467,-2339,3312,7246,-895,-804,1639
468,5946,5630,-4323,1316,756,-39
469,-5892,1178,-902,1997,-812,962
470,-4055,-1574,-6402,1313,672,958
471,5174,-7954,3780,1990,1913,12
472,-618,-250,-7670,-283,-101,-1959
473,-6703,-61,1872,965,-251,1299
474,1452,-4294,-5375,1468,-1556,1584
475,-6816,-995,6640,-227,449,1494
476,1831,6411,-4452,526,1502,1667
477,5093,-7319,-2788,-487,-1825,1500
478,4904,718,-1421,-58,1433,-764
479,2121,-7979,-7516,180,408,-1676
480,1062,2284,-5062,-507,913,1610
481,5245,-3215,6090,592,1111,1314
482,3747,-3370,3159,505,1949,390
483,6682,-5366,40,-21,-1770,890
484,-5625,-4574,2629,566,-146,-477
485,-7607,2982,2372,-143,1123,1839
486,-423,7149,6422,-1182,-655,1276
487,-5844,-6503,-7442,-443,-1301,80
488,-4632,-4979,7251,-295,-564,1784
489,-2955,2024,7246,-1409,-1329,-1692
490,4066,3049,-6425,-1743,702,-1085
491,6622,-4709,7803,1576,1744,375
492,5933,-1000,-7349,-931,129,1313
493,1060,7600,-6238,-352,-1860,22
494,-7574,-889,7755,499,302,1666
495,6005,-6441,3488,1324,1662,-563
496,-5241,4443,-3560,777,220,326
497,-6713,-4251,6388,1093,1483,-1099
498,5655,1896,-5189,-668,575,-140
499,-1296,2101,5124,747,1214,-1033
500,-2448,-3896,790,-1790,334,11
501,-5463,469,-4163,-1246,-464,1771
502,-3126,5164,-312,1737,1150,-1864
503,-7278,7982,6421,1167,-1770,-1004
504,-5262,6130,6248,-1245,1247,1062
505,379,6189,7785,1181,262,1891
506,-6327,-4154,-3278,1688,-122,-1378
507,-2777,2002,-3669,-627,-1300,1291
508,321,-3048,-7910,-491,1899,-1879
509,-7760,-814,7944,-419,-576,159
510,-1695,-6804,3718,1347,1814,-193
511,-4018,3462,-6912,-707,1282,-1743
512,-4725,4249,-6423,97,1728,-49
513,4419,-3615,-5260,-761,-527,1283
514,-4238,-100,6035,-1231,-221,-1746
515,4271,-5294,-4890,1345,1587,-1109
516,822,6687,939,-379,680,0
517,7951,-1471,-3056,1455,1100,49
518,3958,7868,-5791,-1574,-978,42
519,2550,2312,-313,1412,-1765,-936
520,4500,-6317,-5267,1362,737,1947
521,5170,-4543,-874,349,-1718,-443
522,-7117,3692,-7573,938,1025,155
523,-3522,-952,-3408,495,443,-614
524,-2247,-7607,-2874,-1935,774,1754
525,-6466,529,-2959,897,-295,989
526,2391,6501,-929,65,295,940
527,7631,7564,-2451,366,1432,1195
528,1544,-5282,5337,562,1469,-1908
529,-5184,-5207,5895,1075,1337,-1018
530,5090,-7868,6025,-1110,1511,-1399
531,5999,-6520,7573,1354,1613,-771
532,-2543,-3806,6440,1868,-286,-619
533,-3700,-3432,6998,455,1461,-1111
534,-3305,-7067,1951,1477,-1441,830
535,7711,-414,4247,344,1142,1596
536,-7442,-2000,1893,-956,7,114
537,-6629,1539,283,441,-1514,1364
538,5761,-4434,1234,-1290,-1077,-623
539,6041,-4577,-1937,-1872,1189,1049
540,-6794,-3417,-544,883,-1980,-1139
541,-6838,-37,-4604,188,-1984,-491
542,3493,6286,-4086,-676,1635,1296
543,6744,292,7512,-1307,104,580
544,254,-4543,2457,1156,907,-59
545,6554,7392,-6902,-1434,1412,-681
546,-1375,6409,5586,-336,-8,-440
547,2698,-1533,3155,-1582,14,707
548,3983,-3325,1867,517,611,1144
549,1765,7550,1227,1307,1175,538
550,4755,-2054,618,-1116,1123,-1178
551,557,5986,5875,1940,-1500,-1894
552,-6686,3158,-2160,1992,-247,237
553,1319,-3544,-6975,1387,1678,1811
554,2997,5316,-4175,794,-1465,-1540
555,-7696,6735,-247,1075,1595,858
556,-5860,-903,-7901,1319,-294,-1774
557,-1937,-2670,5261,-765,1425,1419
558,-6916,4963,2793,-736,-711,-1174
559,7324,-2625,7483,-1915,-1693,196
560,-2571,2119,2409,-976,142,776
561,-7333,7892,3475,-844,-596,-791
562,722,817,-4715,-1903,-1591,-824
563,3991,-1952,2802,-726,1566,1003
564,-4646,193,2003,-1752,922,-427
565,211,3958,5626,614,1551,-1788
566,4776,7560,-2481,-1388,-38,-768
567,1216,6832,-3812,-1568,-965,-829
568,872,4110,-7751,539,-187,742
569,6261,-175,-7014,608,-1937,-461
570,-2040,4523,-906,-800,-1474,-262
571,-4216,1606,6733,-721,1314,1004
572,-701,-355,2757,1782,283,-681
573,-4608,-2404,-7368,-404,70,-1292
574,-5644,2218,7383,644,-1543,1917
575,-765,4740,-7611,364,-645,1146
576,-6325,5185,1077,-854,776,731
577,7084,-6269,916,-1352,1630,139
578,-3584,-2494,3570,1436,-582,-1610
579,-926,-6959,-2393,9,592,-1398
580,1401,-5368,543,1271,188,-1014
581,-4810,-6946,-7460,823,-1166,-627
582,-5782,6444,-1650,1461,-1100,-125
583,-7674,-4930,7326,1366,-235,563
584,-6454,-3165,-2447,-795,-510,277
585,-7384,7238,-6038,1836,1242,1814
586,5754,2641,4929,1923,855,1516
587,-2051,-1239,-7551,529,-961,1024
588,6312,-366,4193,-929,-880,-1896
589,490,-6205,-3959,-509,675,-1785
590,1223,-1,6493,-1031,1505,-750
591,4842,1494,-948,1019,865,-827
592,-4515,-5342,-643,1691,1692,-364
593,3146,3088,-7367,957,-1054,1584
594,4857,6025,-6082,1498,1194,-1290
595,7307,-3055,-3547,-896,1154,-217
596,-3504,-1144,3089,-303,-770,552
597,526,-5307,-1300,-1856,1092,1561
598,-4056,-7376,7071,367,-147,1296
599,-838,-6906,718,306,-286,-1466
600,358,-5186,-1272,-129,-1686,-1977
601,-2014,3583,-4533,30,1245,1890
602,477,-6635,-7085,641,1337,-977
603,-6835,-6222,7683,-1100,1492,-1163
604,1638,-4171,2633,-543,-149,-1516
605,-2558,6133,2921,-630,-41,-267
606,-2989,7722,504,950,673,462
607,-4759,-4649,-3524,-635,-1734,-251
608,-5085,-588,7824,763,24,-8
609,1876,-7913,7110,-437,-1515,1029
610,-5407,-3357,-2321,-914,-644,1369
611,-80,206,-2521,1882,-836,234
612,-1656,-2037,6824,743,1085,470
613,7629,3639,-322,467,1729,1324
614,-79,7673,6028,-1268,-1005,596
615,5291,3458,4892,626,-143,1609
616,-3923,592,1183,-1976,-1927,-652
617,-4086,-1467,6563,601,-1967,1179
618,5090,-5765,1827,-880,-1432,-2000
619,-7494,-4528,-4445,778,-1287,-1997
620,-5892,-1899,7901,-243,850,1937
621,3419,4165,-6733,494,1887,-1868
622,-5670,4591,711,1241,-480,-1361
623,5448,-3664,3832,1175,1547,-377
624,3604,1946,7002,-103,904,-127
625,-7879,6362,4066,1672,1907,1693
626,-551,4049,5563,1238,222,1172
627,-13,4364,4151,1612,767,-1586
628,5112,6849,1593,947,1721,-1318
629,7717,-998,-2561,-911,-10,-160
630,3795,-2536,1954,-115,-1440,1916
631,-2622,1079,-323,-164,-1116,-29
632,3454,7218,-2458,-1808,-637,-1951
633,-4929,6917,5707,-1903,-1677,1676
634,-6944,2453,7885,-802,769,1953
635,4260,5638,-7872,-519,-406,-1789
636,2376,-7976,-2205,168,1565,681
637,2260,7812,7014,261,1590,522
638,4897,-5371,2287,769,-1501,682
639,2886,1945,7671,-1831,-66,561
640,-2789,6588,-4553,-1945,1208,806
641,-5951,-3734,-5577,-954,-1559,-328
642,-3009,-3999,-5001,-1473,284,-1040
643,2394,3547,-265,-242,-1761,385
644,-6084,6014,-6027,-1698,1523,-1403
645,5748,-781,-694,-297,-733,-527
646,5795,-6740,-4466,-514,1598,1143
647,-3166,-7883,-3619,121,-509,-1776
648,587,6556,-2549,723,439,1989
649,-1305,6623,-1899,1063,-1819,-1558
650,-1610,6153,-7071,-1228,1045,1228
651,-1596,-1316,3860,-987,1298,-1326
652,-7066,-2325,-5602,-660,-1858,28
653,-310,-3430,-5494,612,-1392,1156
654,-7451,415,-4490,-549,-1948,94
655,3849,-4923,1715,1920,1643,867
656,-5109,-1128,5921,-792,484,1400
657,4520,-2599,-7707,1682,918,-168
658,7777,-2882,6948,1289,1551,1935
659,-7314,-2870,-4936,1096,-949,1017
660,6999,3611,472,1988,-919,249
661,3396,-1475,5792,603,590,-1282
662,939,-1381,-1508,1242,1874,861
663,-4058,5658,4443,1794,1354,1958
664,-76,1186,-6677,-1582,-1730,625
665,-748,-6252,7740,-1134,1432,838
666,-7481,-1207,-3105,385,1271,1280
667,5712,6042,2055,-139,1358,-1642
668,5788,-2773,-1479,-874,1320,391
669,-7308,-5675,-1379,-1021,-1564,204
670,-4544,156,3415,1449,5,-1996
671,2336,185,-6529,1901,-2,152
672,-2678,-193,302,1898,239,1808
673,-6599,-185,-3644,-638,-1810,1791
674,-3942,696,4193,-1756,390,1450
675,6107,3680,2614,778,-1408,-30
676,656,-6085,-4364,-506,4,-194
677,-3793,6451,3001,-1417,-1658,-127
678,-6200,-4346,1957,1854,-1005,-1689
679,-3075,4765,-4508,-1831,-1874,-682
680,-4040,70,252,37,1692,306
681,4047,4578,3348,-579,489,-192
682,2697,4817,-2485,-1206,-716,-1000
683,4970,-5229,-119,-1098,1681,761
684,3374,5121,-3205,1597,1698,-1492
685,-3361,3188,-6877,-636,1279,1984
686,1621,-3672,-4863,-1103,463,-1325
687,-4492,910,4607,-424,-1574,1775
688,2491,6316,3141,966,159,-419
689,6655,6156,3713,1693,-1667,-1398
690,-545,5562,7577,627,-706,1753
691,2886,-6255,-7580,-552,1943,-238
692,4891,-1228,-4259,495,-1956,712
693,-7367,7500,-6698,-516,-1222,145
694,561,2362,-7260,740,-1807,-873
695,-5867,-6917,4074,-1132,1731,289
696,-3484,-2855,-7498,-1098,-386,693
697,-2100,3214,785,-1705,-990,1375
698,305,4801,-4549,-1234,-1003,-1499
699,-600,-3271,3079,1824,760,117
700,6906,1325,4394,-962,1355,-1471
701,3401,-2904,7918,1444,-722,1073
702,4315,5920,-4409,1546,676,-1415
703,-1757,7736,-7329,276,1454,-1134
704,5822,7485,285,-1318,-1854,816
705,-320,7008,7683,-1659,-1297,-1145
706,4875,-6097,2891,653,107,-590
707,-2250,6146,1180,-1728,1359,-666
708,-6113,278,-4130,-100,-144,983
709,6685,-4079,7190,692,1908,-1522
710,-4615,-7152,823,1987,505,270
711,61,-6311,7029,-1127,1576,1674
712,5435,-376,-7014,-174,115,-1008
713,-5639,6839,-7211,1396,-857,-1770
714,-1350,-4692,-3353,-648,-1462,-916
715,5489,2872,6810,-1254,1687,-1424
716,-6251,-476,2206,119,-592,-155
717,-866,-6344,1222,-967,359,1671
718,-3312,7966,-4559,-1721,1421,564
719,-893,6276,-1976,369,78,1608
720,-2979,5820,5025,1439,-664,1960
721,4928,-3113,-3707,1426,642,-1977
722,-2740,-425,2061,-1624,306,-348
723,7750,2295,-2669,-405,148,1801
724,-4152,2555,-4626,1344,-1456,-455
725,3648,833,3351,202,-603,-796
726,5884,5534,7890,-1331,547,-1869
727,-2301,-3960,-2192,-1177,-1248,-881
728,-1970,7643,-5181,571,-583,844
729,-4844,-6961,3370,585,-827,1160
730,5697,5572,2062,-966,-862,721
731,-140,-4165,7530,-969,-1677,-1486
732,5950,-4634,-3076,263,-1508,-688
733,6399,-6469,4369,601,745,1043
734,718,-6680,-7948,1087,-794,-1141
735,7702,4075,2342,-1312,12,-1793
736,5413,-6341,3691,1186,291,-220
737,7543,-6998,5307,-317,728,-504
738,-707,5673,224,413,-1141,-410
739,1836,-20,-4400,884,1975,-1950
740,2190,7441,7445,-1072,-1611,-974
741,426,921,5101,400,31,990
742,1096,-612,-1631,-313,-1795,-844
743,5649,3721,6065,1042,1536,1039
744,2580,2027,2517,518,-1376,-307
745,-5231,544,6787,-1676,-1559,-641
746,-6256,-432,3685,-1817,85,1547
747,-6432,2295,-5816,913,1587,-957
748,-4314,-7003,7242,-314,-15,-1882
749,3557,6705,-3277,1149,200,-1130
750,-1036,436,-3818,1981,600,-700
751,-7188,4454,2291,168,1731,-1858
752,-3308,5378,-395,-786,-998,766
753,7631,752,-245,793,1581,235
754,1547,-4952,4523,1672,-1862,-438
755,-7989,1130,-3984,1431,-259,1394
756,-1367,-4286,-2410,-682,192,-547
757,-5156,-5319,1165,1444,1125,945
758,3422,-959,4947,-1836,1844,-1034
759,2356,-7491,-2893,-1177,-130,1545
760,-7315,3106,1353,327,-637,637
761,-2961,2298,1188,-1859,1817,-1055
762,-1181,3144,-4762,-1405,-1122,1194
763,4142,-3636,-7085,-1577,-138,1470
764,7637,2786,3372,-1072,222,-841
765,3285,5608,7225,1466,1114,1597
766,7038,6623,1279,1235,-668,-1251
767,-3317,-7581,5208,-393,592,89
768,-1521,5042,-1873,102,-723,-1574
769,7389,-2654,3276,1643,138,1005
770,2182,1013,-4140,-116,1644,-1277
771,-3179,-1553,-6007,408,742,-350
772,-6998,-1174,-6048,-1580,78,-1542
773,5978,4593,-1746,1499,800,-1616
774,5076,-3902,1210,1547,503,-121
775,4826,1706,-971,-1337,-28,947
776,-1156,-1237,-4043,851,23,187
777,6789,1480,6008,-114,1774,-943
778,-5961,-7034,-565,-719,-851,-999
779,3663,-2644,-7331,-546,713,1724
780,1425,1565,-3293,550,-1989,1309
781,7769,-2077,1112,1818,105,-1237
782,-6690,6999,6064,1631,-141,-397
783,7313,-4288,281,-1980,-168,-270
784,4115,5999,-2513,-733,1906,1667
785,-4043,-2207,-2609,1840,-944,-1696
786,-7198,3816,-631,1270,953,1493
787,-6483,1615,6927,-1597,-10,1473
788,6859,-4988,-1794,1119,-995,-222
789,4625,4114,7723,-1609,-1521,800
790,-7964,-1194,-5065,-932,1876,-896
791,-1440,-3685,7164,-1178,-370,1467
792,6802,-3496,919,211,1472,-1873
793,-7918,-3371,-7846,347,862,93
794,-2629,-2190,2629,342,-1363,483
795,6542,-2781,2586,-1822,1927,638
796,-867,7252,-7174,1398,-1077,282
797,197,829,3227,774,609,-1908
798,-5319,7310,5632,-818,828,265
799,-4379,-7103,2841,-264,-1918,1365
800,-3345,-656,1190,485,-379,291
801,4171,2069,-6817,220,-1866,-1667
802,5996,7747,2072,-313,1233,965
803,5935,3479,-2552,-994,-1517,634
804,7516,-6808,7264,-826,-358,866
805,888,1369,1974,1491,-1172,-1981
806,-1509,-5813,7010,889,-1623,-86
807,-2455,3879,-7596,-1183,-468,1852
808,684,5054,-5029,-1239,1661,1179
809,-366,-5600,-484,-287,104,-1502
810,6953,7579,-1373,1209,784,556
811,-3055,-5300,7549,-607,256,-1708
812,4897,-6564,-5316,-481,-1398,-1901
813,-7903,-6618,6806,852,344,-781
814,4408,5338,5675,-1839,-1665,895
815,6428,-2338,-954,1661,1596,967
816,-7478,2682,1580,626,972,-713
817,-5480,2449,-4655,680,930,1734
818,-2885,2480,-3775,-552,-910,1694
819,1991,541,269,524,1073,797
820,-2607,7485,2620,805,-1640,-296
821,-6475,-2449,-4919,-91,179,-1393
822,-5811,857,2953,-2,1422,1386
823,3733,1981,1454,-1965,-635,1365
824,2211,6053,5755,1800,455,-1917
825,2316,-1277,7101,98,-819,-1460
826,-6975,2919,-2331,-1516,-1893,1314
827,-5740,5014,-4894,-20,811,1917
828,-7505,-7668,122,585,1745,-1752
829,3039,3605,5138,1991,1457,263
830,-2764,-4778,-6920,1902,-1596,897
831,-4798,-924,5006,1314,1780,-1576
832,-4469,3234,-7336,1028,439,-613
833,-3143,-7478,3794,-1799,-376,925
834,372,-4806,-1269,-1196,-786,-1528
835,5272,-6604,5119,-1137,1518,-1131
836,-4790,5535,7863,-479,1114,-579
837,6559,3237,6088,631,-1294,1157
838,-7275,-4404,-2931,391,-1693,-590
839,-5958,-6366,-7718,-784,1966,626
840,-4422,7447,-1937,-1992,-1542,914
841,59,-1866,-1930,-1621,-1622,113
842,2601,-240,-4988,963,-1447,-1721
843,4836,-5390,2175,-1468,-496,-862
844,5112,7358,-4725,-756,1116,-208
845,-1097,-7602,1656,-481,1077,1139
846,-2790,544,-388,1904,1784,-678
847,-2696,-1721,-2614,1966,123,-1448
848,6552,-3512,3333,1516,1730,1183
849,996,-5609,-2941,-1282,-1478,-1589
850,2548,1406,5917,-582,-302,170
851,-2142,-6212,-5017,-39,1250,651
852,3594,-1001,4423,125,-1339,1833
853,3163,5261,-6059,332,1010,-886
854,-4892,1917,-6566,489,-1507,1837
855,3200,-3729,7096,-1071,546,1551
856,1314,1484,-2444,148,1439,1301
857,7581,-5848,-5737,1585,-955,1084
858,-3570,-5516,-7748,1771,-1603,-1304
859,-419,-677,578,513,1844,1855
860,738,1679,6301,644,-221,527
861,1777,6649,-6684,1580,-139,234
862,-7304,-4402,-6688,-1921,-1918,-872
863,5732,-906,599,647,860,1284
864,3788,-594,4471,-190,-1272,-766
865,-3087,7557,4642,-1763,-809,-763
866,-847,-1580,-4210,1662,63,1324
867,2603,875,7547,-1826,1013,265
868,-2597,4124,2338,-1139,570,-1650
869,-6237,-6587,3149,1122,-975,187
870,-419,-2716,19,-1658,-904,-1513
871,-260,-6444,-7039,-859,698,931
872,-4907,5640,-821,492,1176,-831
873,-4933,-3149,1858,207,1227,-1604
874,-5528,-293,3210,-1373,-1446,1878
875,3109,-696,1460,43,1078,830
876,4217,510,-2264,-410,-1483,-1587
877,-4519,4587,-4128,-1501,1981,-604
878,-3492,3512,-6085,44,-1570,-1150
879,-4677,1730,5111,245,-226,-664
880,-7943,2809,-5049,-922,1361,1918
881,3375,6309,-3575,-956,-920,-1207
882,5938,-5011,-4446,88,-316,-1626
883,5856,-2884,-1301,377,-563,-1577
884,7348,-3894,6225,311,1542,-1083
885,969,-2302,7268,1897,1392,1048
886,-4860,2873,-2856,-1716,1875,-666
887,-6849,7609,4648,234,786,-1619
888,-5082,-3917,4930,-1499,-382,1871
889,4837,-1451,2309,873,-375,-1885
890,5250,-1305,-6604,-1810,1740,-1797
891,2036,1641,-1468,-278,1677,-432
892,-5577,7804,4822,1981,-1878,-1182
893,-7265,796,-7069,-7,-542,-1310
894,-2248,-4067,-6705,-1740,-70,-1336
895,-6661,-1587,-3415,-753,363,1133
896,-5114,-4360,-7354,240,-431,880
897,-1571,-4476,-2868,-553,-1600,321
898,2408,6431,-2020,1053,-910,1537
899,5969,7718,-6786,-942,1138,-528
900,-2841,-618,-1872,-1198,-53,-508
901,5931,-4725,6932,1685,1576,-1087
902,-5006,1721,4837,-131,805,70
903,-3218,708,-6142,-990,1873,830
904,3478,7412,5844,111,1134,1380
905,7384,-1625,-7857,1921,650,332
906,5386,-2717,7599,-152,-1986,1161
907,2429,-1138,1630,618,1965,1903
908,890,-7015,-4026,-1798,-1269,1910
909,2583,-699,3324,1545,361,-463
910,-7960,2576,572,62,925,596
911,2127,7443,723,1976,-908,1166
912,-67,-3663,127,161,-1605,142
913,-4530,-7297,-5426,-699,-1512,-1137
914,-5084,4763,-1389,-520,1854,-1675
915,1463,-1714,5294,-1102,-396,-1951
916,3650,-1520,7240,1415,-1321,-999
917,1894,-6178,-200,963,1197,1172
918,1037,1345,-5769,-1721,97,1745
919,-7059,1357,1385,1819,167,1883
920,1869,7958,4452,-397,-1545,1370
921,7303,-2541,-6885,-1876,1292,1636
922,-212,-2265,-5119,-1673,1512,-689
923,4578,2122,139,695,-1234,-1999
924,3862,6795,-553,1433,-812,426
925,-7048,-9,6468,-537,-1740,1149
926,-6932,3004,2601,-877,-1816,-973
927,716,3307,-4910,1660,-1980,51
928,-4751,-2720,-807,-769,-1254,1182
929,6173,1073,7677,-377,654,1994
930,-2030,4723,6258,1921,855,-1268
931,7452,4904,-5271,1726,336,-1987
932,2031,-5990,-3096,-4,-1532,-58
933,5945,6430,-7147,1003,515,-171
934,-3426,5800,-6254,560,-1517,-1459
935,-5119,3433,-3333,728,-19,-504
936,6306,7431,861,1901,-1548,1703
937,-736,291,-7338,1820,-670,1954
938,907,316,6697,1291,-1124,993
939,2374,-7562,-286,656,811,725
940,6670,1813,-908,-394,-1915,1618
941,-5949,302,-1087,-1896,245,402
942,74,-2906,-6479,-679,-725,387
943,2312,-2359,7259,187,152,1401
944,-6379,-4622,4133,-982,1175,1564
945,-1374,4787,2039,-1823,29,457
946,125,7348,4628,1208,1421,-1830
947,-3190,-1320,6837,-232,-448,-1823
948,1797,-4707,-2362,440,446,1824
949,282,-6886,-1415,72,1287,-1897
950,7403,-328,5928,1823,-386,292
951,5011,-1416,-4612,1311,1209,-634
952,-5429,7954,-989,1487,459,-229
953,4605,-7524,-1374,1300,-1697,1711
954,-4711,2617,364,-1390,1700,1762
955,459,3022,4261,-492,1168,-473
956,6777,4460,1925,1190,-1403,1927
957,-2283,4687,4100,1675,-783,-351
958,-6542,-5918,-3785,-843,229,1697
959,-32,2932,-3656,-163,1047,-1178
960,3047,2994,7265,-943,-1546,830
961,-1380,-3821,-1404,-1945,-184,995
962,2005,2760,-4198,-1275,790,1175
963,4525,-7316,-2436,822,354,-1400
964,-1665,6943,7864,1183,-723,-1141
965,494,7638,1986,937,-1745,1982
966,-6143,1838,2061,938,993,89
967,-3831,-3405,4729,489,630,1672
968,-5517,1091,7130,-1959,946,-1921
969,843,6593,4515,-185,-143,1509
970,5433,-664,-6337,-719,688,-505
971,2984,5593,-4211,-1574,867,-241
972,753,-5956,-5923,-152,1039,431
973,-632,581,-1724,-239,-558,-1626
974,1938,1699,-4469,1135,-762,763
975,-1077,-6997,1344,-1910,1311,1373
976,-643,-5801,-3090,989,813,-1044
977,-5263,455,-4608,-821,-62,-524
978,-3708,953,-7763,-361,1197,39
979,3684,-7467,-6055,-1331,1094,1331
980,5073,2750,-4196,1292,1492,-1690
981,2468,-33,-3092,284,361,-627
982,4216,-7791,5138,135,1958,-738
983,2028,-6791,1247,-654,1135,-1288
984,-2073,-2891,-4346,-1915,-1800,-994
985,7981,-4054,3840,271,-104,1081
986,7408,-3120,7835,-1019,-10,-805
987,4165,5242,-7862,383,-1515,-924
988,5792,7109,3305,-350,994,1981
989,5777,-6222,1309,887,-839,-1635
990,-5971,-3543,619,1059,-573,1019
991,-7909,2527,-2506,-212,651,1921
992,1766,-3176,-101,-1859,648,851
993,-620,-4725,-6521,30,1595,-1674
994,7608,4029,-7180,1905,-1010,-640
995,-5476,-4876,5922,-307,548,1436
996,-7159,7673,-6784,23,-1679,1292
997,1066,-4802,-2418,-1393,-101,-1227
998,-3392,6528,5657,-1556,186,-546
999,-840,6450,1322,-1403,-287,-1866
1000,-6613,1050,-1537,1946,764,-1551
1001,7174,1241,-3031,-377,1064,646
1002,-781,-1225,-881,7,-480,-28
1003,2985,-3474,-845,-989,1186,1224
1004,1556,-274,-286,-369,-473,-40
1005,5447,4330,7490,1425,1231,-1439
1006,7479,1996,-6860,-515,-1903,1319
1007,-3936,2732,-4239,1756,-1006,-1553
1008,-1113,1208,6998,-1013,12,-1833
1009,5181,-337,1501,-1402,-1123,176
1010,-7918,-2676,-3855,1139,-1309,1485
1011,-813,7995,-2657,-1195,1970,-1715
1012,-1305,-380,-2414,-725,-639,-623
1013,-1199,-3487,6395,-1552,229,810
1014,5754,49,-4248,1201,314,-691
1015,-7941,-6939,254,1730,1727,-1283
1016,-4575,-3943,-6861,-979,987,-36
1017,-855,-7690,835,1380,17,1667
1018,1521,2714,-2808,-756,320,1211
1019,-893,-3377,-4042,393,8,-823
1020,5430,-2913,-4271,1105,47,970
1021,2142,3493,-4130,479,1566,644
1022,-1636,372,3481,-1130,-49,1795
1023,-5847,6958,958,1280,-89,1375
1024,961,-1593,6011,483,-1620,1079
1025,6813,-7281,1383,-1923,-1332,-853
1026,5117,6933,-543,1408,1013,-1152
1027,907,-3036,-2088,1061,-1760,1080
1028,-4730,-154,-6589,348,-1624,1982
1029,1313,-4230,-2577,1538,-995,-92
1030,3838,4307,6794,1153,-1112,-1134
1031,-5680,-399,-3919,-616,-1126,1246
1032,2684,-1398,6061,1465,-100,1472
1033,-6988,-1374,6940,-988,1204,225
1034,-1292,6669,5540,-1626,-469,-820
1035,6103,921,4641,1981,398,1252
1036,7027,-5996,1426,34,-546,1264
1037,5119,6211,2887,256,-1084,787
1038,1066,2729,-6679,-115,-1163,-1654
1039,-5778,5278,2495,-283,897,1739
1040,485,-6327,4743,-904,646,-1188
1041,1160,429,-4577,-743,-1821,-1693
1042,-6974,321,-4374,-1509,-1205,614
1043,6239,-2556,4000,26,-1355,-473
1044,3381,3298,-3523,1792,-602,1619
1045,-1168,-608,5421,-51,1136,-243
1046,-3632,2174,82,899,221,-1669
1047,1179,5744,-7421,-537,971,-1694
1048,-3118,-7360,-5723,1910,-16,1727
1049,-5154,1049,3504,-420,1060,-475
1050,6583,852,-4511,1863,398,1564
1051,-6492,1520,247,-1561,1289,-859
1052,7439,-4232,3696,759,-1861,-342
1053,-4714,2450,6540,-1056,1479,1565
1054,-6508,-5192,1432,1323,-1065,1363
1055,-3288,-6104,959,1004,-302,-2000
1056,4452,2442,-3206,689,1872,1813
1057,7683,6797,-1154,646,296,1531
1058,3289,6183,-1839,-992,1167,-80
1059,-4513,-2266,-227,564,579,1019
1060,-3397,3293,-1016,1309,1765,260
1061,-4601,-6918,3644,-394,1107,-321
1062,-4320,-4587,3312,-1098,697,-1700
1063,-4759,-1138,4904,-522,-1825,-1519
1064,5441,232,4972,-1932,-718,1565
1065,2761,196,-969,1105,-1147,1905
1066,-2691,1370,6011,-1223,-129,688
1067,-4598,4190,-2142,421,-230,312
1068,5531,-4972,-959,-65,427,236
1069,-6676,2658,4844,-886,-154,655
1070,-4652,-7361,-3673,-416,-1254,1061
1071,-6404,4356,111,308,110,1745
1072,2639,-3792,7575,-1816,1650,-950
1073,4261,7536,177,-1300,-562,-1544
1074,-193,5458,666,1584,1784,-1303
1075,3527,-4509,-7868,-312,-1965,-1309
1076,5039,-3229,-3828,614,-51,-954
1077,-5498,-7560,-3947,624,1018,-1799
1078,-5039,-7778,-2112,-123,1118,-265
1079,-4631,-3746,-59,-1871,1621,-1983
1080,-6713,3254,4755,1773,1007,1102
1081,297,3751,-7064,-806,-1499,393
1082,-4318,-3984,-4750,546,-1736,-1209
1083,7341,1860,-4783,-656,-1413,-806
1084,-3818,5899,7547,221,340,-91
1085,-7952,822,1118,-1479,-1175,1232
1086,-2938,1831,-498,-975,-24,1124
1087,7848,-3066,1798,-741,-1145,-317
1088,5539,-1523,5697,-842,1680,940
1089,3711,7059,3862,1550,-1317,-1281
1090,3781,5271,-5119,-401,794,-1238
1091,542,6681,-3898,-772,-647,-1066
1092,7523,-7603,7542,1991,1037,-1879
1093,4219,7083,404,-291,674,1101
1094,7956,7958,3629,153,-1028,1366
1095,2804,-5388,-4346,-838,-119,977
1096,-4970,1961,-1806,737,1949,653
1097,2640,1947,6517,-1411,-674,-1411
1098,-603,-649,4628,798,1104,134
1099,-2731,-5894,777,-1196,1518,4
1100,-4533,-1568,4934,-1906,856,-1621
1101,-7466,-4984,2849,49,-556,1570
1102,4927,136,-2064,-608,1639,1071
1103,3485,-6177,5154,-1117,-1288,849
1104,3639,5760,421,432,1748,-1431
1105,6110,2092,-2675,-1544,-1398,1439
1106,-4483,202,1,1451,403,819
1107,-2683,-6432,2006,-1728,-1303,1077
1108,4503,-2345,-7938,-689,304,1461
1109,-4525,-2449,2834,-1466,-1437,-1949
1110,-4739,7294,274,1156,1901,649
1111,-2909,-7770,3897,-1020,-999,-47
1112,6132,5575,-1263,558,1008,1088
1113,1061,7033,3767,-742,1050,1565
1114,-6244,-6901,-398,1818,735,-1172
1115,-4721,3060,-7787,1169,-1660,-1848
1116,-7969,-4959,6042,540,372,1904
1117,-5294,1551,6286,-1406,578,-1595
1118,-6453,-6910,3332,-1689,-994,-498
1119,4868,1218,-7871,-792,-179,-286
1120,-7652,6241,-595,-90,-854,574
1121,-626,536,6862,437,-322,-1669
1122,-788,3610,6800,-811,-1955,971
1123,1064,1205,-1486,-477,-472,1420
1124,-7478,1976,-6831,-480,-642,-810
1125,6919,-6546,7355,-1205,-9,428
1126,-2628,-801,2981,589,-886,-1412
1127,6619,207,6722,-1445,-265,-451
1128,2265,780,-2845,-193,-524,917
1129,2250,-1538,-2698,1990,1538,1833
1130,4903,-1288,1034,1858,1645,-1361
1131,4519,4542,-253,-1370,1840,693
1132,1525,7792,-113,-665,-929,1633
1133,7959,-6796,-728,134,-186,1902
1134,-2636,-5596,6269,1382,825,945
1135,-5333,776,3904,1728,878,-1580
1136,-5170,-3814,-6664,1116,850,-181
1137,-3831,1687,1062,-1139,564,-935
1138,4171,5928,-208,711,1250,333
1139,-921,-211,1624,708,1122,1316
1140,-4371,2703,7476,-1975,-1781,-1004
1141,7743,-3641,2995,-276,949,1639
1142,2055,5623,-1969,638,1823,1015
1143,3606,-2090,-4134,1045,1896,1069
1144,-2933,5838,-6188,-1236,-1833,35
1145,-352,1974,-2093,-1975,-1779,-318
1146,-3173,-1364,-4288,-264,-1834,1426
1147,7498,-2024,1377,-1736,795,1931
1148,-1927,-5530,5391,-1179,-1879,-1269
1149,-4196,-66,-6959,-555,4,645
1150,-7779,4806,6794,-944,1369,496
1151,-7066,-4560,-1815,1163,-421,784
1152,457,-1302,650,-919,-1764,32
1153,1179,-2062,-5820,-1299,512,1045
1154,-7265,-7989,3321,-1815,-1505,532
1155,1846,-5430,-6674,-1308,-344,787
1156,-7654,7871,5929,-1232,827,-1579
1157,3362,-5703,-3830,1396,-1828,751
1158,-4924,7001,-7743,-287,-227,226
1159,-1209,113,7427,-1325,-1184,-879
1160,5763,-5737,899,-1687,-1103,1089
1161,-6744,-6620,4658,525,1731,365
1162,1779,1409,2983,-354,359,-1140
1163,5372,1389,7891,1738,958,-899
1164,7391,3833,-1004,1476,-25,30
1165,4196,5341,881,375,-480,91
1166,3466,1544,55,-1998,1039,1989
1167,2268,-4609,3723,-1164,554,-276
1168,6679,-7876,1148,839,-15,-595
1169,1383,-7979,-4987,700,1414,1089
1170,6656,-6975,3306,442,1,1369
1171,-3026,-2301,713,-1021,-1645,-1323
1172,-3005,2361,-4189,-1472,1195,583
1173,3311,3700,3905,221,-1621,-1601
1174,-3558,5155,-6343,892,-1602,1830
1175,1391,5741,-1776,237,-1314,-837
1176,1791,1810,-3978,1282,-751,1015
1177,-97,-4207,-5299,809,-680,1656
1178,-6876,-3276,-5972,-826,1783,-1446
1179,3182,5798,-1829,396,-1740,-625
1180,-3031,-6484,6959,-1596,1434,-1166
1181,6747,-1899,6435,-1357,-911,1993
1182,-4418,757,6998,1447,1630,1184
1183,-5975,5765,1109,-1383,1518,-1307
1184,-7696,364,-6884,-176,-1157,853
1185,3528,4511,-5652,-1328,-1641,347
1186,198,-237,-7716,1480,-480,-246
1187,2905,-3402,2019,-289,756,797
1188,620,2226,-7570,999,-132,923
1189,3044,1519,1070,787,-1998,1042
1190,-4205,3052,4154,-466,-1499,-1807
1191,-1654,5541,-2318,398,-834,-1924
1192,7780,-7044,-5566,-180,704,1924
1193,-6635,-2681,-6164,-1826,-43,-1640
1194,-5799,-44,-3706,-1581,-1672,-1486
1195,2171,4546,-7421,1041,591,442
1196,-1621,-7146,1549,365,-131,-430
1197,3792,988,-292,1350,-607,1767
1198,4416,4424,177,502,1872,1900
1199,-5700,1930,-4031,1853,442,-1742
1200,1769,6148,5236,-1380,1122,770
1201,-7271,-6576,5870,1126,-1288,-94
1202,149,5861,7937,-689,-778,-1599
1203,-2199,481,3028,-1860,259,-133
1204,-1807,-4322,2867,-1272,-1762,496
1205,7730,3965,-5129,-446,489,1937
1206,3364,-2012,6529,-733,780,589
1207,-1686,7999,579,-353,-1473,243
1208,-1496,2,-616,-1487,-1926,-585
1209,-5380,5966,4272,1632,-1846,751
1210,-978,1774,-4332,-1129,-967,-1031
1211,-1602,-6458,140,1198,-274,711
1212,-2039,-96,6352,266,-980,66
1213,-5896,4715,3477,-1954,1429,971
1214,-3848,-7834,-4343,-1290,275,-220
1215,-4074,-5020,1418,1088,132,-847
1216,5716,2787,1452,-795,-408,912
1217,-3235,4347,281,1736,1879,-64
1218,-6269,-4379,-1658,-886,1092,-347
1219,3333,-3518,-17,110,-1607,-528
1220,-2232,5701,453,834,295,1842
1221,3526,-6632,1197,1670,-1789,-1274
1222,-1618,-6543,6140,-311,-1336,-1865
1223,2741,4824,-166,1597,-1057,-118
1224,1501,-3934,-5942,-894,-622,-1642
1225,1410,-7163,1414,1920,-1565,188
1226,3833,1641,-6204,1827,-725,-473
1227,6884,-3472,1576,437,1647,891
1228,7300,1701,-7922,-627,1528,-221
1229,-7170,2049,1231,779,1869,-1014
1230,3929,-3535,666,709,-1203,-1481
1231,-6722,-2030,1146,-915,206,-980
1232,-6734,-6034,-5986,-696,1782,1986
1233,5517,-4337,1448,186,692,1501
1234,-1272,6120,5821,-459,-114,1396
1235,-7004,-4919,4918,-1717,-792,1656
1236,6056,667,-7684,-348,-1564,-324
1237,5195,3631,-6368,128,1060,-1447
1238,3172,-7450,6857,1656,645,925
1239,-5138,3423,3407,826,906,-1518
1240,-5935,-3046,-1530,-1968,837,-284
1241,2874,4216,5344,1252,-1387,-1219
1242,5000,-1553,-7935,-1963,1224,8
1243,-2696,-5007,-6996,-1741,1830,-1267
1244,1494,5821,-3732,-1723,-711,-1253
1245,1712,-5561,-1536,-723,-1604,102
1246,3261,-3270,6646,-680,-978,-1224
1247,1399,3141,-3013,1786,-1098,292
1248,-7415,5499,1175,135,-1226,-1176
1249,5913,-4167,-837,1864,-1969,511
1250,2240,342,7712,-777,-44,1969
1251,-140,-3060,6975,1498,462,-146
1252,-824,-7722,-3509,1578,408,-394
1253,-3593,2657,3092,-1546,-358,180
1254,-5274,6218,2209,499,812,1728
1255,-4898,1049,-4125,880,262,-857
1256,-4559,-3970,537,-1495,640,-1254
1257,7256,-6153,4316,-287,9,24
1258,-1207,2477,5532,-1647,1668,1121
1259,-5787,7291,-4951,761,-1642,1574
1260,-7727,-4309,-6937,-1090,1915,-811
1261,-1518,-2061,-2726,-795,-210,-350
1262,6275,-2723,1803,297,-1106,168
1263,367,-2407,-7046,155,-91,889
1264,3014,-5502,4114,-1106,312,43
1265,-1311,-837,6978,1888,102,867
1266,-5683,-2309,-1673,-313,-1654,-1119
1267,-7178,1237,-4766,-405,-1470,565
1268,2980,7497,-6083,289,-1590,1339
1269,-964,4016,1884,1948,1325,-1871
1270,-4983,-7527,-6439,1533,-80,-1521
1271,-6295,-1139,-2268,-1722,1205,-936
1272,-4879,-5816,5665,797,-284,-830
1273,-6231,-4624,376,185,-1558,-1418
1274,-2785,-231,2586,-784,1693,-493
1275,-3764,6188,1154,-1571,390,-510
1276,7108,1810,2166,-1380,1935,1981
1277,5562,3347,5292,1430,1522,1490
1278,3141,-2941,-2579,-844,-1084,310
1279,6073,4390,3926,-502,748,-1655
1280,-2051,-7194,3011,-1123,-247,-1609
1281,-2525,5170,-184,721,-849,-1915
1282,1460,-3734,-3859,1846,1353,1609
1283,-7984,-1273,-1706,1430,-770,1882
1284,7139,-3777,-5054,297,1589,-100
1285,7143,-5924,-2268,739,375,-1987
1286,-2150,-3107,2795,697,-860,1951
1287,-798,5038,-7580,28,-612,1078
1288,-5757,4410,7473,1159,-811,1521
1289,2657,-1499,1758,156,810,-678
1290,749,-2240,-5216,1378,-362,-827
1291,-7613,-5932,-5018,-1183,-696,-150
1292,956,-1813,-4984,1295,-1571,1740
1293,2454,2918,-4742,1348,-782,-1599
1294,-3643,792,-4607,30,1566,1690
1295,-1443,-4224,-5798,800,-12,-53
1296,-144,97,-5343,-340,1593,623
1297,3747,4944,5926,-1387,1450,-987
1298,3108,-834,-7031,-1112,-1345,-260
1299,-3415,4467,-6115,-665,-432,-1799
1300,2737,-7001,-6393,333,-1459,1269
1301,-81,-7479,-2511,-1146,1875,80
1302,4377,1125,-4871,-677,1224,-1596
1303,4723,2499,-5382,-231,-579,282
1304,7296,1922,-2505,-78,229,-1770
1305,-2137,-5099,-4403,1982,1025,-1325
1306,-6157,-643,4481,-828,-543,-24
1307,4842,-3780,5905,-326,-1618,-156
1308,-2671,-5735,-2936,-977,1774,-1423
1309,-512,1471,74,420,1044,170
1310,2021,7582,-1174,1115,686,333
1311,5958,818,5898,-1010,-1222,1044
1312,-1774,996,-5657,373,1830,-956
1313,-2904,-4420,4715,1818,932,-1461
1314,163,-2230,94,-95,787,-599
1315,6645,-1827,1040,-1683,1066,92
1316,1281,3948,-5333,563,-1439,-1131
1317,5682,5436,-1825,731,-1627,771
1318,-4549,744,6684,1379,-143,-1114
1319,-6295,-3815,6121,473,377,-1610
1320,3723,-930,-6349,-1698,-786,1070
1321,-6796,-4918,-1074,-472,556,-1402
1322,2377,6903,-1664,-826,-1239,1846
1323,-1823,-4463,6422,771,-43,-334
1324,1977,1936,5862,-1556,759,-1879
1325,-3462,-5911,6613,-1351,-945,1279
1326,5606,1275,3885,1891,-1686,1428
1327,-7261,4685,841,-1897,1090,-1066
1328,3149,-6497,-2653,-1577,1735,-1506
1329,6964,3140,5399,-1089,687,449
1330,7311,1346,2617,1059,-1537,1316
1331,-4854,-3419,6233,380,942,1931
1332,4253,-2577,5092,171,-1916,-382
1333,-717,-3369,7450,-952,-662,918
1334,1100,3580,-1323,-1539,-1600,273
1335,5243,-6803,4727,36,993,785
1336,-1459,-5110,-1479,1077,-429,1595
1337,7352,-634,-373,437,957,-1032
1338,-7002,6255,-4669,248,813,1171
1339,4769,-5799,-127,-912,1057,-87
1340,2607,-4895,4978,270,-672,881
1341,-5283,-869,452,1005,-1031,1036
1342,3055,-243,-1545,-1752,-1142,339
1343,-2095,6199,-938,-795,-304,-1230
1344,521,-2261,2447,1593,1601,-316
1345,-1736,1708,1559,1072,-743,758
1346,-5057,-2166,6833,-291,1523,-441
1347,-3632,2373,-3098,-929,-1115,1734
1348,-3176,-5937,6537,1116,511,-270
1349,-6091,5007,-915,-1309,-355,536
1350,5331,3367,7084,-931,-43,880
1351,875,1672,-953,-1215,-1363,-1052
1352,622,-2075,2330,474,1745,-1032
1353,4957,5807,-3564,1556,30,870
1354,-5671,-5356,-2485,-1251,71,-827
1355,-5545,-7004,717,39,-880,60
1356,5024,-1584,6739,96,102,1246
1357,-4316,-4468,-4983,-756,-1599,457
1358,1699,2682,-4320,-115,999,-1051
1359,3352,-5219,-5096,-1518,1046,1054
1360,-2213,-6293,3600,-1863,1655,-277
1361,-7009,3173,-1693,859,207,1776
1362,-3904,-5525,-2918,-450,1764,991
1363,3515,2989,-5658,-1074,-865,-1247
1364,-7287,2940,3533,1715,-1347,-1568
1365,-3335,-3338,-6208,-962,-1544,1142
1366,-5958,2237,5618,-590,-73,-1454
1367,-5067,2400,985,1977,333,1986
1368,803,4732,2445,-1501,755,1326
1369,-5224,3345,5781,-6,1272,1282
1370,-1773,4699,-2552,-40,-166,-1153
1371,-2163,-744,48,1229,-193,-1736
1372,1036,1961,2914,1290,-1585,-1859
1373,-3375,7475,6329,-645,180,1983
1374,-5369,-2144,86,-736,1126,1352
1375,-7373,6687,-4805,-967,1163,-1775
1376,7131,-479,-6924,-46,-1883,1853
1377,-3554,-3391,-2428,-1165,-316,-742
1378,7540,4401,5303,151,-1021,1736
1379,5949,4967,302,1070,457,-1461
1380,-187,4774,383,366,-1849,1407
1381,-7826,7551,-4461,1224,1691,-197
1382,-7600,5764,-3160,-1820,1394,-1676
1383,-134,6102,901,-165,1692,-954
1384,-6692,-267,-3499,-1563,40,148
1385,3354,6594,6433,266,-759,-346
1386,4203,7526,4075,730,843,1543
1387,6619,2716,-6674,-294,-748,578
1388,3143,-1483,5267,-1653,1583,-1549
1389,-1848,-4034,7340,-1401,-1980,1566
1390,3857,5758,1606,613,-40,1240
1391,-6636,7899,-468,-1935,-1946,-926
1392,-4697,-3601,-7527,29,-687,22
1393,-3948,3065,-744,1416,1252,13
1394,7329,-3454,-1682,-1444,330,853
1395,-3418,2647,1167,-1991,-1060,978
1396,-2494,7068,-6842,583,1237,-377
1397,-2601,1655,5068,1804,831,-864
1398,-7853,3611,1190,491,-1744,-1366
1399,1299,-486,-93,-1133,-1561,-515
1400,-5713,5398,3501,-1218,95,-1880
1401,3049,-871,-4114,-1177,400,893
1402,-3644,-1258,-3893,-913,-1547,924
1403,-4874,-221,3232,-1106,376,-992
1404,-2428,-7592,-4866,-453,1670,1260
1405,-7413,-7920,2181,1253,-1861,-101
1406,-3785,5357,3384,844,1413,-1535
1407,5361,-1292,2372,-1260,-269,1946
1408,-3498,6441,-2627,-151,1454,-1726
1409,-5959,-976,6858,1497,-949,-1938
1410,1554,6063,1196,397,-1369,-18
1411,-3397,243,-6124,600,-559,-1827
1412,-4071,101,-3060,1984,480,69
1413,7716,-1085,4820,1509,822,147
1414,-1719,-3060,1610,115,-1555,-1522
1415,4215,-650,-2281,1813,-1056,-1394
1416,-5953,-2763,7357,250,-1982,-898
1417,-12,-5739,-3968,-396,1405,1964
1418,2754,142,-5142,-211,-214,1801
1419,4559,-197,-4174,-1903,799,-1027
1420,-82,831,-1840,1859,811,1905
1421,-2641,802,-2358,-1457,-1942,-1161
1422,5753,-369,-2411,-324,177,-1612
1423,-3618,1270,3848,946,1908,-250
1424,7321,535,-4014,-1544,-772,-776
1425,5971,2524,-2784,1408,1480,-1477
1426,7496,478,3095,-1494,1774,282
1427,569,-5894,-2752,1688,42,1170
1428,4789,319,-2561,418,1590,1911
1429,76,5189,1229,-1264,-128,223
1430,-7440,-1486,1577,1383,-1834,-1146
1431,6394,7623,5393,-358,-140,1731
1432,1465,-6918,-7472,-1981,1438,-115
1433,-6887,4482,4618,396,-80,375
1434,-3776,-3256,5152,1886,-1529,-1766
1435,1326,-3458,1562,-1163,320,1708
1436,-4233,-963,2637,-1201,-1692,1235
1437,1990,7674,-6160,256,-1634,408
1438,3883,5250,6156,1667,50,-1694
1439,-4700,4992,-4804,-1503,1268,-1336
1440,3408,1365,-3809,1077,1243,119
1441,7969,3733,6842,-655,21,592
1442,3911,-3363,-3248,892,947,-1856
1443,2645,-1064,-877,-1669,-650,705
1444,-1457,-7723,-4073,-166,1017,-897
1445,-4582,-6819,-7205,1104,-629,-960
1446,2157,7700,-7852,487,-987,-1561
1447,5967,7864,7954,-168,1599,909
1448,1639,6899,22,498,1899,-1148
1449,9,-5355,-2466,926,1052,-786
1450,5183,-5620,-2168,-1307,611,-1246
1451,-4619,-526,-629,1870,514,-1089
1452,5797,5498,-5063,1352,946,-771
1453,7539,6111,-739,-778,1459,1355
1454,-136,-5764,4634,-600,-567,-1270
1455,3347,4180,6620,1924,1701,408
1456,-5633,-5645,-5479,1804,-804,-1806
1457,-5214,5967,3463,-728,-1886,-530
1458,1534,-5479,-3269,688,-1332,21
1459,-2030,-7980,-886,-619,-1656,648
1460,1473,-1029,4533,-216,-1904,477
1461,-1731,-4544,4387,-309,-1534,-461
1462,-7256,583,1965,411,-1476,1477
1463,5546,2074,-1540,1351,-510,1901
1464,-3479,-1706,-7346,-229,1321,183
1465,7588,-6608,4396,-1501,1724,-1637
1466,4939,2800,-5663,490,1851,-1137
1467,648,2186,4092,753,1198,-1204
1468,4539,46,1918,-899,-406,-1247
1469,1082,6996,6587,1010,243,71
1470,-5067,6145,-3169,68,-370,-206
1471,4228,5811,464,1167,1720,1476
1472,-5248,-935,-4735,1634,-644,-1799
1473,-5784,-7820,178,1184,-1698,848
1474,-2193,2823,7186,1008,500,346
1475,-170,-2050,1759,-1830,886,-1787
1476,6430,-2899,-117,1803,1511,-681
1477,-388,287,4505,-120,-1723,964
1478,-375,1977,2996,-1955,500,1367
1479,-6913,4324,2630,-1442,345,1778
1480,-6716,4786,-5186,378,1765,-1221
1481,-2619,-7653,-4973,1003,1982,1900
1482,-4784,6345,7898,1981,722,-1520
1483,-714,5094,4713,1034,-640,-1653
1484,-2069,-1641,7832,1460,555,-302
1485,-470,-2635,1274,-1448,810,1097
1486,2423,4171,-4803,538,-1048,-1947
1487,7939,-5075,-2102,-171,-923,-1545
1488,2429,-1358,-63,1106,-576,-1456
1489,-4212,3649,-1167,1028,-1980,-345
1490,314,-5709,2277,1092,-1869,-1045
1491,-6198,5443,-357,812,-921,-68
1492,-7493,-7384,6198,1460,-689,-501
1493,4113,6029,347,239,984,-1102
1494,-7973,-3878,5041,1168,1472,-1361
1495,6071,-7910,-370,259,-562,750
1496,-2413,-2596,7641,194,1276,-1947
1497,-6937,5169,7265,-295,-1587,1885
1498,-2709,-2701,7048,-1613,-1450,-1641
1499,-1651,-4531,6134,-334,-892,1016
1500,6660,4183,6914,-1117,1619,-851
1501,4541,6631,6452,1077,-1055,942
1502,6184,3051,6299,-875,1274,-1513
1503,-3114,5856,5385,-1566,-1287,-1570
1504,767,-4240,-6989,1110,1752,-1878
1505,-7171,-3188,3871,389,-1631,1324
1506,7619,7308,3566,1837,1017,-1182
1507,-4675,6837,-2142,-87,231,1376
1508,5532,5992,-7436,-622,1805,496
1509,3411,7550,727,1679,-999,1572
1510,-2117,687,673,-1982,-1312,-1119
1511,-7448,-705,3257,1400,242,-1086
1512,-4956,-5664,344,605,1724,-1041
1513,-3108,5653,704,-1132,-212,-1557
1514,-3334,4913,-7236,-1715,1005,-388
1515,4233,-6827,594,1026,-1205,857
1516,7826,4890,-3243,-965,1521,301
1517,-1534,-4797,6242,-935,-1859,453
1518,70,-699,7659,821,1140,955
1519,-7689,1079,3368,412,54,-1858
1520,3503,4503,6729,289,1805,794
1521,7580,6685,7058,-1392,-1330,1950
1522,-3986,-3013,1906,-1806,-1610,741
1523,-42,5259,-4558,-140,-999,92
1524,-5858,7332,705,698,916,-215
1525,-4045,-262,-2522,-846,-1592,562
1526,-1661,1769,3752,1802,1416,-947
1527,3440,6952,5160,-1252,1522,781
1528,-4967,1496,-4341,1550,-766,1977
1529,-7094,1115,-7694,982,368,436
1530,-4451,1370,-7147,1714,-737,-505
1531,-7043,2652,-7850,202,-1587,-569
1532,780,-4841,-593,366,946,544
1533,1133,-2481,4013,27,-8,-1806
1534,-4520,-1829,-2752,659,582,-1669
1535,1010,-6404,-738,-977,1856,-1364
1536,-2614,-6449,-1727,-104,-423,-374
1537,2276,-4539,7013,-1473,50,649
1538,2183,-6008,5555,-1001,1232,-1234
1539,-4131,-3950,-4236,-1502,-516,1756
1540,6699,-1008,-3375,466,139,-1906
1541,-5106,-2221,-2706,-1920,-1961,588
1542,5267,-4980,5033,-115,-1606,-1983
1543,7433,4933,-6400,1843,262,-1392
1544,-229,-4389,-436,-1528,-1594,-63
1545,2015,3096,7304,1340,567,1641
1546,-7360,-4709,-1757,-1354,1711,282
1547,-7124,131,4358,-483,156,-1423
1548,-1633,-167,5057,564,361,-105
1549,-6367,7459,-5037,134,1664,1932
1550,-5429,3362,4857,-1992,1230,-1760
1551,-2502,306,136,-718,495,-1202
1552,-1396,-4404,-385,-1464,-745,494
1553,1693,7046,-6351,1803,-14,-831
1554,6267,5872,4000,-861,1385,-1560
1555,-3387,-4124,2422,-297,1938,1128
1556,-5757,728,-1714,-739,-1958,740
1557,-2858,-7914,-6183,-1330,678,595
1558,-3146,2887,4266,-216,-1995,-813
1559,6491,-6056,2017,1354,-983,-1786
1560,-7082,-675,-4682,-665,-749,-1943
1561,-2495,-7678,-7316,-189,-45,786
1562,-2568,-7616,7382,96,1031,720
1563,-6708,6585,1637,708,806,546
1564,-1001,7933,-6141,1023,-1509,-920
1565,-7500,-262,-4285,-848,-940,-954
1566,5251,-6558,3599,-1972,1967,1697
1567,2547,5609,-3051,-188,-1086,-1239
1568,-7456,7212,-7839,836,1084,1371
1569,-4376,-7991,7429,-1201,-1521,-1495
1570,-4865,2539,-5228,-1538,-113,418
1571,-4378,3106,-1963,-1457,-1064,-1676
1572,5957,-597,-1907,-1592,-202,-1040
1573,-7129,-3228,1974,-509,253,-1049
1574,-3868,-4453,1293,-433,-246,-1500
1575,3378,7979,4651,-225,-583,-1890
1576,542,-5328,6461,366,-1422,-1010
1577,-6551,-6030,4361,-683,831,364
1578,-6089,-2587,6328,1253,662,771
1579,-5869,-3683,4131,-726,653,-359
1580,-5456,4130,-2259,-1509,-1598,1151
1581,-6070,-7142,1531,1655,686,1554
1582,4508,-4463,-7198,-998,764,-1435
1583,3434,-2247,5462,1098,1111,790
1584,-3078,7486,-1584,1265,287,377
1585,4078,-2757,1020,-981,-1533,343
1586,-6031,926,-3485,1191,-380,206
1587,-6731,-7680,2711,1218,1227,-884
1588,-1530,3231,1012,-1079,1725,755
1589,306,5684,-2021,509,1812,1838
1590,3924,-5064,6702,-1296,613,903
1591,-7457,-1936,2287,-361,1190,1200
1592,6375,-5135,-6301,1771,-1513,-1704
1593,6013,7921,-4919,-1030,-397,1899
1594,1731,-604,-1148,1131,-1712,231
1595,-785,883,-2739,631,-784,1569
1596,1923,2181,5134,-959,1400,-22
1597,4560,-2857,-3895,1329,-706,-597
1598,-13,7433,-810,-846,1192,736
1599,-2570,-7665,-3456,1441,697,1806
1600,-451,-4612,-242,1923,1625,-490
1601,7573,-6666,-961,-523,1789,-438
1602,-209,908,7457,907,321,1857
1603,7675,2135,-5028,1970,559,-216
1604,5926,-7674,5824,-1453,121,601
1605,-1369,-5380,1159,983,1410,-937
1606,680,-4309,7096,315,-66,1390
1607,-1589,-1058,-5530,-805,-1417,-207
1608,-579,-6427,-2987,1867,-891,-1021
1609,-3824,-1857,3374,-892,-1190,-1567
1610,-7366,-4827,1427,203,1385,-1365
1611,-3236,1407,-2341,-77,-994,1230
1612,2761,5455,-6620,-1072,-274,-1811
1613,6713,2143,-3670,-696,-1822,-1776
1614,-487,-5194,3435,1581,744,-1576
1615,7235,-4447,6715,843,55,-351
1616,-258,-7089,-6731,1404,-674,624
1617,-1554,1622,-6388,1623,-620,1226
1618,2839,-7837,6360,308,-1677,981
1619,-129,-1922,-1818,-1032,1162,-648
1620,-1253,7673,-6235,-929,-21,-1185
1621,350,-3451,1458,-1401,1634,-1520
1622,-7064,-3265,-7046,-878,73,891
1623,-1788,-1158,-117,-1823,759,-1701
1624,5466,-3227,-7149,-526,-386,853
1625,3810,2026,-3665,277,1093,775
1626,2414,-635,-2814,605,1884,672
1627,6799,5052,-823,-1352,1116,1696
1628,7440,-3876,-623,-1944,1140,-512
1629,-5237,5582,2027,614,71,1669
1630,7139,7667,-1453,875,-62,1438
1631,-7749,2316,3249,-1712,1763,932
1632,6541,-1227,-3339,1833,-1381,127
1633,-6278,3521,4000,-1165,-1449,-348
1634,-2527,-4159,3662,872,-513,1635
1635,-4276,-1043,1273,719,-811,-1917
1636,-4,1622,-1896,-264,-1013,1339
1637,-5938,-999,1573,1658,-1570,445
1638,-483,-512,3764,1714,1881,1583
1639,485,-6571,4527,1294,792,734
1640,-3260,6515,-1519,-867,-1352,-1029
1641,-5753,2368,1367,124,-72,576
1642,-830,2223,7463,1774,132,-1299
1643,-6035,-6649,-6825,276,1975,326
1644,-6112,-5152,-2453,167,-15,-1568
1645,4283,4242,-7509,412,-92,1583
1646,4071,7954,-2096,1068,-4,1314
1647,-6671,-6774,3411,-1967,672,520
1648,-3389,1016,6549,-1172,1726,1306
1649,3277,4793,-6497,697,1028,-1441
1650,890,-5189,7833,1275,1645,407
1651,5271,-1129,-4454,1339,629,717
1652,1122,5703,7973,-791,537,-1956
1653,-5387,555,726,1313,502,1671
1654,-7539,-164,4430,-1649,893,117
1655,-748,4303,6692,-709,669,-458
1656,1843,-2701,7525,-484,-1807,-691
1657,17,3131,-848,1008,1003,-275
1658,-3455,-6384,7997,1240,-1361,1250
1659,3335,2012,-4421,-1619,-573,1562
1660,-4864,6463,-1299,125,-1830,-1523
1661,-2906,6308,-2886,-104,229,-691
1662,-5407,2326,89,-101,911,-999
1663,328,-3397,6502,-895,-683,1395
1664,-5884,3138,-1674,650,140,-1961
1665,2530,4243,3696,1195,243,-144
1666,5120,295,-3353,650,1157,932
1667,-4052,-6994,-5042,472,667,1686
1668,7961,-2299,-6258,-574,1975,-495
1669,-7977,4795,-5949,1304,-752,-1147
1670,-100,-2152,327,577,-1049,-337
1671,-5060,-575,2649,-1025,170,-1579
1672,6722,5616,-2457,519,-1214,1674
1673,7793,-3543,3612,1760,-260,1684
1674,-4757,-3325,-2949,1755,795,1733
1675,5981,541,6330,-1882,-1173,-1545
1676,-7617,924,-7552,-1545,-7,-1503
1677,3863,3521,-1506,-183,1872,-1820
1678,-7363,-1342,4702,-939,1681,-1607
1679,-6553,2628,7598,1459,706,-322
1680,1929,-4533,2453,344,1584,1035
1681,7980,7049,-5005,866,285,-1991
1682,-3835,-3566,1594,736,-212,1891
1683,-865,4693,-7130,-1735,-1445,-320
1684,-4107,6977,-4253,-2000,1641,-529
1685,-3792,-1819,5315,-1134,-1161,64
1686,2819,7726,-4472,1826,-1113,1716
1687,3379,-2472,-26,390,-1893,68
1688,6677,3938,48,-1338,1772,1661
1689,-4268,-7240,1759,1203,974,-923
1690,-4549,1558,5314,1866,140,-454
1691,7887,-2914,4688,1460,415,-65
1692,-560,7199,6755,969,-1718,186
1693,2438,-7649,-6391,393,283,-176
1694,573,-6008,7636,-295,882,-1034
1695,-5333,-6173,926,1754,739,1656
1696,-2205,-7746,3944,1899,502,938
1697,-5365,-1349,-1274,-1476,-1163,-1316
1698,1009,4877,-2580,-1938,1415,-1618
1699,-6096,3436,5922,304,1942,839
1700,-2022,2236,-1201,1722,-1321,-1493
1701,-2070,6338,6760,222,-796,-1960
1702,108,-3183,-6059,113,-467,-1204
1703,4484,3629,-894,1874,1996,-599
1704,61,6147,3772,-472,1937,551
1705,-3693,-260,467,530,1794,-1039
1706,-3152,7461,-6050,-1707,1499,466
1707,4211,2056,-6992,-1742,-495,1589
1708,6414,301,2670,-1404,-1523,-1719
1709,-3987,-2787,-376,-420,-132,1537
1710,560,7585,-210,-711,1255,-755
1711,-7753,3909,-3450,-1455,1299,-1390
1712,6467,1887,-2831,-35,-1417,1719
1713,2898,-763,1442,1887,992,-1045
1714,7428,7131,4438,1104,417,-1580
1715,-7163,3451,7835,-955,909,-1054
1716,252,5786,6593,1847,95,1539
1717,-7015,4213,-451,76,-1189,233
1718,5568,5799,3971,697,239,-1816
1719,-3758,7256,-5713,-601,-1907,-135
1720,-6711,-3037,-1,-254,-462,1338
1721,4189,-6386,2004,1909,631,1138
1722,4281,7943,-5754,-1482,233,-585
1723,-6144,-3702,2743,-1695,29,1409
1724,2379,1812,-6235,-1562,1552,-1725
1725,6509,3260,6397,241,871,-158
1726,6423,-4766,1131,231,478,-397
1727,1912,5258,-6286,-846,1594,-62
1728,3261,5722,-3629,-1155,1614,-679
1729,-511,926,4353,1411,-433,-372
1730,-5193,-294,4641,1734,1457,1165
1731,7433,7860,-6197,-380,1092,-307
1732,517,7761,-2315,659,182,705
1733,-4943,5752,-5668,-1366,-135,955
1734,-3061,-2579,7987,-549,240,-1250
1735,7672,3460,1341,1851,-1757,-1447
1736,2058,2550,119,1464,-1604,1428
1737,-2410,891,-136,697,-262,-741
1738,6754,-1572,6925,-265,432,1075
1739,928,3006,4397,-7,180,1834
1740,3045,-2285,-1289,-1012,200,1964
1741,-99,-1628,-7256,-871,-1189,-251
1742,7157,4836,-7043,1571,-1277,1891
1743,6808,1020,4459,-850,1389,1211
1744,2814,4796,4568,1613,1217,-883
1745,-2883,-1426,2865,-896,-851,-22
1746,7909,-1832,3573,1598,1197,-1481
1747,-5776,-1827,5102,-718,812,-1184
1748,6235,7331,6288,-406,1461,26
1749,-1945,-2856,3431,-1556,1556,-1959
1750,-3653,-5376,-626,-1135,568,543
1751,-278,6152,-7333,891,782,226
1752,-7337,-6648,-5182,1482,-626,-828
1753,5421,-6523,-4676,1636,-1206,1370
1754,-1417,2347,5033,1755,-544,-472
1755,-7538,4129,-6525,545,-1710,370
1756,1010,4086,-4071,-1371,583,-1894
1757,4685,-4877,-3294,-629,-1526,-701
1758,7304,-1674,5404,-241,-858,-807
1759,6330,-2825,-5116,313,-758,-921
1760,4933,-7674,6228,657,-205,-426
1761,2634,4286,6210,696,-1886,1421
1762,3599,-2747,2996,399,-293,-1057
1763,-1896,2474,-1485,415,-184,314
1764,7044,-3370,-1580,-1546,1581,1864
1765,2981,7096,-1142,1426,1910,-1165
1766,4553,-5248,5458,347,-1518,1519
1767,-2960,-7144,3997,1677,55,1626
1768,-3926,-572,2431,908,1923,984
1769,4200,-6279,-3819,-1354,-297,320
1770,-6346,-5728,3331,-729,325,1324
1771,2771,-6336,7093,-1260,-1371,-863
1772,-7032,2074,7956,1064,1605,-1074
1773,5381,614,7300,1754,344,-1839
1774,2151,416,-3401,1273,-693,-1478
1775,-2409,-7092,4067,418,1715,-751
1776,-5081,3563,5654,-1946,716,545
1777,3006,-583,-4412,-471,-554,1052
1778,-5645,4143,1999,-1436,-623,290
1779,461,4866,-6293,-1134,-692,-1355
1780,-3040,-3457,5871,-487,357,1243
1781,5671,5707,-3877,388,1757,1637
1782,-7234,-370,-1631,-159,-286,-1123
1783,-3649,-6499,-7746,1591,-1638,-781
1784,1664,-4030,1932,-245,845,499
1785,-1030,-7568,-3045,1906,-1663,-1900
1786,-6596,-3892,3948,-1948,82,-1594
1787,4919,-6725,4721,1514,66,1979
1788,2203,5344,-3114,1142,378,1598
1789,-7929,-624,-1194,-651,-623,-1750
1790,-78,-7469,-3044,-1398,453,-1411
1791,-3109,3424,-7507,1578,730,-191
1792,-1724,7133,2568,1799,-1508,-1629
1793,7780,-7621,3591,342,949,-1190
1794,826,1630,1622,1858,1869,1715
1795,5019,5180,7960,-199,1567,1152
1796,4689,4921,-6621,-3,-46,-32
1797,2051,4248,4041,-1867,1999,443
1798,-3462,-7989,-4481,1220,1990,897
1799,2321,1687,2698,-1282,518,-1792
1800,3117,-3781,-6083,-538,-773,-1772
1801,6111,-6134,4901,209,1573,-507
1802,4341,-1708,-5859,-875,-498,-541
1803,-2975,6657,-387,1922,-1660,-1198
1804,-784,-7205,5948,-223,-1920,1348
1805,4040,-2893,2296,41,420,-576
1806,-7466,-6970,5973,-607,-178,729
1807,-3157,3981,-5791,-341,1938,607
1808,-3694,6869,43,274,-1401,1919
1809,-1163,2825,-1643,-787,-757,1359
1810,-4770,4487,1243,-1469,-1533,252
1811,-69,-4263,4459,1666,586,-1762
1812,-6327,2383,-2353,1032,-1051,212
1813,-2927,2418,-3579,-1128,-1686,1158
1814,5651,-3809,4485,1163,973,1237
1815,1300,500,1329,-1189,1078,1091
1816,-1582,-1240,-7882,1514,24,-1317
1817,-1551,-6626,7368,-1136,1096,322
1818,-4096,7686,6625,428,-1763,-270
1819,-5573,-2010,6081,1757,619,1775
1820,-7051,1828,-2317,1363,792,-195
1821,-3683,1710,7897,-1719,-1382,1246
1822,-4751,-6110,-841,-1781,-146,1852
1823,4828,-5241,2768,-811,1080,-197
1824,829,3041,5188,809,-1879,813
1825,-2043,1839,-3289,1363,3,631
1826,-568,4798,2223,-1320,-1687,1896
1827,-4584,-216,6732,-892,-900,1245
1828,-7460,4939,-3997,1194,774,-1278
1829,-4286,5995,6411,1768,1859,54
1830,6253,1361,3352,-1695,-1365,1497
1831,-3596,-2569,-4529,-660,-522,1240
1832,-6986,-2612,4985,-1792,-1724,1552
1833,981,3614,-764,1250,1849,1988
1834,-4984,-529,7526,-335,-1216,1115
1835,-6492,6144,6682,-405,-1809,217
1836,5164,1715,-6544,877,102,-1947
1837,105,-6461,-7597,-654,-402,528
1838,1985,6632,3565,-1457,-699,-1569
1839,-5056,402,6700,-596,-264,-757
1840,-2,-259,3957,-239,-1661,1241
1841,4875,-4858,-3171,1428,-827,295
1842,3620,7022,1329,-454,1069,1221
1843,-5414,-6318,-3614,812,1986,-153
1844,6789,-5893,5188,-1712,-1506,558
1845,-5753,159,4031,-1443,584,-826
1846,58,7604,6485,-1481,-1261,1566
1847,-494,4132,6353,925,175,1173
1848,-4423,-2726,6405,1316,1381,1814
1849,3125,-6874,-4895,1643,1111,-1987
1850,5208,-2081,3208,934,-825,1578
1851,-6538,-3261,4082,-1655,-181,898
1852,325,-2533,-790,-1660,1157,-1112
1853,-4372,435,-5331,1775,291,1169
1854,-4770,-3958,-5213,1343,-467,1795
1855,3019,732,-7599,262,89,-430
1856,-4911,1491,-6171,-749,791,-897
1857,645,3289,-5668,691,-1579,916
1858,-89,4176,-6369,-702,22,1306
1859,7090,3222,6683,-280,-1990,528
1860,-3232,2159,493,-827,1862,764
1861,-7537,3903,-5487,-1401,706,1647
1862,7909,-6589,1498,-1237,973,-876
1863,-812,5738,4017,-973,796,1354
1864,-7179,-1745,7913,-1761,462,-931
1865,-4564,5088,-1726,891,1658,-1163
1866,-6207,3624,2904,895,-1209,175
1867,-1629,3449,-2348,-1005,1675,-759
1868,1291,3722,1425,1148,198,-370
1869,-2610,-3462,4679,1462,-1345,-1208
1870,-1317,-6161,1214,1567,538,151
1871,7125,-5871,2601,901,633,-1026
1872,3267,7408,2726,1791,1225,589
1873,-5979,-3822,-4487,-785,800,711
1874,-660,4884,3956,-1698,1035,849
1875,2885,-3181,5235,-433,-1435,818
1876,4523,4664,365,-1418,955,-1810
1877,1386,-7698,2731,-1161,1269,-1090
1878,-5654,7774,2879,-915,1838,-129
1879,-3516,5395,-4946,1138,790,-824
1880,-6760,-2852,-1592,949,1673,-1698
1881,-3150,-5323,733,-1772,1874,657
1882,2388,-2180,-774,1447,1831,901
1883,5734,1546,-6696,-1299,1680,1637
1884,-122,1396,4649,-1839,-466,202
1885,-5435,-4168,-1519,917,-643,708
1886,6087,1566,6379,1886,675,-329
1887,-6164,7942,-1005,-1009,1551,1578
1888,-6118,-6344,756,843,630,-287
1889,5398,-4084,3281,-829,1192,-927
1890,-4877,5168,-3982,-1879,314,1460
1891,3162,1960,4117,1401,-899,-743
1892,2588,7095,-7565,1433,-1237,-921
1893,-1172,-2463,3151,546,-924,1278
1894,1371,-278,5355,1596,-680,-1729
1895,-2534,-4734,-2058,-285,1229,1186
1896,6599,591,7096,862,100,1589
1897,-1753,-6668,-6452,415,1363,1426
1898,5416,-6528,2778,1064,-1264,-797
1899,4842,7545,-7445,698,-349,757
1900,-6889,3739,3648,-629,-545,1265
1901,-887,-6026,7462,-1536,785,-1665
1902,-7560,3572,-899,1807,1464,-1509
1903,605,-5305,-7464,964,1465,1415
1904,2404,2432,7116,-1551,1864,-713
1905,5441,4057,-960,-1284,1601,-948
1906,-1647,7268,-4033,-568,368,-849
1907,732,-7616,3160,-1072,1236,-909
1908,2106,-6269,-7401,26,614,665
1909,4640,5439,-1181,109,1189,349
1910,4632,2116,460,-1222,802,1173
1911,359,-5945,3945,1907,-2,-1375
1912,-1141,2000,6250,578,1835,156
1913,284,-1942,3600,-996,-444,880
1914,4151,162,-3970,649,-1170,52
1915,-1412,-2314,2815,-47,477,-1184
1916,-506,1310,-3212,1887,689,1643
1917,3950,-4672,6269,-1947,-326,1176
1918,-3128,-528,-5579,1536,-1300,-808
1919,-749,-4912,107,1771,-1846,-857
1920,4368,-5885,7599,-1490,1039,1842
1921,-5835,6273,5438,584,-1412,-1368
1922,3824,7155,-3270,879,113,-306
1923,606,7440,2833,161,-760,-44
1924,-3445,5259,-5625,-1274,1706,-1079
1925,-1992,6023,-5219,-579,-76,96
1926,897,-4678,5962,-464,305,-304
1927,2412,-4503,-4803,950,-205,1386
1928,-7409,-3241,-3156,-1613,783,871
1929,-7855,-6778,6788,643,-372,870
1930,-3273,1614,2455,1641,1016,-1758
1931,5974,4524,-6965,-1502,1229,-179
1932,-5061,-1676,3550,-1622,788,-878
1933,-315,-655,472,-827,546,-390
1934,1934,7206,1092,-882,1448,51
1935,2338,-221,3067,-199,103,1918
1936,3919,-4435,6737,1647,-10,1644
1937,5172,266,4455,594,-1773,1817
1938,7644,-2423,-7762,590,-359,453
1939,-4276,-784,-4364,-1259,-594,-729
1940,4316,7136,6749,848,1159,-1837
1941,7612,353,-2000,1669,-866,765
1942,-340,6834,-6929,-496,-246,-847
1943,-3872,-2489,-4746,91,996,934
1944,637,2384,-5722,1629,-1233,-293
1945,-2569,-4917,-679,-688,-817,1537
1946,-6464,6522,-4636,-125,367,1993
1947,1801,3815,2671,-820,-1410,1567
1948,-5837,5602,7890,1415,-651,-43
1949,-3654,-3423,-4119,1940,392,788
1950,-5334,-5306,530,-210,1397,-1844
1951,-7248,343,6517,1646,500,721
1952,4958,-6708,3511,-1134,145,867
1953,7478,-3787,7790,-1878,-200,869
1954,7811,-3057,2728,-1730,-1178,296
1955,-4293,-1721,-5361,-1361,-1805,513
1956,5851,-7564,6441,-1173,-31,-1390
1957,5485,7883,-6101,1308,-419,-1611
1958,7161,2628,-1992,809,-890,-335
1959,5550,-1476,5453,-795,-1352,1578
1960,25,5105,3387,-733,-1309,822
1961,-6129,21,-3267,-1124,1282,-1017
1962,793,-5653,1441,-1405,-8,1613
1963,-5543,3604,4744,-1312,-809,878
1964,1474,5336,-7333,1355,-960,889
1965,6654,-453,-4294,-162,-1519,-1589
1966,-6715,-1445,1436,928,410,-138
1967,-3644,-702,6260,1912,-481,-695
1968,-3840,3592,3762,-193,1421,-954
1969,4982,5859,-7884,1845,-95,17
1970,-599,-3196,-3114,1845,1827,1757
1971,3587,3270,5596,-643,-519,-1509
1972,-7406,4549,-1269,1995,645,300
1973,3694,-4112,-3310,1543,1897,-512
1974,7681,-3612,-5691,-163,116,1809
1975,7694,6461,3630,-921,526,-992
1976,2653,444,6865,849,822,-1639
1977,-4596,-4816,4761,317,-223,110
1978,-30,-3580,-3459,-773,-857,-205
1979,170,-4866,898,-997,927,406
1980,-5716,-1932,-6035,-1858,-1341,1933
1981,-1273,1998,-1407,1935,-508,-1091
1982,2206,1787,5635,1977,-827,-1141
1983,423,-977,1918,971,-1496,-1864
1984,4728,6912,-7385,975,-1397,-884
1985,-1458,-1483,5055,-1973,-1608,338
1986,-3209,4375,-5997,-1869,-1522,1070
1987,4567,6943,7256,-455,-213,-34
1988,-4361,6805,-1916,1923,189,-1588
1989,6140,-6201,-4075,-509,-1044,143
1990,-3963,-5278,-5611,-1152,483,-1448
1991,-1980,4216,-1375,1060,-1025,677
1992,4533,-3964,-5874,206,1680,1066
1993,118,-3685,-1237,1910,-1014,822
1994,-882,53,7240,969,1404,1169
1995,-951,5062,-2474,356,293,1025
1996,1038,3263,-665,-114,1718,-536
1997,-2861,4373,-3501,1019,1206,184
1998,2162,-588,-3341,734,-338,1864
1999,-7839,3228,-516,1194,1721,587
2000,-2771,-362,3121,-238,932,-792
2001,2254,-7864,-4520,1883,-1804,1260
2002,5032,7156,-2734,1190,883,-1195
2003,-7849,2691,7303,1937,-437,-912
2004,-4219,-7999,-6933,-1846,-893,291
2005,-6473,268,-2468,741,1384,-347
2006,4749,5247,91,1854,-1708,-193
2007,5789,-5050,-3676,-1617,-1565,-799
2008,3455,3222,-4091,754,1894,-894
2009,2076,-7849,3976,-1683,-647,1725
2010,-6572,3259,6990,1965,483,-240
2011,-5053,-7349,-28,67,1890,-632
2012,-253,685,-7008,-111,-979,-1522
2013,-4538,-6179,2993,-437,1595,-32
2014,-3298,-4108,-4890,1506,1198,1446
2015,-4382,3064,-2815,288,-19,-22
2016,1934,-2950,2786,-736,-1469,1917
2017,-6741,2785,1702,1004,-1005,-1005
2018,-2977,-4063,-5657,-1293,-1479,-195
2019,-3560,-2868,3601,1273,-1315,-768
2020,-964,-735,-5998,-920,-404,1763
2021,-1357,6048,4505,432,-1779,1219
2022,-61,597,-7403,703,-791,429
2023,-835,-1651,6839,-271,11,-1048
2024,834,611,4832,-1442,675,1776
2025,3905,3701,-485,-1374,-991,-141
2026,7983,3825,5041,596,-1202,-1888
2027,2304,159,-5583,-1982,-1111,1173
2028,-7633,-6569,-4688,-1874,1625,1792
2029,-627,7383,44,122,-1200,-1460
2030,7199,6128,-5910,-573,443,-498
2031,-2411,-786,6332,-1277,901,1093
2032,6549,-1181,7425,-1382,-804,-1543
2033,-2086,3918,3763,1657,295,-1849
2034,6977,6911,4482,-792,-787,600
2035,-7254,369,-4599,1906,1593,114
2036,7002,4837,2567,112,-1656,-87
2037,7785,-5919,-7757,613,-678,1797
2038,-2722,-5170,5958,536,1644,-1995
2039,7114,-7848,-928,-465,-1565,-1312
2040,-5776,3896,154,-1716,330,-1829
2041,-6218,-5393,-6232,540,-236,1996
2042,-3288,-4618,3387,-1246,1106,905
2043,-4751,3436,-1372,-268,1709,-1097
2044,-2692,-5218,4329,1645,-1537,-331
2045,-7723,-4008,4404,646,-1668,-300
2046,-3397,-5981,-2423,-112,-1711,-540
2047,4817,-6117,2291,-1668,-179,-122
2048,5240,2991,-4378,283,-539,-1632
2049,1528,747,-7008,27,574,97
2050,3953,-6549,-4821,893,-903,459
2051,7402,5492,-1237,-283,1575,1410
2052,6197,-2261,1609,1296,1958,954
2053,6562,5412,160,555,978,1056
2054,7449,-2257,-4169,-530,-1563,-1941
2055,6457,347,-7494,468,-707,-768
2056,-2540,3632,-2543,1593,433,-353
2057,-7177,-2604,3353,1838,-1251,-1521
2058,3500,-37,-5083,-956,1789,789
2059,-3372,-4222,530,1269,-1679,1184
2060,-2786,-442,-3567,1963,212,1682
2061,7068,207,7021,1909,1496,850
2062,-3909,1176,-3657,-451,1272,1863
2063,-4678,-3043,-5933,-1093,873,53
2064,-6742,-6532,2927,1964,-406,-291
2065,214,-1208,5629,-651,-815,-852
2066,-7437,-478,4954,-1739,1268,-170
2067,-2238,-4944,4007,1840,-1144,438
2068,424,5909,-3598,-638,-1985,-76
2069,-3199,-1717,-5115,-787,-650,-1518
2070,-4533,-6860,2182,1795,-1629,-1698
2071,1558,5060,7487,1653,91,-1506
2072,-2272,1694,-3621,-555,730,364
2073,-2401,7982,7049,1020,1218,1569
2074,-2532,364,4680,1161,-776,-69
2075,-2029,2179,2170,227,16,616
2076,-1899,5117,3234,-1693,1513,1599
2077,-3149,1215,-2182,-1615,-615,-2
2078,3133,-4277,391,-1983,-1229,-1307
2079,6902,4746,-7319,-202,1110,452
2080,7834,-5580,-6248,-933,-1708,95
2081,-1538,-2411,6570,-1030,1664,-1640
2082,-3812,1052,-1921,-1181,395,396
2083,-485,7297,-223,-1216,-750,-81
2084,961,-2242,2915,-1087,-1306,-1426
2085,-6205,5404,4224,479,-337,-1722
2086,3844,-5762,3353,539,-1076,390
2087,3983,5321,-6195,-1311,1942,-1884
2088,2191,5149,5558,-775,1156,811
2089,4514,-3531,2261,-677,807,23
2090,3027,5568,-3156,5,-1101,837
2091,-350,6032,-918,-1232,464,760
2092,-7365,5470,-474,1508,1301,264
2093,6130,-6419,3988,1492,95,840
2094,-5686,-7046,-516,-1380,1127,1402
2095,-5142,-2852,3070,-552,738,1463
2096,2982,5029,-2195,-1388,-1711,1848
2097,4436,2253,-7008,-1750,-1017,-835
2098,-1006,1036,-1044,1615,1253,930
2099,-3834,1569,-2946,-1201,-1553,-83
2100,4591,-3637,-5715,1716,-166,-110
2101,3122,3451,2096,406,946,1928
2102,3339,4860,-6359,252,408,-877
2103,6656,3429,-3798,403,-1978,1074
2104,-5654,-152,-386,-620,-331,215
2105,3385,-325,134,305,962,-1581
2106,-4463,-949,-6250,1851,-494,-1267
2107,-7793,1032,-3476,1419,-90,744
2108,1868,-4428,1343,-267,-1248,949
2109,-2155,-7655,2473,325,78,-1784
2110,-437,-143,-1261,-177,1460,-1601
2111,4396,6518,-4810,-598,1964,266
2112,-7543,6275,7321,-914,1525,1652
2113,-3937,272,3929,-1943,-1308,704
2114,6717,5455,-7100,912,-444,999
2115,-7685,-7193,-2922,1466,-1735,874
2116,6648,415,-1095,1928,-1897,-1269
2117,-1904,-1662,-1647,1852,987,-236
2118,-6366,-4017,1072,-1016,-1698,1278
2119,-2935,-1835,4290,-1698,436,955
2120,5802,1506,6365,562,647,507
2121,-5008,-4444,0,-1880,-675,1755
2122,-366,6437,6155,-1384,565,1402
2123,1410,7995,-5586,-1479,-485,-1449
2124,6344,-2926,4209,-67,-1989,-956
2125,-2465,5711,-2630,1193,-188,1087
2126,-6272,-988,4039,1965,-1163,424
2127,-3071,-7612,7512,734,-1109,866
2128,2546,-7414,-3937,-661,1487,1110
2129,-7780,5760,932,-1435,-523,558
2130,-6885,-1883,6311,-708,-1710,-1363
2131,-5028,1247,7103,180,782,-1669
2132,-2289,976,-665,-941,388,-1707
2133,-75,4105,6546,566,-1319,181
2134,453,5468,409,1870,-634,845
2135,7395,-2917,5895,-938,153,-1150
2136,6852,-907,-6706,-940,-633,1485
2137,6391,7350,2095,704,233,747
2138,2077,-1861,6029,-133,1295,141
2139,-5951,5209,-2471,-28,99,903
2140,-6290,6591,6641,-1621,500,1514
2141,6726,5465,2250,-1452,-1853,-630
2142,-1705,292,-3902,-1111,1796,439
2143,-4413,7564,-187,1295,-422,1032
2144,-7789,-4752,159,240,977,1979
2145,-1307,4870,5573,-997,187,-1000
2146,6963,660,-6328,194,1170,-695
2147,-4016,-6981,5566,-46,-618,1838
2148,5289,-2839,-5105,-934,1149,1886
2149,299,3321,5516,-1645,-1674,1929
2150,-4385,-3524,-4731,-58,-625,425
2151,-3674,6163,-4255,-817,-1474,-1823
2152,7901,3776,-2089,41,402,858
2153,2145,-6742,-5823,330,1434,32
2154,-1110,-1424,-648,927,1495,-475
2155,2237,5361,-7459,-39,1670,1442
2156,-833,-6966,-2557,755,-175,-304
2157,-5519,-4693,6385,-1329,-1442,-1014
2158,69,-4728,3083,1917,1649,1379
2159,7744,7815,5806,-527,1277,604
2160,-3977,-4695,4455,1848,1815,1396
2161,-2753,-4528,-1337,-727,-1794,1611
2162,3562,6118,-1449,-1679,-680,1777
2163,-4713,-7402,-4052,-1097,706,-350
2164,6435,-4363,7937,1428,1073,1976
2165,-3762,6773,-5193,-287,9,-896
2166,-2221,1875,850,137,-1358,-1221
2167,1360,-3299,-5998,-1683,937,-1357
2168,-331,-6900,5480,-1474,1253,-313
2169,-4776,2670,-3411,139,-274,-981
2170,3754,-3395,-1617,-1251,-335,1638
2171,2007,4979,3346,1821,684,-284
2172,-784,6023,-808,-1238,1072,-1766
2173,7517,434,6393,-984,-1166,-1119
2174,2064,-1608,2598,1501,-1912,1590
2175,-3245,2774,-2244,-1700,-164,786
2176,-1350,-2366,-1480,208,1813,612
2177,-215,4607,-3989,-788,-373,-565
2178,-7260,4029,-517,-638,1861,-1498
2179,4268,3139,4582,-680,-7,-367
2180,7472,2092,-256,-239,-1637,-776
2181,-5491,4441,3262,924,-180,1136
2182,5619,4123,-4961,159,1266,952
2183,-582,-5664,-5775,-224,-922,-1209
2184,1147,-7954,7922,1054,-1840,1799
2185,-3583,-6906,-5242,-1393,-1794,-77
2186,-1878,2564,1124,-1325,1525,866
2187,-6383,5199,4396,-409,-388,-1217
2188,3191,3408,5551,-143,-573,327
2189,-3802,-1911,3810,-1413,556,1093
2190,-3714,-3070,-1303,-557,1835,-295
2191,80,-4086,-597,1697,-66,-1115
2192,-257,-1981,7112,-1485,402,1368
2193,103,3220,6912,-779,941,-831
2194,4619,-2438,1330,1166,452,-1310
2195,7537,23,7536,-1190,-762,619
2196,6670,-1219,5792,-1653,-1184,-407
2197,5703,-6369,-6259,707,1688,-836
2198,3411,-42,7696,-1300,-1649,-1382
2199,1666,763,-1033,-73,-138,-838
2200,4815,-5225,5546,-509,-1083,-143
2201,-6269,7001,-6880,244,-923,1202
2202,4844,-1913,7823,1653,1000,671
2203,-4074,-5945,-703,-1800,-1021,1071
2204,-10,-639,-6658,-475,-788,-303
2205,-1413,4234,1005,-503,820,1012
2206,-7852,267,-6554,-650,-320,235
2207,-625,1659,143,1586,1647,-1856
2208,-3855,-7312,3573,401,-591,-1693
2209,4591,5024,-6706,-394,-1876,-800
2210,-4627,-4697,1234,1944,-240,-298
2211,-916,653,7157,732,1486,-1785
2212,-3035,-3969,-1619,1640,1153,1498
2213,4289,3961,7006,819,1123,-338
2214,7199,-88,6293,802,835,-312
2215,-6320,-2434,-2668,-598,55,1083
2216,3232,2505,-3239,334,-873,393
2217,-7410,-3797,6406,1393,1780,-1128
2218,5833,3989,7899,990,-1501,-1619
2219,864,-7998,-7019,-1442,314,-153
2220,-1891,1532,2010,-250,894,1024
2221,-5793,2577,1803,-162,-109,1098
2222,1432,6584,5489,-1271,-1102,-358
2223,3878,7955,-7828,-880,-525,1724
2224,-1777,1298,3747,527,-579,112
2225,2332,-3184,6371,-801,1683,-1097
2226,4086,-41,-2046,650,1179,-816
2227,-2448,-18,7659,599,374,-948
2228,6009,-6299,-6297,-82,-1509,488
2229,4028,-3708,-3047,1817,-760,977
2230,6921,3483,3042,-852,1494,-57
2231,2802,6030,-856,1487,1167,-337
2232,7379,5083,-1937,771,1433,-1511
2233,-7084,7802,-5662,-612,1320,-883
2234,2410,1389,-3190,623,810,1860
2235,-5261,-2553,-5979,-607,1022,-1777
2236,5636,-6235,136,171,126,-1279
2237,3703,1361,2208,575,-1305,-427
2238,3450,-6971,-6548,1511,1479,611
2239,-798,-1930,-4594,1119,-1149,-46
2240,7473,-3448,-4267,-1764,493,1432
2241,2148,1366,7743,-1428,-100,-280
2242,-3138,7164,-6386,-1668,1402,-91
2243,-4891,1706,1164,182,1931,1811
2244,-39,6539,4108,-112,1715,-482
2245,825,4430,5774,-1607,-899,-1794
2246,5536,5226,650,-989,-1994,-892
2247,-7128,665,-4791,547,1854,-716
2248,420,6638,1798,1574,-184,-1246
2249,-1142,1096,6398,-37,-236,-814
2250,2319,-7867,124,-736,733,13
2251,5879,-4732,4844,888,1324,-28
2252,2455,998,-5758,-351,-877,520
2253,2419,1959,965,78,-474,1578
2254,3666,-5177,-5520,1510,-598,-682
2255,-6484,2212,3843,-1984,-1426,1731
2256,-1432,4754,22,-1205,-1766,536
2257,-815,-7728,4729,1157,930,1605
2258,6759,6592,-1354,-1314,1749,-357
2259,1308,876,3963,1619,-1906,-1613
2260,1618,-2381,840,489,-1491,-372
2261,6480,-7991,-819,1491,1883,512
2262,2767,4191,-311,-1641,516,-881
2263,3699,-4942,2581,260,-1063,-658
2264,-7521,3457,5431,924,124,59
2265,-7088,4985,-1931,-78,-1128,-36
2266,-4034,7085,-6047,1273,1272,149
2267,-2625,-5761,-3022,-220,-1606,1303
2268,7747,-4279,-7930,1484,-1444,1091
2269,1304,1277,-4169,502,1371,1704
2270,-1450,-547,3132,768,-1163,572
2271,5592,6492,1761,392,1536,1911
2272,2152,-4222,-7662,-1527,664,1760
2273,-1373,-2956,-327,-1691,-785,168
2274,2025,7884,-1029,700,967,883
2275,-5688,-6162,-6222,-1263,-604,332
2276,5532,-6028,-7690,-1271,-538,-1203
2277,3711,7660,-2431,801,-1823,54
2278,2188,-3584,-6527,-213,1986,-502
2279,2329,-921,5168,70,-1716,-634
2280,1125,5393,-4243,-1558,-266,27
2281,1141,7650,-1569,245,-1032,-1503
2282,-6860,4118,-5917,1107,-1396,1553
2283,6906,-6501,2925,-864,548,-1446
2284,3584,-2252,6770,-633,911,805
2285,-1658,-6248,2195,-148,482,-400
2286,2084,-4880,-3021,-854,-371,-555
2287,890,1190,3102,-1528,370,-608
2288,-6683,1095,3014,-1368,-1977,-212
2289,-1348,-6549,-226,191,1258,-780
2290,2795,-5724,-7664,405,-1506,-1996
2291,-2935,-253,5481,128,-459,-81
2292,5958,2028,770,851,192,348
2293,-5577,-5010,-3327,1945,-962,-1723
2294,-6809,214,-4553,1846,788,-57
2295,6688,536,6338,1705,-1207,-418
2296,-7435,-1428,2537,1800,870,-1131
2297,-2056,7178,-646,-1328,-1525,1782
2298,-685,4014,-4974,550,1007,-414
2299,-4439,1263,-2986,45,1883,-646
2300,7226,-5054,-2227,1366,-113,-369
2301,-2857,-380,-3140,751,-1711,1433
2302,-5243,-6911,535,1764,-1767,-1592
2303,-5591,6413,313,-653,1166,991
2304,2292,-2908,-4958,1967,-257,-633
2305,-4890,-693,3855,-370,374,-784
2306,6107,-162,-7200,231,1194,-698
2307,-5641,-5912,7950,456,455,-1255
2308,7424,-2452,-5231,-1035,-1439,268
2309,-2208,1731,6527,162,781,-1123
2310,6831,-4107,6126,-271,649,1257
2311,-1536,3863,5677,-881,2,1071
2312,5875,1528,1491,982,-1415,-1914
2313,-7197,5037,-3793,-948,1413,932
2314,2118,-6011,-2668,166,4,1445
2315,-1144,38,-5415,695,-1339,-888
2316,-7124,-6791,538,1314,-1228,369
2317,3187,7356,7666,1545,-1067,-1265
2318,-5942,6039,-4653,-847,36,-139
2319,-3262,-1073,4047,-860,-767,-1455
2320,2205,1324,-146,1101,1139,315
2321,-5906,2949,1219,1458,1698,1420
2322,-3709,5605,1805,-627,-647,-177
2323,1622,7854,-5568,-509,634,-528
2324,-2600,4871,-2440,-1846,-619,-1545
2325,5305,6250,7657,-35,552,952
2326,-1998,6340,1944,1539,-1594,-1708
2327,4100,-2315,-551,-791,-1557,-664
2328,-6165,7422,3657,1325,-1199,-1947
2329,6935,-4430,-6070,1211,27,-1450
2330,-5996,6750,7065,-681,203,473
2331,4905,1834,-3014,-261,-958,0
2332,7776,7875,1546,-1017,1633,-651
2333,-5321,6284,-2271,1694,864,-600
2334,347,6199,-5933,-1506,1216,-1571
2335,-7391,-5066,2053,562,201,-814
2336,-1424,7993,-6109,-1765,-750,1202
2337,-1154,-6756,2269,-979,1011,-92
2338,-707,-3190,-7505,1856,1547,-1468
2339,7143,5790,-6045,176,416,-284
2340,-4360,428,1596,-494,-1599,-833
2341,-3686,6986,-4771,-1728,-582,-247
2342,7727,3532,1715,179,220,-177
2343,-994,-6429,-1459,710,696,-454
2344,3138,7589,-4073,432,-1298,-1479
2345,1650,-3909,-16,590,-65,-1897
2346,4154,-1225,3963,349,1946,-395
2347,502,-6402,7101,993,1838,-1149
2348,-1630,5511,3434,634,1399,937
2349,-7500,7949,1097,-1589,-1790,464
2350,1278,-7627,-6059,893,332,1086
2351,4882,-5003,-7617,253,823,-1570
2352,3177,-96,-4667,1401,-1704,-183
2353,5454,7941,-6225,1436,-1392,155
2354,7774,-1122,5280,343,828,1705
2355,4048,7947,-4910,151,-1855,-351
2356,-6982,6408,-5940,1608,176,-1588
2357,1004,6493,2282,-917,-355,68
2358,-1300,4777,-6159,-339,-83,-441
2359,-630,7679,-463,567,157,-1065
2360,-275,7831,706,-675,-1169,1219
2361,-259,-3113,-6145,29,14,1267
2362,-1711,-1406,4319,1706,1462,617
2363,6823,-1175,2777,-1132,-313,-1530
2364,1626,-6643,-6471,206,581,948
2365,-7126,-7912,-4554,-810,1205,1220
2366,-5878,-4046,6389,5,1601,982
2367,3671,2441,4985,1140,-57,1304
2368,-5495,6511,-6209,406,-1943,-1891
2369,4452,4804,-5171,-1660,-1112,-1159
2370,7250,-434,5820,-916,-339,-778
2371,-1772,4986,4965,398,-332,1374
2372,-4234,-7738,-645,-343,236,-1136
2373,-2960,-5055,-4699,-1655,480,109
2374,-189,4536,4024,605,766,1850
2375,-5142,-3532,-4206,-495,-1674,-93
2376,5147,4570,-4432,-1192,1184,85
2377,-1801,6307,-4439,1216,1997,-1834
2378,5559,1413,-2583,1653,264,1227
2379,-7731,7684,7659,384,1255,1894
2380,7648,-5586,2338,-1403,1003,1817
2381,-1878,4010,-4392,1276,581,-882
2382,-7533,2245,4183,-617,579,-1309
2383,5416,-2705,6309,344,-668,619
2384,-7314,6846,1590,166,-1056,-710
2385,-3006,-978,-1975,319,-1863,-1772
2386,-5195,2475,3405,40,-1166,-1872
2387,3672,5859,-4698,-458,-457,1213
2388,-5185,7404,-4388,-1749,-951,1063
2389,-4028,-7354,5218,-1415,-402,1730
2390,3427,1558,-7935,-1301,-1680,-445
2391,6639,4295,3531,641,1649,-1219
2392,4553,3357,-4825,-687,1728,532
2393,1862,196,6215,141,-1443,-1625
2394,5385,7973,-1099,-1112,1992,-1888
2395,566,-3591,-5425,1331,1690,-57
2396,6739,828,5105,1703,-369,1011
2397,-2736,-6251,4351,-1473,558,1534
2398,3817,7047,-4933,965,1355,871
2399,528,5587,-4484,1004,1762,-1365
2400,-4690,-1143,4168,-561,424,1770
2401,-6006,2869,-6065,1335,4,-80
2402,3010,2370,-1505,196,-446,-264
2403,-6939,-4705,7777,445,1521,1295
2404,6448,2213,3073,-1458,-1026,-1351
2405,-6565,6601,5277,-565,-1919,-812
2406,-3260,7643,-6293,-1561,-313,1583
2407,7446,-4030,-226,1516,-1126,1383
2408,-3695,6083,-4785,-1030,-1648,1869
2409,631,-3606,5962,-1000,694,1422
2410,-1890,-5429,1762,1411,-1760,1811
2411,-7372,-6654,-5714,802,-122,753
2412,569,657,3400,1498,-610,-608
2413,-190,2475,2932,1235,-124,-1715
2414,-4849,6834,-1445,1629,-743,-461
2415,3104,3960,7868,178,-1215,-536
2416,2436,-3343,-1753,1856,-659,-1965
2417,6389,-7695,-2190,109,1422,1486
2418,1098,-4408,-716,1871,140,-1135
2419,-7287,-3042,545,-589,-1981,-1838
2420,5006,-2554,-3922,838,1163,1607
2421,-5628,4253,2154,1595,-1356,-1715
2422,-5665,-249,4791,-742,-169,1103
2423,717,3904,7056,144,-863,772
2424,-4610,735,-7652,-1389,621,-1267
2425,-5909,622,4434,647,-1023,-601
2426,3091,-1187,5614,-215,-822,-1933
2427,4227,5390,-3256,863,-1776,-1367
2428,-5769,3184,-1585,-141,757,420
2429,-4921,4236,1445,-161,1832,1478
2430,-7263,2153,-4180,852,764,455
2431,-57,-1567,-2411,-641,-1930,-1995
2432,-6331,3916,-3551,-1076,-263,1392
2433,-2554,-428,3625,-1143,19,767
2434,1960,3188,4223,898,-1664,603
2435,-1356,3216,-6339,-632,1959,-1608
2436,781,728,-6791,419,723,1452
2437,-38,2547,-2686,1665,1567,-1111
2438,-1656,7135,6639,745,-36,111
2439,-5246,-2983,7894,892,1453,-1505
2440,-375,4193,-7284,-383,1331,1807
2441,-930,-1562,-1197,-454,1535,957
2442,-2296,1969,-3631,1476,-1241,1205
2443,4843,906,-5068,1510,1447,-635
2444,3583,691,6415,222,-250,-1694
2445,-6102,6529,-7839,1332,-90,1817
2446,-2669,-2407,1719,-1152,1263,-408
2447,6020,-499,2999,282,1514,624
2448,6854,-6624,195,-1005,98,1475
2449,6897,-550,-1826,1201,407,-320
2450,4536,-2689,-4772,712,147,-1268
2451,-436,5946,-2763,-1990,-467,-907
2452,6518,-1652,3125,442,665,1452
2453,888,-1110,718,-951,1413,855
2454,-530,-1237,-6317,1610,-1858,1445
2455,-2069,2209,-3633,-1784,1067,-1001
2456,-3877,-5600,-6923,1349,-1347,-287
2457,-4352,354,-133,402,1971,-1606
2458,-2217,-7170,-2804,730,-1648,-1629
2459,-2273,-6978,-4621,1144,-1486,-332
2460,-2598,-6129,-6331,783,1588,-1733
2461,-5489,977,7842,-1214,1588,1982
2462,1197,-6405,5417,549,802,1394
2463,6796,-7870,3344,-1048,1336,-653
2464,4197,2026,-7994,-598,-432,897
2465,-6947,7445,-353,1637,831,1405
2466,-4026,4582,-922,-574,910,538
2467,3339,-707,-1438,-837,1036,1618
2468,-4556,1899,-1520,-810,1281,1686
2469,-416,-4094,-6282,1698,556,-81
2470,-7262,2282,6121,-1974,206,-1634
2471,3332,-147,-5979,-65,-488,-1294
2472,-2668,-5267,-3282,1563,-1141,392
2473,1598,-3635,6478,-1563,1103,-1836
2474,3873,-1568,-6650,-532,141,1352
2475,4759,3963,-7049,1669,-795,-495
2476,582,6592,6392,1130,-961,213
2477,7176,-6173,1244,1171,-831,1897
2478,-7368,-7492,7734,525,622,1111
2479,-6326,1448,-2191,-232,-1831,152
2480,-7564,4524,-3187,-588,-367,439
2481,-815,-5841,2600,-1891,-1044,-1618
2482,-4715,1209,7303,725,-1240,1864
2483,3151,-3134,5111,-735,-40,-907
2484,-4239,-786,-2612,1479,-1358,1292
2485,2338,3150,1343,1501,1930,-1530
2486,7356,-6862,-1582,288,1888,313
2487,-5339,-6809,3687,835,1860,-802
2488,-1256,-2093,-5464,630,1519,-496
2489,-682,-2990,2606,-1631,151,-780
2490,-7174,1038,-6466,1744,-1935,1798
2491,-2018,-6075,-4785,-623,-12,1784
2492,-5507,-2829,1484,446,-1721,1648
2493,-825,1983,-1089,1623,-385,1182
2494,-7611,-3763,-2968,59,374,-102
2495,-5696,5460,-2806,497,276,-1953
2496,-491,-2777,-5414,-36,54,-1723
2497,-7772,7588,-3948,-375,151,-1995
2498,-3418,3879,4013,-304,-1369,-312
2499,-6278,2572,869,1702,-941,-1425
2500,5747,2665,-4281,725,-1766,-206
2501,-2015,6663,-185,-25,1525,-618
2502,511,-1141,-2308,282,1724,532
2503,905,-4173,-5286,573,-965,-1605
2504,-1031,2315,1556,-1276,-1167,84
2505,1463,-5414,-3327,-413,-734,1333
2506,-940,-7179,-5582,176,529,1194
2507,5319,2129,-601,453,-1860,-1242
2508,-755,6917,-668,1536,543,-607
2509,3848,-4657,3360,-1810,-1257,-1194
2510,-5303,-4878,7832,-330,-1022,-1924
2511,-7104,7182,-4972,-1573,1508,-1265
2512,7484,-844,3574,-173,-1356,-1840
2513,-6722,-377,-3969,1410,-812,1849
2514,6768,6417,833,-547,1466,1895
2515,1048,5651,1624,431,-537,-1427
2516,-1251,-3275,7242,-1046,1780,1905
2517,-7875,6566,-4615,-1269,1951,1986
2518,-5175,5345,6431,-257,-754,1460
2519,7756,244,-37,-1187,8,994
2520,2841,-6491,-1881,1577,-1584,-1469
2521,3381,-2034,-7331,1033,-974,-1539
2522,4052,6469,-4905,953,-975,-1443
2523,-5764,841,-5326,726,-1502,-727
2524,-1841,-7779,5182,-495,1893,399
2525,-1485,2347,5768,1839,131,1461
2526,-7137,7533,7890,1303,-831,-950
2527,6618,-3237,1336,-775,-283,-1426
2528,7060,1244,803,-1092,-1133,-498
2529,-2081,7536,-5423,721,-541,-1960
2530,1230,-2467,5329,-97,624,1990
2531,-4037,-5862,-3825,1478,800,1475
2532,-3358,4141,6328,-668,1849,1716
2533,-627,-6390,762,1884,-898,1099
2534,2953,7901,-7805,-1591,-1473,438
2535,-6287,-1516,3928,-737,-1266,940
2536,-3210,3346,-1257,76,1716,-1579
2537,-7068,5578,-2631,1819,-1300,1835
2538,-1311,-6530,-3775,1217,-120,1324
2539,-4840,-1885,-6670,-1871,1983,1302
2540,-7281,3664,-5144,1077,1022,-1980
2541,-4693,-6029,-3428,1677,-1682,539
2542,-6925,-5580,-3508,-149,985,843
2543,-2263,4863,-7574,-84,-897,-930
2544,-151,347,7497,-147,1469,-540
2545,-7062,-3245,6882,1629,1117,-500
2546,-3034,5943,5544,1466,-1884,1813
2547,-1885,-6822,-5457,238,1819,-1017
2548,-2353,6918,-4658,1587,-512,-453
2549,3665,1741,-3436,1471,-46,982
2550,-172,-7356,7265,989,-1106,458
2551,2909,5535,-4807,-725,-1609,815
2552,5572,-6908,86,-1097,-1212,1947
2553,-739,3808,6826,35,1491,1491
2554,3736,5683,7858,1475,534,638
2555,7024,-5496,-619,-1411,-1991,1876
2556,4678,-7352,-7516,-1493,1288,1268
2557,2539,-6362,-7526,1712,121,-9
2558,1435,-7815,2385,-19,-1743,1595
2559,4287,4272,1469,547,-782,152
2560,-1578,63,7838,-1140,629,-1224
2561,-2669,1372,-2202,1208,1818,-1356
2562,-2187,6994,-574,-325,-978,377
2563,-1940,185,-1704,7,954,254
2564,-1093,7782,893,-740,-1680,1187
2565,1762,5431,7176,-1779,-1622,48
2566,1898,2388,7663,-567,-367,-882
2567,3022,-3152,2305,415,-1347,339
2568,-7951,2896,-1688,-1199,-1303,-1009
2569,-2820,6836,5165,1423,1034,1195
2570,-712,6538,-179,-1086,-1200,-597
2571,-6396,-4973,6700,-1996,-634,1268
2572,-679,1125,7145,45,619,1221
2573,7489,-3981,6847,1526,442,-1361
2574,-2564,-1029,5680,-500,817,1467
2575,-7946,3959,3957,1065,1006,-157
2576,-5243,-4180,-4614,-1711,377,1200
2577,1218,-4011,-6689,574,937,553
2578,-6937,742,7471,-210,-489,467
2579,5130,-1636,-4007,-775,275,-831
2580,-6589,-5499,6711,924,1607,-1770
2581,7074,5465,4596,984,-1669,374
2582,6508,-6833,-512,167,1234,1607
2583,-6986,-6585,2307,-188,422,1912
2584,4280,-919,-6200,-1046,1490,1655
2585,-2898,7378,2222,-1667,-1420,-1077
2586,-1250,-189,-6470,-1599,1187,-1883
2587,4951,4651,-5997,-1111,-1570,-945
2588,-902,-7547,4574,1492,-569,1282
2589,1697,5915,341,-1361,-1385,1124
2590,5700,-4525,-3722,-1312,79,863
2591,1117,-771,7552,365,1567,-1389
2592,1113,-7161,-5203,1605,-1114,-589
2593,6896,4203,4820,-1318,221,-1014
2594,699,2996,-791,539,-1884,657
2595,5189,5723,5529,1312,1909,664
2596,-1132,4836,4285,919,-1115,-205
2597,4680,-3859,-622,1670,1929,750
2598,-3418,-2015,7349,-1982,1769,644
2599,7520,-4291,4039,310,643,-1683
2600,6354,-7326,7595,306,-1383,1381
2601,-2256,2318,-5429,-1957,726,-424
2602,-507,6792,-5261,1503,197,1540
2603,-4242,-7867,7604,-1763,1695,113
2604,2970,4154,-2110,-251,-779,-1753
2605,1409,-6499,-6615,1624,-1924,-736
2606,-3880,-7389,6422,424,221,-1589
2607,2632,611,-3574,1648,-152,299
2608,4685,7551,-1736,1545,-1213,-1189
2609,-5168,-481,640,1893,1437,-1029
2610,6638,5907,3452,1330,-1995,307
2611,1496,6187,1385,-1447,1317,-1118
2612,6081,-7804,7930,-518,-1776,-1754
2613,-2798,-1069,-2092,-1799,608,-437
2614,-7194,6846,-5713,287,1705,674
2615,7732,2098,-310,1619,-1131,-984
2616,216,-7933,-5284,-563,-1052,837
2617,-4326,-367,-2501,771,652,1066
2618,-2232,-3134,2408,-1870,-26,-647
2619,4162,296,1897,-387,1911,200
2620,-6182,-5545,2713,-247,-365,-630
2621,-5434,4737,-3635,-1974,319,1088
2622,2949,1643,2822,1369,1283,-1696
2623,-5889,-1723,-1820,1591,1120,-1976
2624,288,-220,-1603,-1182,1965,1892
2625,2603,-6838,-5811,0,-1018,-1698
2626,-662,-985,-179,991,-545,-907
2627,822,-4433,5809,1247,1910,-1802
2628,-3955,7093,4537,-1086,963,-1179
2629,4150,-5183,7096,-358,1057,-866
2630,-3734,5554,-2868,-600,-1422,-1755
2631,-4538,-2650,1897,1770,-948,637
2632,5035,5060,5652,1342,302,-612
2633,-1669,5079,-6119,-697,445,-784
2634,5267,-7454,3054,941,-82,1721
2635,3225,-7653,2926,455,459,-527
2636,-6283,7529,-914,-1149,165,1278
2637,3956,6892,-4966,-1447,889,619
2638,270,2859,7331,219,-481,-333
2639,2005,-5113,-83,-373,-25,-247
2640,-223,124,-1908,-599,-704,-1442
2641,-3081,1192,-7579,772,939,1976
2642,4675,4055,3060,-508,1181,1501
2643,5269,2218,-1843,-144,1512,-572
2644,-6704,7386,-7529,-998,-582,-1576
2645,-2147,-5015,-3505,-267,-1502,1986
2646,57,-5740,149,1388,1644,200
2647,-3969,776,7660,1565,-1503,-1633
2648,-7156,7359,-2807,983,-1180,1767
2649,-5392,-1221,7145,1731,1113,-114
2650,3783,1406,-4783,-1343,197,-1591
2651,1508,-3312,1516,-1663,-816,1894
2652,-5918,4451,4883,1374,-1674,529
2653,-7176,2542,-3468,-1892,105,345
2654,2832,-1093,1122,-318,1259,-866
2655,-64,-1992,-937,-1027,1273,1797
2656,-1575,6860,2438,429,781,214
2657,-831,6967,-2890,1590,1252,423
2658,4867,-1909,-3232,1159,1521,-1659
2659,-6619,-7702,-6344,-1385,-918,-1869
2660,3369,-7209,5674,623,-1997,-626
2661,3749,-5015,-1985,-1682,1275,1842
2662,6482,-7991,4531,1348,1482,1409
2663,597,4874,-7707,-910,-1937,-109
2664,7926,3660,-6269,7,28,564
2665,5856,-5014,-5576,-1500,-1010,-386
2666,1718,-8000,1163,1140,12,-1819
2667,6912,-1720,-2160,531,1003,1879
2668,-5256,1311,74,-842,1369,-249
2669,-3331,-3224,6905,847,883,-1715
2670,-1145,807,4049,-195,-174,-434
2671,-7833,3037,-4798,-1440,1828,184
2672,6916,7542,4919,1750,-1647,501
2673,-2574,-7405,655,-156,605,-483
2674,-6396,1529,4256,-862,1066,1281
2675,1688,3371,6906,-1776,-1056,396
2676,3916,-3949,4043,1171,1810,-1517
2677,-6855,3552,3439,-1337,-898,1039
2678,-1009,5396,6903,-736,-1016,1453
2679,4299,6710,2651,-1032,-1426,-615
2680,-1350,459,-6720,-748,420,173
2681,-4810,6229,3803,-363,-836,-480
2682,169,-2846,3543,-1076,1602,-629
2683,6312,-3813,-726,1057,-1612,76
2684,-3310,4145,-5760,536,-462,724
2685,5013,-6782,-4506,1864,1403,-1406
2686,-3262,3170,-7469,394,1263,-386
2687,-3221,-6829,-5301,731,561,1601
2688,-10,6424,-2089,1291,283,945
2689,2961,-3809,77,1207,1169,-42
2690,5849,-5419,-5080,276,411,1247
2691,-2955,6543,2000,1041,1725,-1732
2692,-3525,621,-5899,-1988,1896,-1496
2693,225,3000,-7282,1342,77,-117
2694,-5447,-4132,364,-899,-1432,77
2695,-7557,-166,5519,-1794,1803,-766
2696,7972,-2986,-2432,-1104,1461,1007
2697,6619,7659,-6550,315,1619,-1311
2698,-1839,2290,-3252,898,1422,1364
2699,-7283,-1708,3164,420,-36,769
2700,3952,2696,3835,-1840,-1857,1750
2701,5532,-1456,7265,-966,1215,-1818
2702,-4026,-639,5104,-1201,-735,1770
2703,3478,2351,-5866,-1293,-1493,1797
2704,1800,-2458,6706,1616,-5,-224
2705,-5543,-4730,2177,1181,1060,1439
2706,2757,-3072,-931,1792,-1749,1456
2707,2755,-3631,-4808,1861,-1576,477
2708,-6086,7614,424,263,1790,1859
2709,4850,2862,-3401,193,-1897,1718
2710,-7610,-7841,-71,-5,1779,370
2711,7103,7851,-4129,559,-1806,-394
2712,-5223,6200,4629,-1192,-642,-1009
2713,-2896,2974,-5,-1904,-1588,1878
2714,-5714,2803,6566,29,-14,-867
2715,5863,5612,-6692,-1090,227,1448
2716,6309,-6643,-4233,-1091,484,22
2717,5715,296,3935,-474,1579,-933
2718,-6327,-1013,7360,-690,-1569,1930
2719,-6377,2343,2832,917,-965,1801
2720,2820,-7572,-455,790,729,-254
2721,1947,2067,-3958,61,-1972,1194
2722,1355,-2099,-2276,-1590,-579,-344
2723,6031,1928,-823,-1800,-1476,575
2724,3376,-6421,2194,-269,-779,1628
2725,-7335,7893,-1443,-705,-1415,-1184
2726,-2145,5215,-4531,1132,-1966,1500
2727,5284,-5618,5907,1641,1655,385
2728,-4645,-4321,5458,-585,-1764,-505
2729,5109,-813,1030,847,-1495,1763
2730,4815,-1129,7103,-151,614,1203
2731,1150,-395,-3601,-1882,-235,-219
2732,6422,-665,6672,-932,-1023,1419
2733,3580,-4513,5639,120,1862,118
2734,6607,5742,1396,-1754,426,-1091
2735,-1143,1597,-2656,-1708,397,-1745
2736,-5608,5049,-3248,-1294,1164,1456
2737,-2790,4545,-5125,-813,1991,-655
2738,-2845,-2873,-7639,-949,-1736,-1135
2739,347,-1491,-7319,-1468,1508,-1628
2740,-348,-4744,-2199,-1504,137,-564
2741,5919,3049,-6512,856,-1675,-997
2742,461,-2278,5305,1918,-887,-904
2743,610,159,2347,1029,-409,734
2744,563,-2352,-779,405,-447,892
2745,-4313,239,-5955,1586,1961,1853
2746,83,-2300,4629,987,1601,1090
2747,3237,721,-5668,382,-606,1660
2748,-1219,-4109,1276,-847,-1977,-349
2749,1663,1346,-7118,628,804,661
2750,5795,7336,2025,-250,-177,1911
2751,1132,3643,6810,-97,1874,-1830
2752,5228,-2779,98,1241,1470,-1055
2753,3259,5668,-7395,1454,-564,-436
2754,5611,-222,623,1959,-334,-556
2755,-2467,-6407,1856,-1908,-877,879
2756,-3801,-3147,1247,-1067,-377,-75
2757,5290,-1435,-4700,1462,461,-1961
2758,1576,-3137,-6331,-216,-791,1626
2759,-1359,-6823,7585,1169,725,-1396
2760,-6087,-131,3842,444,-19,-1982
2761,-3596,-2724,-7776,1924,-849,-276
2762,-6207,7655,6354,-792,1865,-286
2763,5976,-3349,-556,1397,-1223,1625
2764,-674,-2135,-1203,-467,297,-324
2765,2692,5284,-5935,1061,1836,1598
2766,-5839,-7972,-8000,-990,929,-919
2767,-5774,1248,3059,-495,-614,-1740
2768,-3370,7876,2438,1332,-1080,1797
2769,-2120,-3173,5383,-1622,-1737,1058
2770,-929,-2297,1138,1095,-1876,983
2771,7785,-6411,-6167,-1320,-1755,-1727
2772,6961,4629,2866,-1561,-1719,-1479
2773,-5189,1066,-6812,1719,214,11
2774,1362,-4813,-2821,-1102,1762,1280
2775,-1861,-859,4910,-1643,1485,684
2776,-4499,-1466,-1815,1138,-1578,246
2777,-1726,-1877,-2913,-1255,1925,-1807
2778,4906,-2510,4120,-1000,1913,277
2779,893,-3579,-3425,-1668,938,-975
2780,-3779,3317,-590,-524,-136,1918
2781,7720,6918,4507,53,-642,1078
2782,1555,-6057,-6291,-578,919,-297
2783,432,-6895,-355,-336,1596,-117
2784,-1022,-2854,6412,1858,-1626,-1932
2785,1111,2376,6391,77,-1533,597
2786,523,1534,464,-578,1657,1030
2787,-1196,-3385,6116,233,-1012,-1804
2788,4438,5677,5721,339,-1170,-673
2789,6314,2635,7943,1554,1492,-798
2790,3831,-731,4571,279,1422,1782
2791,-3132,-6466,4793,-513,-1204,-416
2792,-2839,-421,3670,-499,-69,-641
2793,-1735,4185,3505,1601,-1469,812
2794,-3745,3647,1444,-44,1143,-1765
2795,-733,3571,-10,1120,482,-1181
2796,5975,-6533,-4083,-173,785,-1033
2797,-7629,6848,-2578,-1926,-1476,-1404
2798,5261,3119,7782,-1015,-894,127
2799,7612,298,665,-804,1215,553
2800,-1613,-1477,6925,399,1540,-1759
2801,-510,6366,2555,75,-1961,936
2802,-7064,5226,-6895,-1168,1280,378
2803,6986,3744,3294,-1466,-831,1977
2804,-1012,-2794,878,-302,-1124,13
2805,6003,-6979,-5284,-705,1429,-1356
2806,-5281,1617,-2290,463,-1053,-1092
2807,-3042,3274,-5091,1507,435,-565
2808,4841,504,-7334,1975,-1954,-150
2809,-7222,7620,1036,1485,-1739,1449
2810,-7564,-6550,-1584,-109,-668,1956
2811,-2218,7622,5178,-969,126,-253
2812,-2064,-2043,6113,1168,-795,1448
2813,-2039,-1914,-4138,-785,1785,-1407
2814,-14,1124,-35,-1086,1101,651
2815,-6951,4326,4677,405,-336,-419
2816,2865,6080,-2817,685,478,-392
2817,-5404,3226,-455,1182,-1017,396
2818,-1943,3682,7357,-342,1405,-1842
2819,-5796,-6848,2327,-1845,-1604,-1299
2820,-3588,-5104,-6078,752,1345,287
2821,4174,1703,3021,711,-770,-849
2822,-2050,5388,1232,196,577,967
2823,7345,-1416,408,438,46,1807
2824,-7384,6891,2746,1382,-1477,1517
2825,-2796,-1230,6841,1971,-1461,-1023
2826,-1275,6133,-7124,785,1174,-1650
2827,6130,-3579,-3066,925,58,-214
2828,-4449,-6322,-6287,1616,-1303,34
2829,-5336,-7917,2741,408,-1992,-1737
2830,-5615,-3297,3095,328,141,-422
2831,4549,-2145,-1772,801,-320,225
2832,-584,-1251,4719,-1476,-30,1021
2833,5116,-5552,-5858,918,1427,123
2834,-4355,1283,7823,-1955,1755,1975
2835,-2945,3309,-1700,-736,4,869
2836,-1903,4736,-7836,341,535,1261
2837,-815,-917,5777,1521,-780,153
2838,-2486,-664,-1193,-1626,-151,-1963
2839,2001,458,686,783,1704,1894
2840,162,-5512,-2617,-955,1909,-1444
2841,1061,6915,-5719,1015,126,-1847
2842,4658,-4265,-6021,-145,1429,-1616
2843,-6836,-2569,3023,354,-1815,-1069
2844,-6913,-6729,-1545,1202,902,-1514
2845,20,704,-5017,-1074,-217,-1136
2846,110,-1908,-1123,-919,306,-849
2847,1791,5039,7295,1619,-1691,201
2848,4129,-4652,7570,-584,-1976,-996
2849,2482,66,-7468,-481,-993,-1581
2850,-543,1407,1455,-1212,62,674
2851,6134,5075,-5021,490,-809,-1602
2852,-7954,-6024,-4002,-948,1129,-12
2853,-7132,-6210,3999,1590,1922,-36
2854,3014,-3381,493,380,1736,-1415
2855,-692,-1842,4350,1762,-368,-152
2856,-1306,4610,-3792,1757,1258,-229
2857,5842,-502,-689,-1090,-1196,810
2858,6118,-1069,-7613,-417,104,-1909
2859,1260,-1277,-7466,-331,-124,1729
2860,1141,64,-5327,828,1570,987
2861,7265,988,-7534,481,1508,136
2862,7220,-535,556,1839,-1611,-640
2863,1320,-1054,3052,-1574,957,728
2864,1952,-2621,2946,-1690,-833,-516
2865,216,6025,-5510,-75,79,-1644
2866,-5709,-6707,-7059,-1627,-1893,250
2867,-6538,2300,6159,977,864,780
2868,2313,7187,-1866,-911,89,-168
2869,5269,-3936,-1088,-1169,465,-410
2870,975,-2782,-5039,779,1449,-1759
2871,-1183,-5503,6478,-1556,1428,-854
2872,-6273,-2611,5394,-1420,-1734,593
2873,-2729,-2557,-2752,-502,1137,-72
2874,-6968,7169,-6574,-1804,1229,960
2875,-7682,2265,-5600,-1933,-575,-1376
2876,7196,229,-7977,1675,303,-88
2877,-7784,7527,4361,478,-1207,-794
2878,2023,-2268,1428,379,-699,65
2879,5128,-6260,-737,-1679,782,-257
2880,23,-1011,678,874,-382,1764
2881,-3256,-5655,3866,1824,427,-1244
2882,-7332,-5247,-5529,1852,-1192,-239
2883,-5384,1802,4201,506,643,-1555
2884,-7821,1700,6773,950,-416,1666
2885,6355,-7713,6480,260,332,-1447
2886,-7336,1228,-7847,1409,1743,88
2887,7979,2749,4624,-461,-62,-1811
2888,7183,-5095,266,1391,1508,667
2889,4518,-1832,-7933,-956,-1112,752
2890,-469,-7611,6842,1328,-1576,-1222
2891,1938,2277,943,-1611,188,-164
2892,-5993,2123,-7135,1441,-1723,-1045
2893,7872,-4977,-4821,286,-1019,-1861
2894,-3068,-4296,-7596,-689,651,1450
2895,-2459,3025,-7422,-1625,-199,1052
2896,-3496,6398,-1259,-1287,273,-849
2897,-6139,-4654,-571,-522,1099,-325
2898,-5497,215,-7501,816,-711,1221
2899,-2249,-5321,-1097,1113,1347,582
2900,2103,3547,-2821,1748,-1821,-1216
2901,2948,5087,-1280,-131,1267,-243
2902,-743,6161,-5104,-1762,1047,-407
2903,7297,-1929,4091,-178,1954,-1005
2904,3423,-4383,1311,836,-1690,-1256
2905,-6606,3974,-760,-587,-807,1113
2906,-870,6618,-7332,-861,601,564
2907,6973,5504,-7140,-160,-1793,-7
2908,5068,-2692,225,521,-199,1883
2909,5453,-1530,3852,-1747,-1977,1100
2910,-3921,-211,-6152,-855,-1198,-1968
2911,-1438,7728,6302,-1029,-1112,-1367
2912,355,-5471,-3196,-1663,552,1279
2913,-5334,6425,7618,-760,-184,68
2914,317,-6893,5803,-618,-1367,1083
2915,-2959,-7216,3591,1534,738,1597
2916,-3993,5758,-2328,-1655,-496,-1771
2917,-7681,-679,6764,-999,1095,1982
2918,-7122,131,-6612,-1614,122,275
2919,-4668,-3580,-2842,454,-703,1572
2920,-5528,-3980,-5648,-33,830,-412
2921,2296,3408,2781,-267,-149,1321
2922,4773,-6969,7621,731,1989,-1654
2923,-5071,-4275,-1439,-806,-456,901
2924,-336,4773,-1396,-1368,1322,1003
2925,-1007,599,7942,1963,45,731
2926,-6647,-6338,-5125,1512,1766,1945
2927,-4410,489,1830,1389,-1139,1132
2928,5178,4677,4310,-1443,-567,-1471
2929,2833,6330,-7959,-143,-1997,-1602
2930,-6275,5605,7013,-1775,-787,907
2931,-7118,-1531,2206,-1186,-1886,1834
2932,4423,2195,2018,1030,597,-1887
2933,-564,5167,-1851,-1437,1607,125
2934,5065,4246,-1963,-1870,1195,-373
2935,-7537,-5144,3312,244,1821,1008
2936,21,2595,-7471,840,-443,478
2937,1869,6201,-1074,1090,-1854,-295
2938,1439,-5504,-1263,1210,-1639,1163
2939,-7871,-1724,1345,580,-1427,-1124
2940,-4690,2902,3038,1578,-121,772
2941,-1307,-6002,-2344,815,1400,1015
2942,-6735,6255,5835,336,-1846,-154
2943,-6487,7456,-84,1923,-80,20
2944,6090,-4786,-2652,1355,-922,242
2945,6031,6550,-2693,218,-390,-367
2946,6159,-2207,-2477,-1884,112,1463
2947,1847,-5268,-2132,1752,-567,86
2948,-4849,-4460,-3859,-1671,1313,-1358
2949,6646,-3382,-7174,-1812,-1248,1257
2950,4997,-5705,1050,589,-1205,-162
2951,-4530,4948,-4033,-1281,-1455,263
2952,-1602,-5133,-4216,-1819,201,213
2953,-3908,3877,-1503,-658,-1791,-324
2954,-7835,2876,-3440,520,1368,51
2955,-5356,-5076,2177,301,-126,1083
2956,2357,7718,5167,870,1297,-1869
2957,-642,3853,-1155,-1883,908,-1823
2958,-819,6426,-687,1458,250,942
2959,6441,-6592,3271,1274,-1169,1844
2960,1002,-2867,-7791,-62,811,1962
2961,5,5605,-872,1540,1037,-1383
2962,6775,-6836,5668,-414,-1801,457
2963,-6362,7890,-6676,-239,1252,-182
2964,5594,-3994,7661,-549,426,1767
2965,-3333,-1412,-1815,-959,260,58
2966,-4194,3563,-4528,1399,625,1781
2967,4580,6272,-5013,1199,-1061,344
2968,-7800,-4641,-3821,-1046,1789,1224
2969,5508,-6939,-3594,386,1233,204
2970,-2723,-3592,4814,-747,-48,353
2971,6754,-3273,-4785,-835,-1141,-556
2972,-3435,3589,3916,1596,1067,-485
2973,79,-3062,6885,227,505,-386
2974,-7660,30,-2697,787,-224,-1423
2975,2507,6193,2738,1696,-1144,1875
2976,7357,7292,6497,1233,982,403
2977,-4831,4977,5086,-523,1870,1881
2978,3071,7556,4661,-339,1305,930
2979,-7778,-5505,519,-1532,-615,1150
2980,3051,3965,-6445,1815,-1079,-352
2981,2088,-4689,-7062,-153,-1576,-281
2982,-3781,-3012,410,-1508,837,-861
2983,7919,-6126,7552,1757,-933,229
2984,3245,-4503,-1899,-256,-1299,-647
2985,3031,-819,-881,-1528,230,1000
2986,-2340,5671,4614,1059,-32,1097
2987,-1632,-7709,7167,-1187,-1396,-1767
2988,1581,-7242,-6256,295,224,480
2989,-364,-7524,1190,-1599,-1935,439
2990,-6638,4056,2806,-72,-1976,358
2991,5646,-2005,-6052,1140,-602,388
2992,5303,5868,111,1520,1732,1331
2993,192,6801,-5944,185,468,514
2994,1318,-1530,913,1307,1638,-353
2995,-114,-1359,-3940,665,1709,1899
2996,-2785,-1161,-3109,1032,-89,-1948
2997,2503,-6228,-3940,1328,1003,411
2998,5141,-1855,-6640,575,-719,1719
2999,-7822,-7053,449,217,-1983,394
3000,-1130,1131,6991,-617,-1175,-349
3001,-3949,-3799,-4830,521,318,-1319
3002,6961,-2510,-7429,-1189,-15,-1727
3003,2907,7460,887,91,-1239,-1241
3004,-5183,892,7836,1310,518,-460
3005,852,7030,1772,-1552,-779,-746
3006,-1834,-3289,3017,-1901,1880,681
3007,1490,-766,5791,-1035,274,1340
3008,-2555,5705,-2254,-307,-351,252
3009,-4759,1045,-6164,-322,-1588,-1471
3010,-6665,-2577,-7667,374,-659,580
3011,-4718,-4049,-4368,455,819,-657
3012,-1168,1992,-4515,1109,-1246,1416
3013,-1473,4316,6770,-944,604,-359
3014,1867,-1932,-7308,1635,-317,956
3015,-1657,-4943,-1600,-1537,-567,1848
3016,6914,-6425,4459,424,-1235,-237
3017,5374,-2268,1608,-232,-1233,-1420
3018,-5958,-7064,983,1817,1665,492
3019,7901,4244,4133,-755,41,-1101
3020,3423,-4852,-6945,-982,1105,-1301
3021,-2033,-61,7474,-1339,369,485
3022,1108,-3888,-4962,-1880,851,-1057
3023,4095,6627,2589,-221,779,1210
3024,4480,-1504,-6057,-1050,-369,-1222
3025,4645,1327,1505,163,-1181,894
3026,5922,-5352,-1764,-23,-737,-339
3027,-2763,591,-4025,-1709,-1188,1066
3028,6837,-7972,438,-1136,127,1581
3029,1132,299,-6486,925,427,-52
3030,-6864,-4832,7497,-808,-1726,-1435
3031,-4448,5970,4832,77,-546,-393
3032,7518,1282,5162,23,1039,-856
3033,-1706,-4734,-3290,772,-382,457
3034,1239,364,7960,1683,137,-1906
3035,-2139,-1614,557,-1226,-275,1724
3036,-248,-4811,6814,-591,327,62
3037,3037,2871,6580,-1120,455,-927
3038,-6944,6193,-4146,-839,-1590,435
3039,-2932,4679,-7006,1416,-1997,-226
3040,4252,-3922,4188,-1382,-1872,1018
3041,-1662,-3655,4640,1043,-370,62
3042,2975,-2311,1899,213,158,-266
3043,-325,-65,5619,-205,232,1050
3044,-1527,1609,-3651,294,1876,-479
3045,216,-1101,-4950,-1233,1744,-880
3046,-6614,-4518,732,1415,-1086,1541
3047,-6859,-7556,2070,-1873,-965,1848
3048,-7580,-5616,-5742,-559,391,-718
3049,-7229,4021,-2212,757,270,-905
3050,-2403,3649,7400,1662,592,-1985
3051,3394,2837,-760,-1862,-973,-1189
3052,-1330,-2111,4869,1345,-1749,-553
3053,-4941,-5424,-5922,-1648,777,551
3054,7155,1541,5885,318,1959,975
3055,7828,-3884,1687,-990,-195,771
3056,-7965,3431,4788,-1778,1776,1344
3057,2780,3638,-5321,604,1950,545
3058,-4186,6002,5017,-177,1263,-405
3059,-1978,-3004,-1600,255,-121,1262
3060,6018,-5657,1575,1904,674,-100
3061,5893,4343,-449,1790,-1633,423
3062,2420,5755,-4545,1738,-1316,178
3063,-2203,2149,6740,303,-1372,-768
3064,4533,-1693,7456,-1996,-1270,-846
3065,-3663,-6800,-5254,-352,-466,-314
3066,4014,5312,-3688,-1747,-1056,-157
3067,441,112,5336,1751,1510,-1492
3068,-3939,3667,-6473,-1931,1161,1251
3069,7617,-3935,7705,-1831,1170,1647
3070,-7966,5989,-2930,644,-557,-780
3071,3304,-4759,-1903,-1298,1012,-1523
3072,-3239,6491,5911,1281,476,-1557
3073,3332,4456,-2876,-915,-1229,311
3074,3616,-5178,4052,1915,-173,1744
3075,4514,4086,-4780,259,-1593,-1937
3076,1625,6460,-2427,1290,-1535,-1533
3077,7173,-2236,-4017,93,-1397,1878
3078,4712,7101,1702,-654,1527,-1141
3079,5577,1681,2397,1295,-47,-914
3080,-3896,-3582,-6354,-91,1274,116
3081,5352,3276,817,574,-745,-1622
3082,-6413,3425,-6293,-1476,295,-1044
3083,3348,5306,478,-910,-1510,1025
3084,-7692,3760,-2140,89,730,-1157
3085,-435,4881,6112,-1891,-653,1589
3086,-4329,891,3913,1895,1489,1882
3087,-5361,4673,-2302,1576,1326,-1960
3088,-3914,1777,6239,-484,-646,-1381
3089,6038,70,-7731,-56,-1981,865
3090,-586,2801,3964,487,1114,1601
3091,1013,-779,-7421,1754,1684,445
3092,1456,-3527,3375,219,222,-1228
3093,-6360,-1821,207,-1549,-1355,-388
3094,5786,-5897,1381,-1871,266,1184
3095,-7276,3167,-5120,1649,-656,-549
3096,-5332,-6923,-1352,433,182,-579
3097,-5889,-7177,7530,-234,1174,1588
3098,-3945,7,-287,-445,1384,-1775
3099,-2138,-982,4582,-532,961,-1047
3100,-873,7310,6492,928,727,-1579
3101,-2495,-249,1829,-759,732,-1968
3102,-5621,1791,-2835,-456,-333,-785
3103,4127,862,5905,-1099,-924,-970
3104,-73,-7404,-7079,-891,-1471,-523
3105,2972,-4624,-7020,-1725,-1373,568
3106,-1339,7044,-4959,-1902,-1551,1803
3107,-2534,-7454,-5862,456,-514,-1653
3108,1101,4041,-6306,-800,-261,-594
3109,-3176,7914,-2541,1820,-817,-1000
3110,7941,-2048,2406,-1904,1633,556
3111,7165,5632,2134,1702,938,228
3112,6866,1088,-3692,1043,-948,-1623
3113,7308,641,-5418,-1733,-1405,-1649
3114,1226,3470,2933,-950,-216,1771
3115,-1611,6373,4277,-756,201,641
3116,1594,4028,-4807,501,-1697,-288
3117,-1287,6403,4143,372,-806,-1103
3118,81,5364,3829,-1808,-1260,-211
3119,-6075,-5598,976,-766,516,-978
3120,-1871,-5755,-5224,1864,-668,105
3121,-2335,5509,1581,625,1554,-675
3122,2853,4873,3341,391,1536,185
3123,-7768,-165,5535,-1144,1849,-864
3124,-4395,1092,5971,1561,-1429,1402
3125,3959,-3514,-7710,-775,35,-1715
3126,7152,-6164,4976,1266,-1457,1224
3127,-4222,-1865,7482,134,896,1586
3128,-1412,7210,-3885,-865,1445,772
3129,621,440,-2345,1421,-43,1710
3130,-4645,-2226,-938,-371,-510,1718
3131,-1524,-565,4323,286,-1795,-373
3132,6863,4153,7684,-676,1799,-1370
3133,3090,1091,5128,806,-1476,-916
3134,6744,7802,-4741,-1091,1246,-1731
3135,4046,1791,4751,913,-867,1641
3136,-812,-6494,4993,-872,1208,-1964
3137,4814,3678,-7491,-242,-822,1430
3138,-5193,996,2363,8,-1319,313
3139,-5437,3910,-6217,1969,294,920
3140,2815,-6231,2920,-1687,-1471,-139
3141,-7615,-990,1556,-1245,19,191
3142,2842,5158,-1702,-1024,869,-1331
3143,3547,5041,-6431,-1473,771,-1607
3144,7072,1599,-2828,1797,941,1851
3145,3659,3646,-46,738,329,963
3146,-3854,-3811,2070,-715,-272,-1541
3147,158,-7334,-3360,-912,833,1584
3148,-1857,1918,-2770,-718,-817,1606
3149,-5856,-7389,496,-1416,428,-7
3150,379,-284,-6718,-830,817,-881
3151,1500,-54,-782,-373,1365,585
3152,-5868,4547,5117,1948,364,-1950
3153,3324,4269,6279,-506,1824,-633
3154,-2090,7828,2918,1830,1487,1959
3155,7264,-5634,-547,1892,1828,681
3156,-4169,-4212,3532,-1380,-1801,-770
3157,3692,-5857,5910,-1711,636,1555
3158,-6502,44,-3694,505,421,1571
3159,7640,7460,-7370,-139,353,-1535
3160,4066,2638,-5049,-1174,793,1196
3161,5008,-1118,-196,-1831,-1189,-1609
3162,-4754,-6443,-6935,-1562,350,-1236
3163,432,-1952,57,-1268,951,-1602
3164,-1268,4001,-4604,1232,595,489
3165,4241,4323,-14,-1748,444,-1485
3166,7391,-6159,225,-439,-475,629
3167,-4000,-5788,197,529,1754,786
3168,-449,4752,6827,-976,-59,-631
3169,-3791,3580,7514,-1440,-1697,-1710
3170,2540,2832,6316,1022,-1961,1909
3171,6383,-2626,490,1177,-998,-88
3172,7062,5639,2024,745,1204,290
3173,4325,-6588,-487,1735,-939,339
3174,-500,2834,603,0,-296,-1097
3175,-1346,-3102,-1241,-1204,-1904,1697
3176,-6852,-4533,-6062,1078,-307,392
3177,-5676,6596,-7409,-1301,-1669,-490
3178,-3641,2812,2624,-1894,1108,-272
3179,4034,6168,4878,-1636,1536,-1503
3180,5875,-915,-6992,-1536,1079,1735
3181,-3395,542,-4101,1006,-1220,1496
3182,180,-4420,-2539,1579,992,-965
3183,6724,-2454,-6751,-1936,1940,786
3184,-7536,2020,6089,612,-1088,1570
3185,-307,7790,7560,255,379,-427
3186,5398,6042,7524,1563,-975,845
3187,4130,-2304,7083,-1196,398,-113
3188,-3891,-2397,-5512,-547,1388,425
3189,-571,-2475,-2208,518,-354,240
3190,-6843,-2984,-1890,-553,-648,-617
3191,7720,341,7151,-1326,801,938
3192,5522,2846,6486,-1751,-195,242
3193,5952,3628,4949,204,-1344,-297
3194,7663,-57,4626,-1849,430,43
3195,4302,1788,-2803,-275,1426,1865
3196,-1427,-7695,-7436,-980,-68,1471
3197,6350,4529,-3358,-563,109,-686
3198,3824,5794,1874,-14,1500,1323
3199,4528,2391,-3604,-19,1764,1867
3200,1193,-438,4739,665,965,-1437
3201,-7447,3557,6366,1539,888,-229
3202,1446,3122,-4696,-701,-1377,-79
3203,457,-814,3843,390,118,-1726
3204,-6482,210,547,-628,1417,320
3205,1873,7295,3469,1161,1180,-18
3206,746,6565,-3118,-1053,398,704
3207,5793,6498,-3260,4,-1311,106
3208,3258,6896,-1907,1259,-451,1260
3209,934,-1388,-6104,1063,-1188,1810
3210,-1069,-2631,6988,-418,590,1211
3211,7994,-2515,7477,-790,352,1819
3212,-2937,-3581,-2731,1879,412,-1005
3213,2773,2092,-2391,1359,-191,910
3214,-2441,-5881,2834,23,1153,563
3215,-289,7486,-5522,1764,893,-422
3216,5976,5509,1662,-333,-1643,-171
3217,-817,3058,5410,-656,-1199,-1564
3218,-4028,4974,7233,-1001,176,-1199
3219,409,1139,-5794,919,663,123
3220,-2219,-2577,-6501,-517,252,-1674
3221,-5638,4338,7811,-872,-1643,1109
3222,-5612,-3103,-3441,1686,-638,188
3223,-1913,-7677,5654,-1445,-271,514
3224,7183,6251,-2888,-961,-27,808
3225,7028,3882,-6786,1889,-1042,1923
3226,-5894,691,5218,552,1559,-729
3227,-6779,4852,-6425,-1049,-797,-1210
3228,2483,3951,-61,-1220,1308,-601
3229,5435,1432,4441,-1929,1421,1484
3230,7414,-7566,4835,-1915,24,-720
3231,5180,-5312,-3687,1580,1234,933
3232,-7638,7861,2509,668,-1031,-965
3233,-7628,3780,4472,1402,-831,616
3234,353,-2932,360,-613,-1308,1245
3235,1507,4164,2075,1863,-23,-700
3236,6872,2842,-6461,856,69,269
3237,-7586,1406,5178,995,-1275,1690
3238,149,-5675,-5228,1082,1280,438
3239,-6120,-2976,3608,1632,-1318,92
3240,1048,1794,-1307,-47,-1230,-1458
3241,-4264,-3353,2914,926,245,1556
3242,-1823,3771,1770,11,-1933,1575
3243,2327,5045,-7066,-1537,-1875,-1572
3244,-1833,-23,-4505,825,841,-1633
3245,1464,854,-7976,-812,901,-1962
3246,2509,2194,7962,-870,-1477,700
3247,2012,-2240,-1075,-270,-1156,-245
3248,-6666,5990,-937,-1354,1105,-1590
3249,4190,2159,5111,1900,-489,466
3250,3330,-7190,-5875,-172,847,473
3251,769,6977,948,-363,1627,-514
3252,983,-5679,-6756,590,-1749,-793
3253,6999,1056,7119,1242,-233,-1438
3254,-3233,-1528,-6118,1051,-1055,533
3255,4587,-5033,2272,118,1300,1921
3256,7906,1297,4894,-707,-257,586
3257,-3351,-2528,-2770,1643,-738,-1656
3258,-6649,-1257,7573,519,-1139,-148
3259,632,-2883,-7022,258,-1572,402
3260,-7532,-6220,3441,1841,31,-1319
3261,7159,7911,3538,737,-1085,-686
3262,-396,2739,4515,-156,612,-475
3263,7521,-3197,7990,1344,959,-115
3264,-2917,5558,7824,-1230,1243,693
3265,-5880,-394,-5358,-814,-318,-1610
3266,3692,-6212,5830,1036,341,-1688
3267,3496,971,7772,671,1151,647
3268,2739,-3011,6234,1638,1227,796
3269,-6958,-6537,-3576,103,1811,-993
3270,5023,7647,6635,1423,552,-366
3271,-3785,-829,387,1841,-1171,-468
3272,-2359,-710,4635,-435,-1868,-1717
3273,530,4108,-1273,1626,154,-568
3274,-94,4643,1339,138,-1440,-921
3275,-2848,-6829,-4593,-1521,-1809,1911
3276,-893,2386,3760,-1543,-1305,-1648
3277,-3805,1467,2941,-1901,150,1971
3278,731,-5785,4764,-527,685,975
3279,734,4519,6200,-831,-193,1314
3280,-3723,2264,446,-1898,898,-677
3281,-5690,-5832,4016,1932,-987,-503
3282,6807,-6749,2354,1919,1110,-519
3283,-7488,101,-1098,-749,-205,350
3284,-5578,-5673,-1423,704,742,1966
3285,-478,-2006,-5413,544,163,-1055
3286,2484,-2064,2254,-922,-1347,-1308
3287,-7628,3738,6564,1906,1284,1488
3288,6086,-5490,-7449,808,1897,-661
3289,7307,1364,-2186,122,1770,1468
3290,623,5773,-2879,-1384,-1796,142
3291,-5496,-6813,-1822,-1994,1586,964
3292,-458,5804,-240,388,41,1372
3293,826,3219,-4789,1163,-115,847
3294,6470,7045,4129,-1032,-762,-996
3295,-3181,5847,-5281,809,1336,1707
3296,-525,7730,7435,1622,-1373,1956
3297,-7873,1333,3680,1065,-1069,-1465
3298,6058,2326,-3585,-141,509,-981
3299,-2876,4242,-6517,-1706,164,577
3300,-704,5832,-6240,1141,1126,-1490
3301,7286,-882,-956,1069,1693,-764
3302,5237,2020,-3349,-1262,1652,-335
3303,-582,-7935,4729,-16,346,-1578
3304,-4036,4480,-993,773,-1053,-321
3305,4335,-3430,27,1996,-1245,1731
3306,-4273,1824,1004,-509,1036,187
3307,2052,351,7486,-1530,-757,-579
3308,2932,-211,7397,1667,-1817,-584
3309,7129,5908,-7260,348,1171,-165
3310,-3070,-5552,6399,-1604,1905,639
3311,5177,-3318,-373,-937,-317,409
3312,-7381,5327,4316,853,-1799,-1946
3313,-5342,-2571,7071,1744,-1368,-1566
3314,-66,-4851,6550,851,-397,-1583
3315,2800,-3287,-3886,-201,-15,633
3316,6806,5977,-7059,-1773,-443,125
3317,-1819,-2008,-5672,-1187,-415,-648
3318,-7942,107,1936,-1464,1993,1084
3319,5577,-7213,6926,113,591,428
3320,-5091,5968,-5548,-1279,650,1849
3321,729,-5297,4788,440,-1971,1471
3322,7025,-4301,6330,-1039,892,-6
3323,-7727,276,-2079,470,-493,-1171
3324,-3158,2047,-749,1102,211,1311
3325,-4526,7286,-745,-1912,809,1856
3326,-3900,1095,2119,-1720,-373,-805
3327,-707,3045,-481,-1659,-713,918
3328,412,1891,-861,1663,-1813,-1364
3329,1370,-2194,-4517,42,1131,-1751
3330,-2828,5605,-4272,-1335,-1781,-356
3331,-5031,-1794,-1924,-1650,1694,1032
3332,22,-5805,-344,1823,741,205
3333,-16,-3547,-384,-589,-1407,1673
3334,890,4334,2801,255,-1108,-1486
3335,2070,5641,5098,771,-1141,925
3336,6231,-3040,-3942,1139,1352,-1300
3337,3194,-7722,931,-1591,1058,-346
3338,2365,1144,2091,1323,1853,-1953
3339,2205,3489,-2854,1014,1989,1902
3340,1977,1036,5325,1434,-1975,-857
3341,-4497,-2115,-2285,1401,607,-706
3342,7570,-4982,-3944,277,-971,-443
3343,7654,7089,6336,1768,-291,-1313
3344,1770,-3398,6297,185,-1030,-1882
3345,-540,100,5848,312,898,-1025
3346,-4776,-2606,2155,272,1406,948
3347,496,1820,-65,-1957,1148,208
3348,-5192,-3616,7684,-126,-1416,-213
3349,-3722,1873,-4111,1253,-1147,-1182
3350,159,-5866,905,-129,-1262,628
3351,7152,-4050,2969,-1003,641,-852
3352,-1473,-5604,6524,1888,-955,245
3353,4830,7689,6057,1984,-1886,537
3354,3061,-3731,-4720,235,8,-1021
3355,288,-4960,-1888,-195,-1977,-1992
3356,4749,-1682,-4573,814,-810,7
3357,-6240,-2986,-4618,-967,-813,1616
3358,-4755,3878,4082,-1605,1885,1608
3359,-5016,5202,5503,714,1916,-112
3360,-3642,5941,-6403,-1794,1307,815
3361,5253,7390,1299,575,797,1298
3362,-3838,340,-2644,1761,19,1246
3363,-4230,1088,3051,-1915,-1418,634
3364,-2152,-5082,-5224,-1548,1789,-621
3365,-6292,-3215,855,-585,327,-1116
3366,345,-4285,-5707,615,-1887,1831
3367,608,3405,170,1596,-1963,739
3368,4294,-5421,6466,395,-1132,509
3369,2208,-6419,-5974,-21,1621,1654
3370,2638,3188,1263,1100,-918,450
3371,-3150,1289,2142,-584,-101,-968
3372,6127,-2093,-1265,324,-571,332
