Sample,Ax,Ay,Az,Gx,Gy,Gz
0,-902,5782,3317,-764,1447,654
1,1244,904,2342,427,-1136,-1095
2,7236,695,4800,-434,1505,85
3,-635,-6888,-5760,-1155,-1886,895
4,-4950,-2920,502,1321,1908,-707
5,1839,-3268,7851,463,-1236,-1550
6,-4572,-1023,1859,-825,158,1742
7,3042,3278,7775,1251,-216,-48
8,388,-2308,357,1126,763,1831
9,4028,5195,-3071,-1265,1420,1915
10,-7094,4299,3027,1060,1962,-1405
11,324,-4891,-5773,-1510,-1365,864
12,349,-3710,3150,309,1485,425
13,-5341,-7364,-7780,-1056,1136,-1099
14,1801,7606,-4701,-187,-1314,-39
15,1976,4774,3174,-1301,-101,694
16,3865,7614,-6821,-1557,-897,-1951
17,-2429,-6211,-3600,-186,-340,1320
18,-5589,5490,7559,389,-853,-1680
19,-6964,-4764,3754,1703,1833,1118
20,-7394,2898,-2929,488,-37,483
21,-3220,-4131,2042,1670,1600,-1985
22,3621,-4763,-213,-1435,-1684,-1968
23,671,468,2892,99,1520,566
24,-3178,5638,1821,-507,442,433
25,-2795,6393,-3226,1295,511,854
26,3929,-6687,3815,1755,-1452,947
27,-879,-4462,-2509,-515,-1382,1964
28,5057,-473,2162,1349,-606,-877
29,4571,5460,6204,576,-975,1505
30,194,-6553,848,998,1760,-805
31,7527,-2120,5861,1977,-291,-431
32,-5006,-5658,7419,-633,164,195
33,-3867,-1115,-7898,1469,879,-508
34,3416,-7679,-6675,-206,-1883,737
35,1260,7980,4056,721,271,-925
36,4887,-4706,-3317,1590,-198,675
37,1260,-6163,3737,1181,-943,-573
38,-5800,-5542,404,1239,-1513,1748
39,7443,3562,-7456,-402,-1841,1370
40,-3329,6873,-3204,-1939,-547,294
41,-1269,2123,-3263,1007,-1007,136
42,6561,6540,-2278,971,-479,1572
43,5985,-7217,-5739,-1096,-11,-1276
44,-4378,1971,-1641,-1464,-1205,1657
45,193,-5840,-1947,-870,-1240,-679
46,7739,7929,-5054,-226,-787,1004
47,-3104,-7678,1684,-1707,217,1156
48,-3865,-1245,-3283,-1326,-1539,-1007
49,-668,6150,-299,1945,450,166
50,-6162,-1487,189,-814,-1081,-1817
51,4363,-295,-6823,-1171,168,1434
52,-5839,6437,-3270,-1415,1356,1266
53,164,-6698,6983,1076,1469,-1621
54,1881,-3991,-1388,-345,-1478,-931
55,2519,-1104,-4503,28,-844,-841
56,1623,-4154,-1259,789,1566,-1161
57,6189,7877,-6965,624,-386,-1078
58,-2118,2525,-6700,-389,-583,-209
59,-677,5739,-7019,1990,-1900,-1280
60,2032,-4992,-6492,-1305,-809,-522
61,-7273,-6660,-1101,951,1351,-1041
62,7296,3563,-1269,186,-904,-1026
63,-3114,3995,5831,1510,1823,-1524
64,452,6478,-3783,1437,43,-1624
65,-1407,7020,7147,50,1929,1323
66,2100,2113,3087,-1973,771,-1445
67,-2160,-4801,566,-1762,330,-1141
68,1867,-6465,452,819,1459,1324
69,-7435,115,-5153,1697,624,-1635
70,-5879,-1431,847,-1619,1320,1785
71,-2669,932,2867,1904,1361,-869
72,-1335,4260,-4012,691,-327,-146
73,1141,-457,6911,-618,820,1292
74,5031,2691,-148,-834,1875,1184
75,1048,-6797,1649,-835,-597,89
76,-6345,-6384,6763,-1096,359,-1437
77,2223,-5948,3820,1801,1854,1793
78,-147,4859,7544,-1038,-1803,-1893
79,3133,684,-2453,-297,-1960,937
80,7017,-7655,-286,-341,-1624,1742
81,6853,-6239,3344,-1095,-1524,1257
82,-3902,-7724,-7756,1998,382,272
83,3791,-498,399,-1996,-1538,-472
84,3497,2603,5466,880,-1204,-707
85,576,1748,-4270,360,-1233,-1804
86,-7015,-312,-169,-1740,-1350,1005
87,7037,-7273,5453,-647,-1345,1501
88,6413,2705,-6796,-910,-681,-283
89,7205,7707,-7758,785,605,-511
90,-1541,-233,5953,1280,-741,-805
91,4354,-855,-7846,364,-599,-1338
92,6891,-5284,6814,-207,981,140
93,3223,362,-524,201,1389,78
94,-3906,-4678,-5690,202,708,-1973
95,-1267,-4330,-7071,1092,1621,-650
96,7247,496,6514,-1291,-659,75
97,489,-282,-6456,1686,1707,-552
98,2576,4121,-4101,-1343,-1831,-548
99,6601,-2996,3166,1061,347,-1602
100,-4318,4113,-1207,-70,-466,1560
101,7199,-7215,5125,-641,711,-445
102,6229,4827,-7228,772,-1700,1561
103,7653,-5267,5276,1121,63,-1600
104,4883,2026,-6890,-789,-628,762
105,-2465,-3765,6353,1804,864,817
106,-7883,6040,6407,1882,-865,-812
107,2304,-1644,5607,-1546,1206,1311
108,3996,-1682,6549,-531,-993,229
109,225,-3535,-3533,-69,-719,-1419
110,7828,3674,-3227,1288,1036,1456
111,-4950,-237,3171,-814,-421,-299
112,315,5359,3027,446,1921,1960
113,-740,681,2707,-106,-1070,1760
114,4922,1184,827,-1187,-438,-1721
115,4716,-2536,43,-1765,-1829,78
116,438,4747,-714,-1245,1859,-912
117,-3642,5907,3693,-1341,1872,1951
118,4222,2497,4038,678,-181,-753
119,-1043,-3719,7631,-1618,-1670,-396
120,-6857,-7509,7123,-1639,1052,-1340
121,-7330,-5386,3203,501,621,-928
122,-3074,4574,3035,990,-974,-117
123,-7836,-2140,-4853,-226,-610,-592
124,7535,-2162,-1695,-1474,-1818,-102
125,-1811,-3435,-3636,1307,1360,1532
126,3981,-3807,4845,140,-1041,1005
127,-4162,-7287,276,-915,1905,1523
128,-4492,2751,955,1951,1197,1472
129,-7517,-7899,234,-1866,-1275,-614
130,7328,6388,5005,-496,506,-1947
131,-3844,-1367,2905,-494,-700,885
132,-3787,5978,6932,-385,-1335,1117
133,931,-5737,2928,-974,1720,1738
134,-776,2986,3234,1568,1308,-783
135,-3870,5237,-2170,-436,1155,1016
136,-3289,5809,6281,1014,1847,27
137,574,-7396,4134,1998,-29,915
138,-5949,4370,1155,753,-930,1106
139,-2802,-7621,4030,-1912,805,1659
140,-6339,7799,4564,1021,656,-1414
141,523,5291,6247,-229,-597,-1729
142,-7699,-3737,-3549,860,-182,-412
143,-7580,-7614,4296,-372,-1464,-279
144,303,333,-1222,1241,-10,1110
145,7655,7729,-5706,1542,-183,1138
146,2788,1816,-5870,-1948,-1841,-1933
147,2391,2508,2475,686,-429,-1832
148,-3621,-3928,-4003,-636,1247,-752
149,-6098,-5739,7117,-87,155,1060
150,-6637,3713,4932,-846,1914,-1907
151,545,3975,6197,1211,-425,-1647
152,3590,-824,1555,1211,1117,-1298
153,1412,-2806,2024,1137,-760,-1139
154,-2291,-6509,-4465,-14,630,-1734
155,1263,4909,-148,1805,107,966
156,-6795,-1034,-7330,1626,-491,-615
157,1840,-2204,-1085,-1186,-227,785
158,2179,-6410,2072,235,-1322,810
159,-1503,-5459,-1512,-418,-1662,-850
160,-1198,6575,1589,-717,-1458,1813
161,-4471,6147,-2940,1386,-1875,-1693
162,1049,1799,1370,-349,304,-1634
163,-6288,2797,-5610,334,-1458,-809
164,5568,-2801,-2511,763,984,471
165,-509,-5082,6616,-876,-1227,-192
166,-7932,-7972,-5263,-437,63,681
167,2541,-2638,-5306,148,-1803,-1680
168,-1910,-251,-6434,712,706,175
169,4582,4075,-4444,-1947,-726,-1808
170,-7635,5323,5507,302,1028,1152
171,-4437,7330,-2319,-1135,915,-342
172,-6217,4252,4580,764,1853,322
173,5036,-2944,4774,-11,1286,-1080
174,-5583,7768,5437,-1914,24,238
175,6844,-56,6317,-644,-585,-959
176,-2438,5407,4231,90,1926,1914
177,-5107,-3918,1467,1436,1285,-326
178,-5958,-2975,-7041,213,1494,-291
179,246,3933,3289,-135,-189,782
180,3772,-7732,3603,1335,1874,-1604
181,7459,-4918,3091,-1967,50,1936
182,-6311,3200,3434,-906,1463,-1378
183,-153,7940,5042,385,-1270,-485
184,2721,3271,5529,-1539,758,-1156
185,4669,-529,2084,495,-1516,599
186,-1411,-6345,-3313,-1566,-499,-201
187,-190,-690,-4614,-1838,-733,1479
188,2388,-4594,1915,77,-403,491
189,-4056,6899,-3766,-648,-271,-1662
190,3701,3881,-2942,-179,-1860,-1560
191,3757,-5546,1795,1759,1976,-1307
192,4533,6788,-6847,-1335,1870,1384
193,-6154,5213,3878,-285,-1827,1338
194,-7809,4497,1959,-906,1751,1157
195,-6411,4251,5460,1459,780,-1681
196,-4473,840,-4174,-1221,-1642,-1190
197,-1862,5590,-4362,-1876,-1073,-790
198,6878,5751,7412,67,251,-890
199,-5355,5069,1771,-483,-179,123
200,-3890,-1802,558,-1033,-276,-1203
201,2958,-7208,-2821,5,-326,-44
202,-5102,3312,2007,1035,-1094,-596
203,-1428,7450,-4717,1909,-1696,1710
204,-7702,-4318,4006,-1249,-1880,89
205,-323,-7710,-6950,1150,1932,-1609
206,-4332,1172,-4509,1647,404,354
207,2815,7977,-1418,132,1368,861
208,4594,-6608,4056,603,838,240
209,-2340,-764,-7094,1551,-1681,1326
210,3747,-1972,5986,1332,572,-1484
211,-4845,-5395,-2842,-510,988,637
212,-595,-7604,-2423,200,1826,1933
213,617,7034,2868,-78,-1818,698
214,-4810,-3633,5338,1003,1298,1737
215,-1948,4284,-7321,967,1467,1968
216,819,-1598,-2299,-585,825,-1232
217,2468,-1907,-285,-782,359,210
218,-7257,-5468,-3954,1409,-402,-572
219,981,1437,1770,825,508,312
220,5361,-2915,3246,-1688,185,-188
221,3830,-571,-1907,1031,296,-1177
222,1551,3361,-1061,-259,943,-370
223,-140,1865,-1723,166,1150,312
224,3106,4466,-1210,1517,253,-988
225,1404,6484,464,-1849,-1131,-121
226,-4817,3542,-1775,-446,-743,-923
227,2221,7607,3552,-892,1260,-1893
228,1320,6385,7831,809,357,-1044
229,-4743,-6477,-7933,1777,-506,-1017
230,-6344,-752,5587,477,-1460,-290
231,3547,2412,1409,1388,-813,1211
232,872,6048,-1401,-1427,1421,1612
233,7472,2710,-1517,-907,218,-480
234,1166,-6505,-6813,15,-1311,-215
235,494,-4321,-776,220,-1937,-827
236,-5626,-5741,-3036,1519,1497,896
237,5913,-2545,733,-1614,1398,-1385
238,-2940,-6503,18,-57,269,-173
239,1010,5881,1386,1559,261,761
240,-2105,1042,545,-1286,832,-1664
241,-3829,-1006,-3386,401,1714,-365
242,4055,-3957,2012,1718,-1515,973
243,-3050,3453,3611,-540,404,-1575
244,2909,-2765,-556,-529,1595,1074
245,575,7939,-4339,-1120,1476,-57
246,4008,320,1938,-1002,-1051,-1945
247,-2872,134,6586,-793,-1690,1665
248,-2221,-2648,-5204,1812,-1743,-881
249,2305,-4190,-3802,-1901,1142,-832
250,186,-6541,-6431,-1475,480,1782
251,-7153,1086,-1994,501,32,-941
252,7103,3260,7327,-1916,1461,524
253,-1184,5048,-5089,-1410,-1221,247
254,-4446,729,-1889,-1605,-69,1560
255,3908,1324,-7044,-21,80,1970
256,-6038,2599,6183,-902,332,-956
257,1173,7389,-4146,203,-696,-1493
258,-1748,-7865,7495,1794,1407,1189
259,636,1967,4119,-1523,395,-1562
260,29,-4619,6830,-1834,912,-1398
261,2139,3379,1024,-542,-974,-685
262,-6928,1526,-696,1603,-124,-737
263,-2532,-5758,-6745,1776,411,387
264,-2825,-2629,1803,-485,-1803,-1223
265,-3093,3414,11,-645,1515,1020
266,-4544,-7780,-1615,1318,1792,-1237
267,-2256,6299,832,-1340,-1303,1256
268,-5466,6056,2846,-1580,-1852,-65
269,5144,5322,3368,-499,1922,326
270,-1025,-4911,5738,-1904,1359,1786
271,5550,2371,-237,851,1320,-379
272,1174,-2299,259,1331,664,-1277
273,-455,-3385,-591,-1101,1703,-925
274,2225,3730,1770,780,1211,401
275,4745,5006,66,-1960,1084,1379
276,-883,-1266,-6691,1678,868,-12
277,6172,5922,-3450,-1421,-1244,1548
278,-2547,-2774,7344,894,1280,-319
279,4483,-6201,4094,-651,-1261,-1579
280,6340,1651,-3176,-1433,1191,839
281,-910,4852,-3933,-582,1637,782
282,5269,4331,-5121,406,-848,-218
283,-2836,5104,-5105,1947,-1464,-15
284,-4627,-1678,3959,377,109,-127
285,-4432,3273,5654,228,-1730,1560
286,-1092,1658,-5522,-1296,-983,-584
287,3564,6747,-3144,-1708,879,1895
288,-7553,128,1865,-1143,1896,-1269
289,3654,5642,-4336,-770,1847,-1708
290,-6262,1540,1171,-228,-1020,-1833
291,-5305,5364,-1383,1776,1666,916
292,2915,-2850,2208,-1273,469,1835
293,-6079,-2750,-6393,-735,-1165,-840
294,-5136,-6258,1519,-689,981,1238
295,-6621,-5588,3524,-1075,-1809,1631
296,875,1259,-1059,361,1195,-743
297,5306,6850,-6164,-24,1823,1254
298,6916,-1542,6216,-1925,-1909,-1208
299,-6990,4604,-5547,1436,1023,85
300,-4075,991,584,-1355,271,-196
301,5263,-6241,6660,1576,912,46
302,4417,-5299,-756,-664,-628,-1510
303,-6675,7579,6596,-645,948,-1798
304,-5429,6181,-2532,-840,-1768,105
305,-2646,1152,-6444,-874,-319,691
306,5232,5283,7534,1236,31,1771
307,5287,1765,5328,1258,609,-1872
308,-3048,-7448,3386,-665,959,93
309,595,-3605,-4084,-558,1294,309
310,3331,-4521,3177,-1486,-1179,374
311,7172,2458,-5457,165,-1961,1700
312,-6133,6372,1771,453,1636,1087
313,4150,1968,2273,-743,79,-1193
314,2283,6625,-4146,43,1086,828
315,-480,3754,-5762,74,-1134,508
316,-6942,-538,2360,-1490,-227,444
317,-7997,-6035,-988,704,1102,617
318,795,-5956,-5946,-123,1058,1715
319,7377,-998,6032,1269,994,60
320,4186,-7025,6707,-1280,973,-1590
321,-4677,6167,2005,-1440,666,-1908
322,-5058,-3134,7955,-474,1248,-369
323,-37,-6906,5210,-506,-983,1722
324,5922,-1278,729,-1635,1519,1207
325,-1318,-3604,-7519,200,98,-1503
326,-5461,3059,6523,1236,1068,463
327,5338,6561,-1351,-287,-1043,50
328,-449,7085,7227,760,1879,-95
329,-2583,6937,-1125,-1548,1579,-774
330,-71,-2952,-7602,978,1436,902
331,-7234,-5984,-342,-834,-1645,1983
332,4242,1783,-3105,1372,-41,-1755
333,-6676,5567,6390,813,109,-232
334,2131,-7870,-382,1653,-869,712
335,321,-5129,-30,675,1705,516
336,368,-216,-3348,1936,-543,-1253
337,-7547,2053,-1825,-970,857,379
338,-2248,-6835,4229,1518,1927,-1144
339,5701,6306,-3714,1168,-1709,-1714
340,-1902,-3137,1142,-620,-238,1175
341,6397,-3810,-4260,958,-1797,-1804
342,7369,6916,-1221,518,276,-96
343,-208,-7782,478,-1235,-1169,-1832
344,6814,895,7058,-828,922,-1515
345,4095,6524,-6616,143,692,1444
346,6510,3419,5732,-911,231,1359
347,2186,-6973,-7920,1358,857,-582
348,1803,5364,210,-1770,1522,-1514
349,1212,2537,3070,903,-1459,1172
350,2357,7324,3440,993,-77,1030
351,2409,1269,6348,814,-27,154
352,6529,4380,-1664,-850,1524,-8
353,7151,-6874,-6378,-675,-1543,-472
354,-4616,-5026,4766,830,-619,-1058
355,1099,1210,-597,1460,-237,-939
356,2589,-2870,2441,1662,1415,-384
357,-2327,-532,7560,1308,-1220,1441
358,-3006,1892,7416,-1800,-668,92
359,-5617,2165,1129,1063,-1465,167
360,4014,7795,1561,-1242,1194,1809
361,-4561,6673,-1216,-1815,1495,-1200
362,-2471,-1713,3446,1125,638,1186
363,-838,4824,1679,615,-1561,-924
364,2758,-3331,3422,201,-1511,-72
365,-3861,-1854,107,-143,-983,-377
366,-3264,-5039,-2034,853,264,647
367,-2792,5840,-3530,1560,-616,304
368,2803,-2176,530,-478,-541,-447
369,7945,3376,7604,1740,162,-785
370,-3928,2529,3969,1756,-669,133
371,3989,6643,824,-1366,-83,-382
372,7022,-5136,5781,-1081,136,1063
373,-1944,-788,6038,-1293,695,1154
374,-4562,3342,2755,-398,840,-760
375,-5943,-7618,2441,1579,-1585,1551
376,-723,-1021,-5814,-1402,-1581,-1240
377,-679,2359,5188,1703,-1475,-186
378,-5837,2380,225,-1572,-1903,20
379,-1788,-6357,-3791,-1340,1973,275
380,-5976,6921,-4501,-401,1005,1610
381,5543,1806,2579,-1590,1438,-445
382,1840,-4497,5996,-1626,694,-533
383,3103,-2618,965,-628,-464,-287
384,-5934,-4892,7226,-156,-1949,-1158
385,178,6752,109,-1453,-1002,926
386,-633,3168,-3540,-772,1901,-1120
387,1501,-409,80,1962,508,1009
388,-1987,6675,-5689,-1919,-1093,-818
389,5202,-6251,-6021,-420,1195,1013
390,3186,6532,3027,-540,1538,350
391,-6286,-4415,838,-55,-206,-997
392,-4110,-6509,7158,1646,-441,1184
393,3716,-6209,-2730,1975,964,-374
394,5467,-3306,6894,-1567,-1606,977
395,-5556,4165,-3118,-79,-225,-583
396,3071,2885,-2490,-1992,1529,-664
397,5205,201,-6559,894,103,1950
398,2240,-1233,-7878,-1385,-1782,561
399,5136,4408,-5089,-1830,-1690,-1398
400,-4690,-6654,-4324,-1575,-1005,-1958
401,5591,-1444,6167,-1517,497,-164
402,4791,6281,2420,102,-1811,289
403,5032,-1294,1036,235,-1965,-1566
404,-7492,-198,-4605,-98,-309,-1440
405,4498,363,-3192,-713,915,91
406,-4975,5900,-939,445,-434,78
407,4802,7899,-2127,1989,-78,-1729
408,-6796,1519,6436,-716,-1010,-1672
409,2917,-7401,273,-844,-1205,-1310
410,5007,7812,6064,-539,-1707,1873
411,6712,-4294,-7209,-1449,-638,-1302
412,4031,-3476,3922,215,181,-703
413,-1971,-1284,-150,-778,-734,-291
414,7587,-2385,-2380,-1740,-53,815
415,-3136,-984,-6879,-1284,1058,-1722
416,-6038,7362,-7872,841,729,-67
417,-6504,-7609,3186,-803,-864,-1006
418,-455,-2463,-7524,-1234,270,864
419,5882,5787,6605,-1949,1162,1802
420,1035,4135,-3015,-409,1628,135
421,2787,-7624,-4436,-705,-189,-872
422,-4649,2809,-3584,735,-1167,1892
423,1870,-1684,-3762,1078,1546,539
424,-620,-636,463,-1230,-1975,1814
425,-1704,-7900,5017,279,1022,-1320
426,2802,-4694,-4400,-52,-28,-1108
427,-731,-3827,7399,-667,1532,-1051
428,-7879,5653,-4344,-1653,725,-1522
429,-7439,-264,6605,183,1332,-1211
430,-2098,-5400,1467,-864,-1927,-1817
431,2643,-6352,221,-272,-1755,1957
432,3314,-3760,-3014,375,-636,-1095
433,-7260,286,-6776,-388,-1082,251
434,-738,-1813,-1630,-146,829,-795
435,-7350,-2017,-4133,1466,-1631,38
436,-4994,-7577,-4495,-1897,1391,-499
437,-4681,-6538,7932,1567,1412,1247
438,-3947,1431,3611,-980,712,-104
439,5763,1037,2230,-412,927,-850
440,4644,-5621,-3209,1235,-346,-363
441,890,-6919,6967,501,-1658,-510
442,-5979,-3820,-3471,676,-1627,-1342
443,-6895,-2412,2110,-602,1572,-486
444,-2046,1710,2300,353,-465,1501
445,-4864,174,1071,240,-333,559
446,19,5926,3350,737,-856,-1758
447,-1,4533,1650,-264,-83,-307
448,7653,-5093,1021,1080,1834,-1664
449,5340,6173,4221,-1155,1251,-153
450,4442,162,3421,-1375,-156,-1336
451,-1732,6610,-4130,-632,270,939
452,-1256,5165,1969,-1964,-1142,-160
453,3703,6715,792,1037,-121,-1987
454,-4952,1721,1678,1233,854,1659
455,-1683,2688,7769,1040,311,1241
456,1895,2083,3826,502,-1914,879
457,-4960,-6716,-3613,1741,180,-327
458,6381,-904,-2923,-1014,-768,1745
459,6309,-1003,-4847,-1630,589,-284
460,1948,3378,1936,444,275,-1988
461,-4700,3694,-3391,795,-270,-1045
462,-7000,-1896,-6314,1329,1470,-757
463,-4479,2859,-4848,-1884,-382,-1450
464,-1144,6707,-966,-1756,-1450,9
465,-6395,-3737,3284,-855,-151,-1103
466,-728,-6229,1514,-568,1161,-1168
467,-5141,6647,4393,1859,50,1626
468,6641,3090,4722,-818,1089,1890
469,-7000,-3985,-2372,1694,813,1775
470,-5539,5306,-5218,-1752,589,-1505
471,-7124,-5266,7866,-45,-430,-1615
472,-7383,1191,-1192,-1787,1166,647
473,-433,-7718,-3914,615,-589,1667
474,7112,-5491,4168,-1028,-1791,1100
475,3322,6345,-3031,-561,-760,1954
476,5822,198,6589,1731,1529,1028
477,4036,-3352,187,-1915,-214,-959
478,-1107,-209,1796,1398,363,1712
479,-2725,-5035,-4392,-474,1529,1189
480,-6349,112,4881,-291,813,-706
481,-3531,2373,-6708,-308,-1196,-995
482,291,-1880,-4688,1735,956,-269
483,-7828,7894,7883,681,678,962
484,2771,1676,4596,-735,550,-990
485,4085,-1568,-3462,110,703,1418
486,-256,-4140,-3556,1166,-1630,660
487,148,-4759,-3319,177,215,-757
488,-1653,6459,-4288,362,1787,1459
489,-4755,2804,4986,1287,1275,-1787
490,5224,-5625,-6303,1196,-867,-1002
491,1633,1399,6958,-1701,-1575,1837
492,-7943,-4327,-7044,293,-576,-1648
493,-2963,-974,-4975,-1470,1125,980
494,-3549,7695,-7242,-1595,-911,1761
495,-604,-2770,6544,599,1125,1332
496,-1497,5936,4697,-1384,-146,1288
497,-4533,3925,-3838,1240,1597,-773
498,4905,6603,3266,-456,-1096,1266
499,-2674,-1444,6313,1669,-205,1221
500,-768,5294,-196,54,-1386,1565
501,3109,-377,-4085,282,-1469,-463
502,2557,6067,6214,-1999,1777,-1931
503,5846,-702,-5992,-305,1315,1322
504,554,-2710,-4240,-1093,628,-1869
505,3608,7124,-7869,-848,1260,863
506,-3494,-5367,5405,-72,1372,1051
507,-4865,-7964,4696,853,312,1220
508,-3042,1491,4843,-1758,-1948,1303
509,-5511,4467,4678,417,57,888
510,-3027,-2787,-5177,1342,-820,-543
511,-4902,-7037,-880,-585,-1744,-831
512,-2689,4867,7466,-357,711,-240
513,-3265,6564,6034,255,-900,416
514,501,7358,-3753,-438,-1369,322
515,-1552,-5235,3910,769,-1206,944
516,-4112,2834,-7403,-865,-1511,-928
517,3549,872,4598,-1861,102,1300
518,5764,-116,5195,868,306,-1275
519,7177,2959,-1719,-656,870,1433
520,-3191,-1732,-1259,148,611,-1268
521,-6551,7709,6181,-1713,-1071,365
522,2669,-2884,2260,-1923,1256,-952
523,-7488,2807,-4936,-429,1204,908
524,-6071,-4133,-4144,-961,1802,1457
525,6661,-6698,-7393,775,-214,314
526,1732,-684,1654,40,-1923,-1648
527,-6675,-2293,-2344,-666,-255,115
528,4807,-5533,686,-1783,681,-930
529,1812,7329,6905,1320,88,1474
530,7973,-1562,-2737,1510,1938,-1580
531,6170,-3774,5025,1948,-1428,1150
532,-6092,5503,283,941,1370,1185
533,-3536,1695,-1706,-1119,-900,689
534,6681,786,3300,-1040,850,1631
535,5936,4683,2784,-706,1978,1416
536,787,2655,-5056,614,-1469,1458
537,-664,-2556,-1599,1259,203,-650
538,-2327,5813,2784,617,983,-195
539,-2785,-648,-4005,722,796,-1592
540,207,-6551,-6036,-507,65,-1048
541,-4718,1105,1265,180,-1523,-1933
542,-1501,-6121,4071,1775,231,619
543,6488,-953,-3007,-1408,1669,383
544,3437,-334,-3600,-1562,-240,492
545,-2298,2221,-6030,-1198,767,-356
546,2232,3219,-6746,-1952,426,-1057
547,-3417,3950,-3939,610,-992,1614
548,7626,7978,6520,296,675,-143
549,4169,3805,6198,-193,97,-732
550,-3493,3508,4476,-296,1419,-232
551,-324,2010,5770,-1944,-529,1284
552,-5499,267,5860,-1,408,-287
553,7917,1643,4083,-76,478,1192
554,2672,7409,3140,-100,-275,913
555,7358,-190,3905,-1361,-342,-770
556,907,-7646,-5021,1185,-1287,1671
557,-4004,896,3715,1746,1427,1718
558,-4603,-840,-5208,-592,-151,892
559,2221,-5098,-6041,-1544,-652,-1803
560,-4165,-7935,-7761,1803,1193,-1857
561,-2320,-4225,6555,-1879,289,965
562,-5188,-5525,6977,-356,-504,582
563,-3360,3291,-957,547,-472,1983
564,2963,-3452,249,1758,505,-1453
565,7209,-7267,1505,1599,309,-959
566,1318,-2864,-4082,1960,54,1408
567,3305,-2974,900,1684,-1513,1791
568,1947,-7347,450,972,-562,1439
569,-835,6267,4124,677,-1680,274
570,7299,1628,-4600,-1372,1355,-1753
571,-804,5374,-4706,-1436,-1019,1223
572,7683,6403,4163,1213,-872,-1157
573,-1893,3653,6559,-877,-1804,1385
574,7765,2308,2039,1409,-1311,1086
575,280,5996,-1646,-947,-1505,-604
576,1911,-4487,2942,1429,29,685
577,5635,6949,-5086,870,1477,-1672
578,-5581,-6576,-2669,116,-1868,1326
579,-5326,7578,-7222,303,-980,1888
580,-5393,-3068,7790,603,-239,163
581,-737,5807,3675,-669,28,1235
582,6841,5329,6544,-1597,611,-560
583,3242,-5325,-7069,626,-979,1321
584,6792,-5576,6399,677,-154,-330
585,1045,-2126,1676,-687,1785,-334
586,2786,-6059,-1882,-327,402,-1467
587,7976,258,-6046,-1694,1222,1372
588,7142,-3765,6461,-1411,101,640
589,2438,-4668,184,525,-478,1119
590,3184,-2327,-3724,765,451,-1821
591,6670,-2099,1668,-2,-1655,245
592,-63,2059,-6794,123,-1908,31
593,3510,-6369,6997,-486,1267,1613
594,4801,-464,-1110,-384,-1225,1446
595,-3723,2852,5858,-1290,-1297,1837
596,-223,-6400,-4113,1472,1608,825
597,-6298,2295,-7075,-881,-817,744
598,-558,7637,5265,779,-346,-1614
599,-7334,5994,-7071,774,690,1411
600,-5402,-5810,4124,-1688,-878,-991
601,-6282,2222,-1627,-474,314,-1311
602,2109,4929,260,-1716,-521,-1145
603,967,7594,-6032,1184,1378,-660
604,5177,3993,7582,-1032,-1609,601
605,6282,-2236,-5322,-174,1188,891
606,-4808,-2279,-4147,-576,-1667,760
607,1006,787,-3989,-1776,-1455,-1238
608,-760,-7668,5307,-637,57,767
609,2648,6105,-3684,-1202,-1366,1715
610,-6764,6632,-369,-302,-1286,-512
611,7858,-1417,6520,-189,1201,1005
612,-5632,-2631,-7471,-776,4,109
613,-2782,7880,-6403,1222,-1279,-1583
614,5205,-5746,1574,-1690,1613,-1444
615,-1858,2006,-4662,-222,-681,1044
616,6256,-576,642,966,-1134,-9
617,-2153,893,6512,-556,473,-138
618,-2741,-3599,2253,1906,809,459
619,1630,-1713,-6739,-131,379,761
620,-2409,3808,-2526,947,-939,1199
621,-1551,2853,-6561,694,-835,-823
622,-2926,-4138,-1259,-1216,-385,-127
623,-5803,-3854,3377,908,-701,595
624,-294,704,-6439,-525,626,930
625,-7391,-4018,-7706,1775,18,36
626,3843,-6339,4072,1656,438,624
627,-321,-7759,-5238,-643,1481,-1439
628,-4249,2467,-7194,-1849,3,172
629,-4991,-4880,-6530,-1729,-437,1453
630,-4701,77,-7433,-538,169,-237
631,6347,2302,-2090,1695,-548,-1694
632,6845,4560,-1864,-1913,1548,975
633,-2507,5374,-5636,-545,760,1944
634,-6854,5022,5064,285,-1229,-974
635,185,-3192,4029,-1949,1902,-861
636,-3517,6151,3663,474,-532,-1900
637,-2053,-1006,4453,1218,1676,49
638,4228,5148,-1130,972,-1468,989
639,3186,-1917,205,751,459,-1118
640,1108,-1669,4056,-1441,126,-1399
641,-4637,2987,-4870,1653,867,1371
642,1769,5934,-3714,291,265,1277
643,-3567,7636,-4416,-991,1406,-904
644,131,-1163,3974,-397,-1531,-196
645,686,3271,3388,1523,-564,1675
646,-1011,-2955,-4686,548,45,-1416
647,-3439,-2846,5890,-407,1096,-435
648,2792,-1556,3027,1316,1868,-748
649,2703,331,-4732,-537,164,-1074
650,4453,401,-7336,817,637,58
651,1379,-5254,1001,1787,-591,1861
652,4555,-4509,116,-1298,1162,-1849
653,642,1880,5144,1539,-1092,1667
654,7989,5779,-1493,-1456,-1545,842
655,3472,-1110,-147,1800,1360,-422
656,-3801,5976,2496,634,800,126
657,5865,73,6162,944,-653,-175
658,-7458,-828,-7439,1887,1729,-1218
659,-6697,5322,-1018,861,660,1080
660,5343,6789,-6836,971,-1995,-49
661,-4284,-5683,3717,-1409,-1594,-1979
662,-3193,2028,-7099,1957,-1186,-1471
663,1240,6391,-7793,1542,-54,692
664,-1099,-1180,-3182,-204,1945,-1923
665,1146,1111,-319,198,-35,734
666,4115,7136,6629,1001,-1049,-394
667,706,-7415,3348,1063,127,-1382
668,233,3231,-4970,-1527,-1848,-1987
669,-4423,-123,-6632,804,-1130,-402
670,4917,2552,6338,1027,-1951,1503
671,7861,-5865,3671,1510,-1019,1016
672,-6400,-3365,-5783,-1845,1291,-1774
673,-1416,-2265,3557,1210,-858,628
674,-1721,-3368,5716,1571,-658,285
675,6892,-3141,7738,1180,-440,758
676,-5149,7970,-65,818,1241,-1559
677,-2466,-2285,3593,798,-1048,1209
678,-4999,-6155,3998,-822,534,1439
679,-2585,-995,-125,-655,-822,-1855
680,-1480,-5577,-6968,656,-1771,1999
681,-7336,-2997,7920,1492,-587,782
682,2062,-2013,-3410,-518,1002,1790
683,-3476,6923,-7016,984,-1633,1720
684,-1885,176,972,375,-883,-984
685,-1260,6296,928,1989,-552,452
686,6065,-3521,3763,-98,704,-593
687,-1613,4534,6591,747,-1696,-832
688,-130,680,7618,1010,-1129,-590
689,-5995,6391,2074,-1834,16,157
690,-3024,-7556,-503,-1329,-335,-752
691,7822,-237,1686,-1303,-1597,-1151
692,2738,7331,5599,-1384,1027,949
693,-5698,646,7589,-694,1451,1660
694,3343,-922,2722,364,126,-148
695,3815,6747,-5056,-1169,962,-1950
696,1090,-3926,-4264,-656,1060,-1139
697,-6332,-2273,-2722,1383,-1573,38
698,-1414,-5680,3017,-294,1091,-1218
699,839,434,-1077,1873,-1844,1089
700,-3151,7663,-7682,899,1226,875
701,-2598,-5133,7668,-1582,-1540,-974
702,3460,6689,-820,-1594,1252,-1001
703,-922,-6275,7795,-702,-385,-1839
704,1729,-3647,5187,1133,1335,674
705,-4177,5303,5448,-336,-1148,355
706,-4832,4381,477,-1664,-813,-1406
707,1701,6371,2335,237,1767,1168
708,-5669,5051,-2778,757,-443,-1146
709,2021,4726,-5542,1380,-452,1050
710,-187,4782,3183,721,1427,-1939
711,131,2266,7928,1897,-1761,-1134
712,3731,-3113,-3104,912,1215,1432
713,-5215,7341,-4433,1414,-840,384
714,-3720,-2804,-3341,-1140,-1682,52
715,1088,6349,-4786,234,1056,-1960
716,-3127,838,702,-1782,-125,-926
717,4944,1550,-7463,-1930,625,-724
718,-1317,750,-940,933,-1500,12
719,-2896,5090,-3661,1914,1947,1928
720,-5403,7782,4584,1761,-105,31
721,5415,2426,7269,-1336,1280,-553
722,-1909,-115,4982,57,1297,-1884
723,-7397,4115,-1625,762,-1657,-1556
724,75,7289,-7633,-290,-210,1758
725,-5454,2559,-1560,-1353,1922,-665
726,4927,4803,-5987,985,233,1121
727,2601,-7148,-2335,-190,-923,-937
728,841,-3687,-2681,-334,-1474,-1250
729,-7943,7796,5269,1834,1516,1661
730,4874,-7638,7552,502,-1157,240
731,-2991,-5302,-4155,2,-1707,-1474
732,5188,-2204,-367,-328,-1763,1831
733,-1631,-7841,-7757,1860,-11,-1064
734,-5430,4810,2419,-757,324,-333
735,7000,4029,7893,-1462,332,1730
736,-4224,737,3203,1733,-528,1806
737,2074,4704,5958,248,1334,1451
738,-1999,-4695,-773,1346,253,747
739,4532,-7848,-4697,508,-1584,-1870
740,-2876,-5717,-4667,-949,-608,-1251
741,-5874,7502,4667,-1309,190,1859
742,-5284,7668,-3555,-968,-475,335
743,5983,-3651,-6514,1047,-531,-1355
744,-7525,-910,-3120,707,907,-1315
745,3653,3282,-2407,1277,1155,911
746,1712,-4525,7576,-72,1788,1532
747,-3309,4338,5041,361,-400,-615
748,1240,7566,-1348,-564,-699,-1227
749,4012,6123,6577,-836,-1440,-729
750,2988,-1997,-7198,387,1697,1299
751,7023,-6598,-4742,-397,-1825,333
752,2783,-1416,-20,-195,1177,1598
753,132,-5017,6790,12,518,-521
754,-7605,-2093,-746,-1671,436,1143
755,-2518,2993,-6526,-1931,-1843,-1771
756,-2513,-3553,4031,-1942,1347,1401
757,-2896,305,-1618,427,805,-654
758,-1922,-553,3872,820,1317,-1195
759,4415,6855,-3275,308,-244,1435
760,795,-979,-3116,-792,1408,-649
761,-5605,6117,31,-1827,-403,603
762,574,-439,-7757,841,312,922
763,-878,-4828,-2692,-470,-926,-433
764,-5250,-7709,2478,-1054,1059,1203
765,-6141,-6900,-5649,-1221,-1858,-1821
766,-4548,7450,2336,566,-25,7
767,97,-5941,7560,-49,1207,-612
768,414,-1170,4510,640,-1732,728
769,-6971,7330,5257,270,-1348,-779
770,4881,5753,3763,-433,1471,1366
771,-7156,5523,551,-1855,-621,1130
772,2510,3620,-4394,-575,1276,1436
773,892,3621,-4930,-1165,765,1391
774,-4798,-2948,4146,1921,1022,727
775,122,1955,-3790,449,-708,-1617
776,-3799,5475,4874,1569,-682,627
777,-366,-1311,7485,-152,-346,-320
778,2862,-2097,-611,-678,1205,212
779,5958,-2515,-2450,-1568,1542,-296
780,6171,-1016,371,-1453,1923,-419
781,7521,5411,-7836,1067,952,-1345
782,1829,-1531,6577,435,75,1071
783,4026,7608,-4648,-770,-426,780
784,2066,826,7732,1439,-1956,290
785,281,5999,-1703,-619,-742,-1059
786,3358,7498,68,-392,-146,1502
787,-1256,6892,5731,746,1659,-555
788,7125,-2427,-5317,-404,-1597,-1175
789,1757,46,-934,1192,-378,985
790,6522,5210,3757,-1223,-256,-1463
791,590,-5387,4448,580,21,-1611
792,-7933,2509,-892,790,1999,-662
793,6237,6692,2194,419,283,-1349
794,4564,3480,-3934,-1736,-1114,1449
795,-396,7776,-3894,-1512,-913,-1705
796,-4551,-2789,-7226,-969,-148,-1821
797,-1658,4091,5579,1999,-1281,0
798,-2072,-4814,-2097,-737,-1020,-637
799,-5934,1401,6619,1265,745,1834
800,5381,2865,1427,-1445,-1725,-1723
801,-2369,-5394,1564,-441,1869,1853
802,336,-4831,-2850,-1469,804,-990
803,-760,-315,4366,1478,1133,-189
804,-7066,-4477,3909,743,367,-1200
805,3964,3217,1948,-1331,639,-1606
806,7964,6940,1364,-88,1235,1342
807,4155,286,-6452,-1556,-804,13
808,-1441,-7794,5944,131,-901,-1823
809,2753,5210,7868,-1346,137,1346
810,1979,7638,-6993,138,-1984,-584
811,86,687,-6747,1448,-1600,667
812,-6232,-5185,2864,69,15,1540
813,6207,-5364,2043,-459,-766,-1266
814,-1161,4886,1502,-825,1673,-1054
815,-410,1839,6680,-636,-1625,-489
816,6370,-1755,5236,-1485,-47,-1729
817,3332,-2712,-5066,-438,-1881,1541
818,-4305,-1644,7534,1366,298,-1856
819,2172,-3648,6558,1344,-20,-1418
820,6395,-4164,4888,673,-1844,573
821,1710,-7666,-4288,329,-495,-954
822,-1398,-3942,-5274,208,1148,-1895
823,5201,-4619,359,21,1375,570
824,-5392,7775,608,36,-950,-505
825,2094,-918,-3198,-1451,-972,698
826,6172,-3358,-7439,1155,-637,-1142
827,-3693,859,139,-359,-1684,537
828,-7197,7329,6838,257,-184,-90
829,-7690,-1354,3189,1410,-1217,580
830,4370,-6978,5306,1908,1916,-1488
831,3261,4678,3952,1380,-284,-1259
832,-6200,-7360,-4888,642,1008,1486
833,-664,-6622,41,794,790,-1486
834,3361,-5483,7118,-1700,1292,-1760
835,4798,2812,3504,-397,929,97
836,5912,985,2267,1643,-1357,1879
837,1462,-3912,211,-253,-1204,-516
838,-2569,-6635,-3816,1171,-1110,466
839,-7728,-713,-3048,1175,-1022,-206
840,-7641,3631,-5337,-843,501,-131
841,1789,-6080,2648,986,70,1133
842,4605,4176,-4042,1327,529,-318
843,-3258,1651,-1768,-666,-1283,-1428
844,5026,-4149,-6399,-69,1083,-151
845,2230,2914,3628,406,-1978,972
846,1155,1113,2788,-345,-1310,-1600
847,1237,1661,-5856,-1336,1692,1397
848,-3203,1353,46,806,-518,845
849,3912,-7530,7828,459,-1133,65
850,1057,4795,4555,-545,743,1427
851,4536,-5382,5625,153,463,-822
852,-6889,6002,5844,-946,-1735,254
853,-628,-3363,-7816,1290,-651,-935
854,-1685,4792,1506,1571,1144,1434
855,-406,765,6002,51,-1159,-148
856,-4652,1038,-481,1307,-1199,-808
857,1610,-4409,4935,-939,1306,-991
858,5249,-4442,1345,-1820,-471,1751
859,-3382,7170,-6096,1510,-27,853
860,-2384,-1188,-165,1897,-343,596
861,-644,6738,837,-1554,1865,-318
862,-3868,6044,1175,565,333,1956
863,6305,-5836,-2444,-1782,-78,270
864,4660,-5140,3882,-1538,-1131,-1551
865,-7719,-2344,5807,159,-998,-1877
866,7701,-3708,-2490,-1732,203,-687
867,-2223,-1886,-222,1639,-110,-789
868,7489,317,-5650,1335,1722,-1841
869,-2369,-6205,-4242,-159,-1162,-80
870,6280,2911,-198,-1310,1135,829
871,-6071,-4120,2257,-900,758,-1424
872,-1930,6539,-7393,614,185,240
873,-6817,-3979,6431,61,-431,-1286
874,-6687,-3807,-5062,-718,420,1356
875,-1799,-1079,1533,962,-437,649
876,-286,-6581,-4224,1295,-178,-1046
877,-5141,-2715,-6921,952,864,1366
878,-6516,2001,4683,47,113,-1910
879,7509,-1781,3026,-520,-1119,-1229
880,4563,7000,-1599,-1817,-1802,1947
881,-587,5367,-4311,-1724,-436,149
882,7145,6017,7642,1643,-1805,-553
883,1491,-2827,7868,506,1282,536
884,-2259,4901,-6202,-809,-780,1982
885,-7784,3989,-2340,-1279,-1181,-1541
886,-6561,4733,992,1788,1726,748
887,-6150,-6693,-3796,-1220,965,1909
888,2967,2040,3111,978,1361,-1769
889,4361,-7340,-2907,1417,-1970,-1247
890,50,1795,2116,1437,359,-1483
891,3155,-4610,-915,1826,60,1336
892,4993,3910,-391,-1371,-720,-822
893,-5096,5365,1998,339,1095,-1088
894,4312,-6547,-4209,1241,340,187
895,-27,4450,-2353,-1185,696,215
896,-5781,3742,-4690,1919,-322,-721
897,1395,-6230,-3093,915,-591,-1591
898,3997,7375,-4984,1561,1734,1298
899,-7521,6570,-6397,-642,-332,20
900,-1029,-356,-4781,-834,1440,776
901,-1072,5389,-3000,-27,-1702,927
902,-5160,-4045,2438,-286,662,-935
903,6186,-5353,2164,-200,-1280,-1110
904,-2866,-2956,-7917,-1381,1229,1939
905,4806,-5764,6128,-734,215,1469
906,-3366,-4161,-3687,-1426,-97,-458
907,6009,-131,-2920,-215,1503,1953
908,-5574,-6335,6025,83,1412,-886
909,-97,279,-6981,1289,-1063,213
910,2435,-5223,-1551,1172,781,1379
911,2550,-4177,7934,-1039,841,-173
912,6027,-7672,-2724,-984,253,-1281
913,-2028,4453,2306,-425,1820,254
914,-2461,-7168,-4049,-924,681,-1233
915,-1521,1784,2676,1287,1841,-1313
916,7444,-2913,4767,-1612,1159,1870
917,3430,3462,-7888,-675,-964,-108
918,-3817,-2199,1706,-68,-1259,591
919,-433,3513,1916,441,587,-152
920,-7410,3437,-6169,-655,1037,-1898
921,5123,6301,-1900,1155,1605,-1583
922,-3656,-3348,-4113,74,-874,213
923,-3593,6327,483,-15,560,940
924,-4255,-1858,7728,-1295,754,1313
925,-6113,-2539,6677,-1114,1800,-1524
926,6953,3018,5299,-491,269,1690
927,-6447,-6799,-7462,-875,-1302,-1282
928,-2696,5908,748,-549,1990,1109
929,6731,-7491,572,1128,161,483
930,-5720,-4993,7716,826,-1314,-19
931,2984,-5816,1175,-188,-1418,517
932,5781,-3727,690,1377,-7,974
933,-7749,-2564,7771,-1701,-391,777
934,-2463,-1579,913,-102,1869,-1522
935,-1053,3867,2489,679,1637,263
936,7345,-5098,619,844,-1122,-410
937,5637,-3033,4109,-536,415,-1935
938,-4244,7098,2078,938,1148,-403
939,-6399,550,5380,-1047,1274,1822
940,-3398,3117,5417,157,-1972,1261
941,672,2017,-7870,765,-1908,1179
942,970,1402,5062,-1706,84,-1267
943,-5513,3593,7950,1617,-1126,286
944,-4638,-918,-1861,919,-839,-1222
945,-330,-5880,2267,1502,-265,-289
946,1471,-4231,-3987,852,-1745,-1697
947,2234,-3040,-6363,1745,1644,1197
948,-7013,-3859,4434,-1191,-558,679
949,5235,-6799,5474,1685,1380,422
950,-4114,-2161,7186,1002,-1332,436
951,6680,3472,-4470,1235,792,-1600
952,6336,-3455,5557,-538,1294,-1213
953,325,-6173,-5285,1189,572,1047
954,4661,-6672,541,1212,-1607,-1563
955,-1074,3096,5049,-768,191,1322
956,-2156,-4445,3292,31,-1093,-414
957,6866,83,-2749,718,530,310
958,5857,1182,-2565,-1568,-380,1342
959,3357,-1040,-1009,320,1992,-1757
960,-2791,-4444,-7326,274,1810,589
961,-3578,3817,2219,-704,1472,1416
962,-2957,-4402,-1738,56,-1009,-975
963,7093,-341,2863,1621,-593,-1585
964,1439,-1517,7739,1220,-1936,-675
965,-573,-7432,1555,1931,-1344,-1190
966,4403,-28,1538,346,1916,-1513
967,7664,3093,-1001,-927,1624,-1843
968,3924,-7884,2375,1589,1539,581
969,-2388,-145,3053,1554,-470,1509
970,7552,-5805,-2547,-431,1802,1514
971,5275,-7420,-7599,-1438,1976,-240
972,3828,6996,4856,-727,767,391
973,1977,-5084,3370,-445,1670,-1195
974,-1796,7435,2464,1541,-428,-1536
975,7257,2405,-7927,422,-598,-1487
976,-3633,4367,3278,1103,-701,1859
977,-7467,-334,5163,-504,1054,-1684
978,5660,951,-1998,853,1229,-1186
979,1980,6751,-728,-888,-1720,481
980,4212,-6707,-7604,-256,1113,-1525
981,-5500,5315,-1122,1370,900,-1553
982,7218,-7576,-2213,-1708,-103,-602
983,1696,-4090,4359,-629,439,1317
984,3232,-6541,-1226,-1490,1731,135
985,-4334,-7237,1922,-1534,1126,-184
986,3790,-7942,4304,-484,483,1835
987,651,7718,-4077,672,484,229
988,4450,-6841,1997,1442,68,304
989,4741,-4666,-4876,332,-1858,-425
990,-7055,7074,-4441,-1323,-144,-1825
991,6251,-5659,1363,469,-1251,-1966
992,-6676,-392,-6961,1734,-1614,1119
993,3671,-504,2337,-468,-1055,-841
994,5301,-4948,-3850,1738,-1111,-63
995,-2435,-4328,5393,1029,-182,678
996,1823,6495,2230,558,596,-1929
997,6168,1479,465,-1023,149,-1253
998,269,-6676,1704,737,-669,-396
999,-4309,-2554,-1130,-25,852,-575
1000,1602,-2965,5111,-177,375,1591
1001,-2310,1642,-4102,1178,1119,-1160
1002,-7587,2180,-1903,429,368,1108
1003,3732,-1075,5304,1708,-1612,824
1004,-3089,-3897,5260,173,245,997
1005,-1477,5639,-1551,-781,7,454
1006,-5816,-3187,-7260,-129,429,1244
1007,3288,-3983,6980,-1801,588,-1014
1008,-7207,7425,-3311,-848,-830,-1537
1009,6252,-4958,6638,-1037,1029,-1088
1010,-1974,555,-1434,24,-1455,-1271
1011,-4207,-373,2851,-1428,1709,1514
1012,3943,1077,-3329,1725,-526,-499
1013,-1393,-1852,1839,-1407,-666,1362
1014,3806,-4527,-7887,-1237,722,-14
1015,-4445,-1196,6762,1774,-587,803
1016,-4690,6119,-2417,145,1271,-621
1017,-918,-4157,3076,-711,-653,-1573
1018,-6691,-1432,-2845,55,-699,-887
1019,-498,-5717,-2865,-1105,1680,-865
1020,-4041,4072,-4946,311,-1115,-194
1021,-4253,3400,5421,1750,491,1397
1022,-370,7364,-982,850,1228,-597
1023,-7990,4324,4922,1733,723,710
1024,-2878,-6087,6645,-68,-1128,713
1025,3732,3837,-2313,1309,-1967,1911
1026,-3321,-5295,-6921,-1479,-1929,-693
1027,3505,-4132,-1024,-1262,697,1213
1028,-4027,-5312,1860,1855,1714,-816
1029,4273,4884,3404,-1427,1908,1357
1030,2356,3989,2248,-1596,760,-1050
1031,7037,6425,-6237,-206,-1166,683
1032,5702,-5073,-205,1569,-1383,-992
1033,-5534,1854,-5995,-1465,-1792,-1435
1034,2476,4485,3640,-1714,-954,-1061
1035,5712,-4609,3296,1256,-1265,1560
1036,509,-822,4118,-1156,1198,-1990
1037,-3006,2801,-4770,-881,13,975
1038,-6430,-7338,-2717,1156,1891,-1406
1039,5964,-2047,1165,-651,-1132,-1876
1040,4079,6042,5523,195,772,-1989
1041,-4440,-4718,6710,1990,-429,972
1042,7093,-3473,-3066,1039,1668,-1828
1043,-1618,-6742,648,1319,-640,394
1044,-4616,-3895,-7985,844,-368,774
1045,-3180,5982,-6768,804,140,-1670
1046,-3667,736,-1513,-145,118,485
1047,1568,7877,-5180,-30,1183,1012
1048,-2752,-6288,6025,-91,-909,1486
1049,7399,7601,-4554,1310,-324,-163
1050,-1207,4081,-2444,-1450,803,-503
1051,2059,-2858,-7807,-145,1719,-98
1052,-2014,6729,-2501,1185,-702,-727
1053,-6570,7694,6025,-1978,1686,-388
1054,2116,-2136,-6841,-525,91,720
1055,-2878,2008,5710,-1996,-381,1780
1056,-1059,3036,1431,400,-259,1499
1057,-521,-2013,-5602,777,-170,67
1058,-2059,4532,-4220,-400,-915,1285
1059,-7087,-5599,4524,-1545,563,207
1060,3010,-7348,1754,-554,-887,-817
1061,-5403,148,3441,-14,874,1336
1062,6883,-5348,-1657,1788,1386,559
1063,2203,2278,-226,351,1163,19
1064,-6096,-7891,-2096,1247,593,1233
1065,1951,1263,-7746,-1097,-160,-1345
1066,6286,5668,-2683,1884,-572,1094
1067,-4348,-7975,1202,475,-1557,-1512
1068,-4754,6657,4633,528,1899,971
1069,-6628,-3448,6685,-1805,-352,-832
1070,-7664,-1781,-2016,-1939,-1131,-1591
1071,-7546,-3374,7267,263,-470,1239
1072,1531,6147,-1145,-1932,1095,718
1073,6801,4948,-5642,1238,428,1379
1074,-3011,2788,-2509,-560,148,-1768
1075,-6834,-2333,-4391,339,-1799,379
1076,2872,-6443,-5277,1409,1139,1464
1077,5312,4554,-6899,-347,1738,1820
1078,-1500,7726,5233,1658,-175,-1757
1079,1930,-5150,5244,1071,652,1681
1080,4517,-7296,-6689,-764,885,578
1081,575,-3944,7887,-16,1147,-644
1082,-5618,4164,4972,-690,-1721,-81
1083,-3409,385,-6458,-1866,1240,320
1084,2037,-1332,-1469,-1382,-1742,-1285
1085,6154,7681,3970,-634,340,1622
1086,-761,-601,-6266,-971,-1767,957
1087,-7892,-2901,2324,4,1350,1079
1088,5218,5859,6860,1329,1676,1807
1089,-4812,-2681,3407,1881,-640,1625
1090,1061,-3264,4651,-551,-1294,1358
1091,-4891,4040,-5724,-367,1759,-906
1092,1353,-2342,-4393,-1649,-1465,1669
1093,3028,-2266,5704,224,-1865,1731
1094,1857,-3457,7270,-741,-206,-1393
1095,-3020,-4071,-2271,1863,1977,1616
1096,6330,2983,-3851,85,-664,626
1097,7931,-2225,359,-243,-769,-959
1098,729,7519,1546,-1015,-788,354
1099,489,4880,4120,-1257,428,1761
1100,-7321,-2742,-1917,1179,-228,415
1101,1253,4248,3369,1265,1323,-226
1102,-1667,1779,-4414,828,-1117,879
1103,4952,-4927,5231,1003,1537,1645
1104,7922,1643,-4491,-75,-320,-1962
1105,-7220,-5210,6749,-1594,-1043,-1178
1106,766,-4734,-304,-90,1303,-537
1107,-4653,-6791,6337,1384,-40,741
1108,2062,6154,-6560,-635,-1687,-583
1109,1302,2986,2594,1684,505,-1795
1110,-633,2275,289,-955,172,-13
1111,-6935,7916,-3552,-637,-232,1534
1112,-7580,-3742,-3990,-272,-301,-603
1113,1339,3422,6871,-292,1005,1608
1114,-5885,7661,-2473,-135,829,1283
1115,-237,4382,5417,-643,968,347
1116,-5170,969,1200,-549,500,1379
1117,-2841,1497,7302,1796,-137,1125
1118,-4303,2382,7903,1221,1516,1578
1119,-3770,-5821,3265,-87,-1051,-1971
1120,-6719,5229,4346,-1174,-1635,-809
1121,-3467,6681,7699,103,145,1649
1122,542,-988,6146,1972,-1139,-1590
1123,-6531,4630,1666,615,1274,1764
1124,-3381,-1178,-7419,-1450,-562,513
1125,-298,-3907,-3881,569,-1836,-1620
1126,-3231,6167,3813,-81,-1888,1372
1127,-1223,-7157,3896,1337,-1933,1488
1128,-2033,4164,3122,-189,-202,-1358
1129,5730,-3041,3835,-1575,-1857,869
1130,3429,4883,-2975,585,818,-886
1131,4904,5992,-3805,198,1971,-1385
1132,-4577,-7150,6758,334,-123,-778
1133,-6736,-2352,1497,-1328,986,722
1134,3927,3557,-4931,1885,-600,389
1135,7599,4922,-5472,1526,-203,-586
1136,-4095,6638,-3399,-522,1720,-209
1137,-4989,7281,-4254,-1635,649,-1609
1138,-726,-4062,4465,-1892,972,-667
1139,-7789,-7348,7231,-776,-134,-340
1140,7342,-7297,-2303,-543,248,1186
1141,-2616,4484,7283,1063,855,1363
1142,-7040,4090,-7540,69,183,-1563
1143,6994,845,2326,-1567,-368,1987
1144,-3963,-1174,-1295,-40,1621,-1045
1145,-4693,7186,-4577,-1805,996,-1706
1146,-2947,6926,3134,1354,-885,615
1147,4439,1116,3652,371,1476,1495
1148,-3155,6829,3995,-587,-1101,-393
1149,564,2943,-3676,1596,1139,-1004
1150,1211,1174,1314,-219,1690,-930
1151,-899,-3216,1732,1657,-359,723
1152,-5541,164,2715,1612,127,-1554
1153,1236,-7497,-3165,33,-664,1541
1154,2850,-7291,4465,256,-1081,1252
1155,6427,6578,5856,1401,710,1255
1156,-3100,1693,-2646,977,-154,-577
1157,-3913,-6861,-3174,1075,-1293,348
1158,-2458,-1625,1373,-321,-698,-1231
1159,762,1865,572,813,1258,662
1160,-3648,-3089,7101,494,1589,283
1161,-3596,-433,-6229,183,-46,-82
1162,-1509,5432,-2505,1925,-1363,123
1163,6331,-1572,5379,822,-1488,107
1164,3230,-7748,-4233,-1003,-2000,462
1165,1326,-5549,3045,1915,1521,971
1166,-5530,-361,6096,-1797,55,-1188
1167,7288,-4367,2476,716,968,1665
1168,1117,-5398,-4525,-1291,-834,1541
1169,889,-5062,-137,-81,-1962,536
1170,-4800,-1966,-6920,744,740,1212
1171,7317,-1989,2547,753,605,852
1172,3629,5390,-5194,-1648,1351,-1056
1173,-7522,-6420,6787,319,1572,-929
1174,5876,4002,162,-1736,1387,-603
1175,6381,5741,2513,-1927,-1404,1502
1176,3045,-2142,4025,-1724,-1131,953
1177,2128,-2775,-5874,670,363,324
1178,6134,-1536,-1106,716,1394,-1164
1179,-461,-7685,4817,696,1676,-697
1180,-4378,4435,-734,-1296,524,387
1181,1895,-377,-2390,-1601,243,529
1182,-326,-7879,-7741,-376,-1249,183
1183,-987,7282,2309,1562,-702,-14
1184,1056,1733,166,-343,152,-1524
1185,-5937,-6377,-7529,1783,-1950,-989
1186,1120,1625,-7983,730,-981,112
1187,-7069,4656,4091,65,-345,374
1188,-3844,-6190,-4736,-1591,-193,374
1189,6325,-230,-3894,-802,-84,-552
1190,7460,7944,-1665,-1704,-447,-1819
1191,-4193,3824,3569,1914,-1919,1592
1192,4353,-1800,5594,-791,1490,1834
1193,2049,-5777,-6935,-860,-1305,-1708
1194,6173,-7345,5883,1839,1804,-285
1195,5330,4796,-1237,-1905,736,1673
1196,5119,-4388,2147,808,-848,674
1197,-2874,-4068,-7210,1933,672,73
1198,2457,-2402,1648,-991,1434,-1165
1199,7455,3777,7924,1437,1410,-1777
1200,5292,-3968,-1351,932,-1954,-1622
1201,6492,-2990,-6081,-108,-1839,-1497
1202,-6524,6321,4413,-880,1251,407
1203,220,7371,5961,1386,1707,1459
1204,-1202,-2002,777,-1181,1479,213
1205,2675,-3792,-7557,-1921,-19,-20
1206,-6927,-5533,-721,-175,698,-1320
1207,3122,-861,6127,358,-776,1920
1208,-6485,6865,-6343,247,582,607
1209,-2233,4015,1640,102,707,-1245
1210,5878,2539,3639,756,-438,-441
1211,1380,1550,-7168,-1008,-1013,-1994
1212,-6853,579,-6975,-1935,-208,1380
1213,-3072,1560,961,1192,-1389,-530
1214,-4574,-3078,-3935,1528,503,1049
1215,-1828,-2891,4655,945,-926,50
1216,-4514,-3763,1567,1219,48,-388
1217,3706,2151,1663,-1098,-1955,-160
1218,4409,3023,-1558,88,274,-36
1219,6548,7069,6181,-395,-1087,-1592
1220,-717,2520,-7808,1157,-862,-221
1221,-1961,5020,-1818,-1858,821,709
1222,-7697,4395,-4178,396,-880,-1725
1223,681,3291,7276,1098,-770,-339
1224,1042,-1740,-318,-1211,655,612
1225,6078,-6288,878,1641,-1204,-895
1226,-4643,114,1918,-1613,1479,-10
1227,-3722,-4722,-3322,682,-256,1741
1228,1170,-2803,-5316,1116,-1118,1802
1229,1617,601,-3654,1876,445,-1564
1230,3112,-1767,7534,-1655,576,-1780
1231,980,5382,235,853,-720,-1177
1232,5242,2374,-6475,1891,1093,-619
1233,4965,-5549,-7073,-1267,173,-927
1234,-38,6324,5943,1819,-1627,598
1235,6125,4966,-3489,1021,-990,1041
1236,-1643,-2144,-849,-1266,-957,1327
1237,4654,5394,-5705,-1662,1228,-1538
1238,-2412,2533,-6774,-1244,616,-1923
1239,-2190,-6176,-7352,1220,-430,290
1240,-2115,-7074,4771,415,-810,1280
1241,5244,3098,-7431,-594,-1368,-1875
1242,-6647,2653,6820,-1227,-38,-69
1243,-4480,3850,-6891,-582,1238,1732
1244,3639,-6832,-2747,-655,1654,-943
1245,4259,-5191,5897,-1955,-898,-1040
1246,-7335,3846,4958,-1741,-898,-1252
1247,6213,-1996,1484,-1945,-299,1561
1248,4207,1094,-7335,-846,694,-421
1249,-221,7714,7180,-1780,1856,994
1250,-5700,-6186,7296,-78,1184,1376
1251,3606,-318,-1094,744,46,-613
1252,-4313,7668,-3361,-1202,-806,-122
1253,2386,746,-3418,-1889,1997,1908
1254,-516,-6735,7665,1740,-340,-188
1255,-5245,6493,2261,1530,-1960,-776
1256,4300,1896,5713,-1759,6,1029
1257,-2853,-3180,-580,187,840,-502
1258,4749,-1349,2215,162,1182,-711
1259,1416,7166,253,329,-1932,-522
1260,-1166,2523,5632,-747,1120,786
1261,-2883,3469,-3927,-1682,1708,-1006
1262,-1254,-6998,-3264,-1782,914,-976
1263,-1117,-716,-2370,423,-607,993
1264,5045,5727,-6243,355,1999,1137
1265,7977,7530,-7696,1623,-1406,-840
1266,3800,-1412,6555,518,1622,644
1267,5434,4818,81,1377,-1715,-1615
1268,-2249,4049,7732,-1026,400,-1973
1269,4806,-777,-7460,-1143,1305,-1318
1270,5372,-7478,-1472,-956,-1529,-1053
1271,-2024,-4716,-2366,85,541,1192
1272,5586,-2938,3038,-1917,636,713
1273,-5965,1710,1349,-1274,1928,-655
1274,-4427,4381,3120,491,1812,-1552
1275,7846,6037,6943,-1912,569,-1350
1276,-723,-3248,-226,-1929,-577,-165
1277,-4561,-5643,7143,-79,636,-542
1278,-18,6201,2267,-1446,-63,-969
1279,543,-1382,-2119,-975,-1784,-823
1280,6644,-1847,-6857,1864,-43,-532
1281,6140,-3243,591,-422,1840,-385
1282,-4393,-2975,6781,364,336,183
1283,7803,-7304,-4216,-60,45,-55
1284,745,3377,4328,602,-1196,1258
1285,275,-4431,-7127,916,1586,1352
1286,-1065,-5799,2526,-823,-1700,-951
1287,3224,-3567,-6929,-573,-1463,1509
1288,-2791,-1854,-7484,-1945,1145,-1471
1289,5698,2703,4878,-971,258,-36
1290,277,-3002,7561,324,-1898,1328
1291,-207,-5507,-6897,1687,-297,1423
1292,-2243,-2125,-3104,567,-1808,884
1293,-4904,1821,4023,1788,1709,-1047
1294,-7854,626,3438,-1973,-64,556
1295,-6874,5044,-188,1109,34,1366
1296,-829,-4111,-2795,384,1192,162
1297,1668,-36,-5244,-1850,370,673
1298,-128,6108,-6114,-555,256,-879
1299,7232,-700,780,1318,1413,1792
1300,-3632,-148,7193,723,-796,-1074
1301,-513,-2460,3078,-1823,1959,409
1302,8,2803,-4658,-1479,-1919,1975
1303,-1329,-1736,6879,1658,-1929,1046
1304,7095,4226,-6705,901,-560,1126
1305,-1122,17,2609,-916,1098,-1019
1306,-4963,1542,-6563,396,1567,537
1307,6586,1649,-6945,1106,-272,1400
1308,-2890,-1390,-3122,-1914,1687,-1815
1309,661,5246,-1944,1004,-399,1006
1310,5069,5236,-5022,1127,-1389,-762
1311,-219,3965,-5171,-66,1946,106
1312,-6789,-2918,6193,-1136,74,828
1313,-2874,-7860,-89,-64,-1024,363
1314,6384,1607,-3688,1815,-1665,-1650
1315,-5715,5729,-1826,-280,-767,1684
1316,2456,4823,-7035,102,711,-1211
1317,6274,3086,3268,302,-1032,1429
1318,-3437,2414,3086,136,-1784,35
1319,6928,-1780,2090,318,-1867,-1760
1320,-1248,3409,-2753,1353,350,1454
1321,874,-5503,105,1519,-1572,145
1322,-3051,-1259,-6087,-424,224,-1871
1323,241,4268,-840,-1986,-1459,-130
1324,1670,4198,-5074,820,-445,-1591
1325,1149,-7337,-6816,-737,1878,654
1326,3942,692,1504,6,703,1145
1327,-7372,-4555,1786,1572,-1996,1060
1328,-7637,-6588,5104,408,1725,1825
1329,891,3953,7431,-906,1155,-1437
1330,6607,-7396,589,-1230,-369,975
1331,-3266,2600,489,-1705,785,180
1332,-3212,-3785,-4260,-576,-1366,1251
1333,-2598,-7369,-4663,-1048,675,1021
1334,-5678,1506,5107,862,850,991
1335,2280,-5735,-3922,-798,-213,-765
1336,-6942,-1366,-5830,367,1831,-473
1337,2419,-5585,-4004,1383,-1349,-806
1338,373,-5364,-1746,-1948,1304,-1903
1339,173,5712,251,992,21,1468
1340,-4793,7209,-7842,39,-66,-1265
1341,7343,2765,342,-386,1677,-660
1342,4881,-2527,6403,791,756,478
1343,166,1281,-410,-99,-1362,424
1344,1629,7212,-1138,1923,1593,-1115
1345,-420,411,-1409,1769,1116,1635
1346,-724,-3391,-4161,-1966,-1500,632
1347,-5982,-7149,-1649,1770,-478,1018
1348,-759,4988,-6743,-960,177,-1054
1349,992,765,5997,-863,57,596
1350,-5713,-3133,408,1600,-887,1914
1351,4456,832,4782,1759,1607,1135
1352,-1741,2864,1293,-1315,-1556,255
1353,7388,-7754,3515,479,1101,-1951
1354,4732,-3533,2456,-1049,-989,1384
1355,1428,6891,-2441,-1053,1936,987
1356,1345,-4471,-5551,-235,-357,-1893
1357,5184,1803,-2177,1404,-940,53
1358,-673,-7212,7819,1107,-918,-1843
1359,-7143,6452,-3160,-1002,-1577,40
1360,-6800,2544,-7865,-137,-1164,-1146
1361,6104,-4264,58,-1353,-188,1185
1362,1449,4418,-2677,-1048,1353,-1133
1363,-5171,2283,1156,129,-1054,1207
1364,7666,3352,-3907,-620,-1574,-73
1365,-3723,1407,-2154,841,-1944,635
1366,2304,-4818,7409,670,748,-1234
1367,-1862,6048,-1273,145,-1003,-1212
1368,4352,7911,1408,-878,1273,-358
1369,16,474,-4007,1154,-1253,22
1370,313,6782,1409,1560,-1469,-697
1371,-748,-4643,1834,506,-643,1233
1372,6546,6463,5759,-754,-1256,-1966
1373,-1778,-2100,3455,-1677,708,-1552
1374,-2485,6541,-5311,-589,-1756,1192
1375,-6847,265,5665,-984,127,-400
1376,-4695,-610,1979,-540,-608,1145
1377,-882,4925,5621,939,-1502,-705
1378,3538,4148,-2529,-684,618,534
1379,6201,2078,6942,-970,1359,-879
1380,7246,5555,2580,395,-1354,-1345
1381,7564,4472,3593,184,1058,84
1382,-6993,-1937,-3192,1715,-265,658
1383,-7848,-5398,3293,12,-643,812
1384,1065,-1875,4963,-1513,-1790,-703
1385,-1806,1127,-608,-48,1086,1403
1386,-3412,-5768,3930,680,629,-480
1387,546,-7667,4413,-1234,238,-1071
1388,6240,6918,5020,475,1787,103
1389,2720,-7071,6834,-1563,-130,958
1390,-2094,-6071,-606,1091,1482,-1953
1391,-4113,3382,-4896,-369,484,-1108
1392,4538,-2577,6461,78,1918,409
1393,-537,-217,-1496,-576,-365,-733
1394,-2312,-6202,2735,531,1432,-655
1395,2871,4533,-36,-219,1388,1096
1396,-2101,-361,-4222,1180,1571,763
1397,-3679,6459,-5008,1849,1839,566
1398,-5999,6106,-4159,1347,524,-1170
1399,3991,-6877,-1707,879,406,-1943
1400,-6968,2701,7280,-1302,404,-164
1401,3323,-3541,6293,-1050,349,-756
1402,-122,7764,5971,-1206,-658,-231
1403,-6643,-7197,1159,1993,1950,-1643
1404,5186,-5494,-7421,1973,-1059,-1542
1405,5557,-5678,-2014,-822,1784,-1514
1406,476,6361,-1264,-898,-1495,509
1407,1728,-5866,-7901,784,-1,-1085
1408,5542,606,-1398,319,1354,1212
1409,-2407,807,2518,1499,-1728,370
1410,-5087,3112,-7151,403,1803,1462
1411,-7454,-289,3854,-405,92,1359
1412,-1155,5946,1123,-1460,758,1362
1413,-6080,2773,-4360,-1972,-1589,-463
1414,-903,-3978,-884,-1900,-1973,459
1415,2626,1961,1348,-1183,-1513,1143
1416,-450,-5146,-5771,423,-986,-1022
1417,3944,5236,-74,-606,-36,1664
1418,-7554,-7421,-4392,-1249,353,480
1419,-6947,2790,-3427,1503,226,-807
1420,-1645,5718,-3074,398,905,-594
1421,6117,-5459,-3623,148,875,-1297
1422,-7240,6377,5522,1833,-629,1298
1423,-5745,7874,67,1456,-1968,-267
1424,5618,38,7624,-1228,-329,241
1425,-5814,2634,1454,1520,574,-1233
1426,7199,-985,-6810,868,-821,-36
1427,5725,4634,5464,-926,-1222,-1455
1428,-6994,2809,7440,-998,174,934
1429,1680,5560,-7681,-48,1391,281
1430,658,2056,3478,589,93,-239
1431,4048,7042,3874,-1870,-1058,-1970
1432,-7146,-4131,-1919,-1092,1568,1272
1433,3972,5430,-7510,764,-426,1514
1434,7512,4974,-133,-1440,102,-1083
1435,5377,7026,-2514,1098,-1998,-1781
1436,6618,-4082,1781,-1133,-1449,1842
1437,7836,-5612,-6578,-1598,1887,1266
1438,-1765,3680,-2367,314,1621,-1045
1439,-3826,-5843,-7216,-10,-770,888
1440,4843,-3008,1583,-1214,777,1404
1441,7379,806,-3873,1954,-1539,766
1442,-4712,2272,-2318,-1527,-1750,-1109
1443,5866,2720,7144,374,1252,-1370
1444,-7773,70,-5718,-962,-1413,-879
1445,-2206,3710,-6194,1910,617,799
1446,3362,2813,2779,1103,452,-142
1447,-5563,-1527,7375,1352,345,-1964
1448,6772,1378,7866,-650,1552,-1862
1449,-4955,6371,6509,-1769,-1090,1025
1450,-7234,-6192,2890,1182,-97,1481
1451,-2508,-2627,231,342,1297,-1825
1452,1353,-7178,905,1697,-52,-238
1453,-4172,2505,-6207,1248,134,-1193
1454,-1118,2348,843,1318,-1520,-887
1455,-1484,2373,4291,409,227,-1562
1456,-3656,-1443,-7343,747,260,-1176
1457,-3685,-5180,7803,-1754,-1933,-1029
1458,1676,1752,1259,365,338,1677
1459,3450,-4575,5012,-312,-1028,-85
1460,3467,-7211,6658,-511,1021,298
1461,-2508,4951,-7744,-1469,395,-1308
1462,3802,416,-427,648,-1142,-177
1463,-3459,1087,4911,1995,679,253
1464,2363,-2282,-2625,-1529,-315,-384
1465,-1946,7848,-281,1052,-80,-800
1466,-2239,7629,4971,-1063,-1066,-1117
1467,4028,-3512,-7437,-859,1356,-575
1468,3460,-3000,-4646,-1692,-1412,1785
1469,-5443,1012,4718,1708,722,-347
1470,6930,1662,6585,-1605,-1254,1428
1471,1923,1292,-3760,1635,1619,1507
1472,-6613,-1606,6144,1928,687,-1685
1473,5868,-401,1234,-389,-1758,1696
1474,3958,4611,4444,-279,-262,-1299
1475,5375,1792,-3673,-1740,-1312,-812
1476,4041,3101,1009,-659,-1802,976
1477,3672,-2398,-4566,906,423,-1893
1478,-5909,-1976,1750,1174,198,-1768
1479,3908,-7614,-3243,839,1373,-1433
1480,7147,946,-7280,1335,-461,177
1481,7310,2208,-7728,1634,1256,-424
1482,-462,3345,549,651,654,1973
1483,192,-6773,6735,1747,1445,-37
1484,-1857,-35,-2625,-1221,1639,-325
1485,4338,2723,-2188,799,-357,1849
1486,-2123,1364,2871,-868,-218,-1659
1487,5639,-4114,1367,1138,-1890,-1562
1488,-5371,-7017,-4570,-1341,271,-1857
1489,6925,2337,5838,1459,-1568,-803
1490,4421,-167,-440,1548,-835,786
1491,5339,-2813,-2873,-1525,1724,526
1492,-2225,912,-2279,-1708,-1161,-500
1493,-7753,-852,7781,364,1429,308
1494,-4731,-2677,6183,409,1523,1835
1495,2153,-7329,-456,18,418,-660
1496,-3015,-879,-7739,1999,-979,118
1497,2440,2502,5153,897,-201,1164
1498,5696,-5773,-3708,518,1241,1934
1499,-3971,3535,-4678,1004,1014,1884
1500,5810,-2464,1382,-1492,1233,155
1501,1946,7078,-3196,-823,1721,1662
1502,4013,-7869,2928,772,371,319
1503,5901,7205,-2748,660,521,507
1504,5778,-5408,473,1740,22,170
1505,7080,5431,-2469,-856,1100,1463
1506,-3713,-3703,-4317,1395,949,-1060
1507,7530,-5322,1648,842,1707,-1657
1508,-2602,6856,-5794,102,-1059,435
1509,-3766,6657,-6795,-303,1515,785
1510,7359,1838,-5246,-60,-298,-283
1511,73,5877,-122,1186,115,-1126
1512,2449,-6051,-5324,1122,186,-125
1513,6382,-4478,-7410,1884,-883,491
1514,-5769,-7642,6692,-773,1189,130
1515,-3697,-7292,5150,-1810,-494,-629
1516,3696,-3936,-6080,221,1179,-768
1517,4398,2252,-1212,1858,-1451,64
1518,-3016,-2464,-6239,1937,1817,1473
1519,-1209,2443,4002,1585,-539,1724
1520,-585,7743,-3305,-804,-1736,497
1521,354,2583,2150,-1572,-895,227
1522,-5107,-4857,3647,-1322,-823,1926
1523,2772,3173,2080,612,-1824,864
1524,-3818,2014,7393,-351,101,1620
1525,1056,5658,-3190,-1337,1486,-881
1526,-1712,6058,-4256,1362,520,-719
1527,-3389,2261,-7596,1953,811,-657
1528,4538,2368,-5432,-414,854,547
1529,-1740,6857,96,648,-212,1408
1530,7826,-6582,-1790,797,-1910,399
1531,-696,1148,-7797,-1371,1343,-170
1532,-4722,3739,1023,1526,1187,976
1533,2733,-1719,6749,1042,-1203,1477
1534,2911,-4548,-2917,-369,994,481
1535,-3011,-2093,-5305,-1699,1856,1671
1536,2327,-2156,-7640,996,-781,331
1537,380,7836,-7838,24,1219,-395
1538,6009,906,509,-734,338,-1872
1539,-4528,-890,-3656,1991,1694,966
1540,-3027,-1805,-515,-1887,1393,-153
1541,-6901,2817,-301,7,-352,1391
1542,-1277,1212,2831,-1442,-1854,-608
1543,5911,5391,4653,-1933,834,883
1544,-3598,-6541,2089,-1794,1406,-333
1545,4086,1748,2106,-614,907,322
1546,3114,-3402,-6884,-958,-184,-1916
1547,5338,5740,-946,984,349,661
1548,-6956,-7035,422,717,1694,500
1549,-4505,5057,-3931,-1842,-1119,-3
1550,1870,2852,3515,-931,-1764,-462
1551,-6165,-1784,-4030,-727,794,-1809
1552,-1148,4343,1937,-1416,1251,-76
1553,4643,-3845,1092,126,-185,18
1554,2500,-6325,-3705,720,-592,-1751
1555,5665,-2012,-5526,1380,1201,-1832
1556,4633,3326,-3175,-471,456,-280
1557,-2822,7033,-2986,-1431,-1453,-501
1558,-3799,-3725,7494,-1116,-1587,-188
1559,-6900,-7502,3576,-1968,379,145
1560,2538,334,4478,556,1353,-365
1561,-5471,5128,-49,1054,86,500
1562,-3497,-686,-6362,330,-1210,-435
1563,-4235,1045,5213,-914,1851,1126
1564,2866,-2402,-6031,1170,-946,-973
1565,-2519,-4837,-364,177,-55,-1897
1566,4299,1650,957,-1521,-581,-1491
1567,4798,1929,-4701,-1563,1641,1059
1568,5879,-6488,3198,801,348,-434
1569,-4054,-6666,-2397,-1725,467,-1572
1570,-7535,-266,5083,-179,-1476,-644
1571,-1106,6766,5361,1688,-132,-1826
1572,291,4345,6533,-1692,1014,1010
1573,-5674,-3341,6183,1095,-928,-1732
1574,-7525,-7476,3557,-857,421,1410
1575,3467,-5287,-4720,-1498,-1606,427
1576,-4559,5548,3308,1035,1254,722
1577,1488,4111,3842,-633,-1379,1936
1578,2742,-4547,-2233,-1298,1488,1128
1579,-7014,-5077,4042,1032,-1710,1827
1580,-5699,-2053,1866,-282,905,-416
1581,7254,-5887,-324,607,-1711,-137
1582,5318,1221,7219,-698,-594,1404
1583,3883,-2663,6116,-522,-1612,-1149
1584,2217,4395,-3925,-1001,-44,1210
1585,-5490,-2905,812,679,1500,-1003
1586,-1311,-817,1613,1109,207,1637
1587,-6995,5142,-977,-703,-252,1023
1588,-6443,4730,-3233,32,628,-1429
1589,2013,-7946,-6636,-1741,1413,504
1590,-2946,-5810,-514,1809,1387,-694
1591,2670,-839,-7618,882,-222,-987
1592,-2264,-2162,-3765,1549,-151,-617
1593,-27,-1360,7374,1950,1313,-1189
1594,6423,-6646,-4181,-1212,-280,1146
1595,598,6863,2692,-1016,1142,-1776
1596,-6628,-7016,-4855,785,645,-872
1597,-1312,-7764,5796,-218,1406,-1724
1598,5383,5454,-5286,1677,1376,1739
1599,4163,7545,-7364,-615,94,1727
1600,6136,-225,7022,890,-1917,-54
1601,-1828,-2108,961,-602,806,570
1602,-504,-5983,1517,1426,669,1678
1603,1344,-5329,-2941,-1762,-1814,1250
1604,-5705,1451,-1182,-1967,1907,-729
1605,3692,-5219,-2826,1012,-858,266
1606,6164,7410,3461,725,-1911,-1516
1607,-770,2317,387,-775,112,-1557
1608,4115,-1956,1987,800,1105,-581
1609,2378,6774,994,744,588,792
1610,-286,7538,-5846,399,-400,1100
1611,6309,1661,3455,-1122,1704,383
1612,7193,1881,3206,1677,-812,1965
1613,6348,5211,7376,-1289,-445,1332
1614,3252,1383,617,-1849,281,1444
1615,5571,-4613,773,-1421,569,94
1616,58,1976,2777,1212,-665,-897
1617,-7397,4861,-2336,-1889,-104,11
1618,-4115,1290,1579,-434,-1256,-462
1619,2205,200,7759,1715,44,-1752
1620,4884,-7251,5568,-100,-234,-258
1621,620,-3081,-2255,-1410,1773,-1746
1622,-6157,-231,2940,-1463,-1469,1223
1623,522,-4949,2570,-1697,774,-551
1624,-5738,-5928,4658,-557,-451,1037
1625,-4795,-6870,-2045,-1243,-1610,-1480
1626,6178,7645,-721,-1175,-1047,82
1627,4345,-4515,-3280,1864,-1772,36
1628,847,-7799,-697,-556,972,1945
1629,-2960,922,-5565,1225,-466,159
1630,3232,-4470,-1752,-53,328,105
1631,-3772,1215,-594,1549,-1830,1048
1632,-7312,3619,-2891,78,1968,-1491
1633,200,7113,-3158,561,105,-881
1634,-1089,-4194,-2573,472,773,-647
1635,2261,1789,6159,-1076,1727,1625
1636,-7619,4286,5901,-401,804,-257
1637,-3529,-6395,-2658,-1971,-564,-188
1638,-4312,-7131,-1397,-784,-152,1646
1639,-3701,5769,-6989,-1474,1426,471
1640,-6318,-109,6866,1124,474,-832
1641,7389,5817,-6195,-717,-1873,-1263
1642,-6137,-2434,2376,-939,934,-1190
1643,-2673,-6565,-1925,1151,107,809
1644,913,-2763,6969,1132,-1325,-1588
1645,-599,118,-4465,-1034,-965,943
1646,1530,-4221,6493,-1500,-899,701
1647,-6358,-2439,-1847,-928,-1908,-1672
1648,-1982,-1568,-4861,1477,999,-1373
1649,2613,4862,2782,1862,-226,-421
1650,3645,4816,3119,1425,-1171,1039
1651,2933,6723,-3886,-782,1616,-885
1652,3314,1073,7050,806,-863,1776
1653,2808,5030,7924,1536,-569,-703
1654,7951,4965,-1709,294,-1462,748
1655,-5012,-3245,3412,1826,1799,-353
1656,6148,-7324,-6177,1667,926,-681
1657,-6256,-297,-1552,-1599,1263,1953
1658,7984,-6953,-5146,-1150,-798,368
1659,-4098,5092,6039,134,879,-1367
1660,2718,-5251,232,-1332,1263,1641
1661,-5050,3549,3052,1545,-1727,1655
1662,6020,1109,-2524,-549,-1782,1961
1663,-7224,-6542,-5722,-1891,1949,-1852
1664,-4060,5736,3723,-278,-171,-1059
1665,4665,-5817,1773,-764,1196,748
1666,-2599,1535,1309,354,-589,783
1667,-4727,-739,6450,-1146,-1219,-312
1668,-6214,-5110,3013,-1821,-1380,1974
1669,5802,-6675,626,383,-1647,-1279
1670,705,5126,3417,-211,1429,-1089
1671,1265,-2396,-7543,-1123,-170,1182
1672,4669,-7068,-5446,-1062,-1675,-1449
1673,-5888,3290,-6542,-1262,-812,1278
1674,5988,-5308,3307,-781,-690,-304
1675,-1,-2058,2282,762,1628,1207
1676,6767,-1831,-1874,614,1526,-765
1677,4763,-6651,6678,-1559,-830,1755
1678,-3987,3254,-6823,1001,-1784,-1507
1679,1625,-1596,-2685,-1118,1366,308
1680,-2887,7463,-2292,1504,-253,-484
1681,3380,-6361,-1519,-1257,-1153,1811
1682,-1039,-5803,-1892,554,-1073,-1649
1683,-3048,-1391,3000,-1076,323,-776
1684,-142,-6855,928,1794,493,1624
1685,-1623,-4127,-5570,-883,566,-514
1686,5637,-6748,5460,-1004,-216,-684
1687,5268,-3880,5996,1858,-1666,1493
1688,-3600,2659,1417,-1732,1658,1001
1689,2333,-7474,-2412,535,-300,1252
1690,-2680,576,-200,821,583,660
1691,-219,1505,-7856,-1908,-1560,-1182
1692,-2930,7963,-4454,-1475,1681,442
1693,-765,1154,2562,-1957,1046,1422
1694,585,-6904,-878,1690,-250,919
1695,-7871,-2439,1558,626,-611,522
1696,-6521,-1352,-1959,-422,-200,-507
1697,-2057,-510,-3339,160,125,13
1698,5679,-7730,-3044,-340,484,1250
1699,3548,6068,-5641,28,324,833
1700,-3091,5964,5799,566,1400,-1064
1701,5089,-6124,759,-951,1114,845
1702,-2530,-5282,-3326,-850,-1416,1902
1703,1503,-4585,-5383,-1115,-1379,-912
1704,1300,6963,6776,573,-240,75
1705,-5643,6853,5770,-1267,-850,127
1706,3138,6573,2427,-98,741,328
1707,-7560,-7116,3608,148,-1401,180
1708,-2422,-1452,-7976,1729,228,-284
1709,-3937,-1894,-1107,-1009,-915,1828
1710,-5736,5508,-6411,-1463,1225,671
1711,-2023,5001,1940,297,525,-114
1712,-6103,-535,7393,-483,-1333,343
1713,-4768,-4991,-2210,1078,-435,1776
1714,-7477,-7744,343,850,1101,-891
1715,6428,-2084,2771,477,-374,-180
1716,7113,-7735,4973,-762,59,404
1717,-7482,-2285,1927,-1875,-1070,490
1718,-5084,-1329,-3818,296,713,-940
1719,484,-918,4502,10,735,1626
1720,-5953,7931,-5639,-1394,-1470,-1390
1721,-178,153,-6576,1106,1277,252
1722,1187,593,6054,-848,257,1656
1723,-23,2211,2092,-990,29,-796
1724,-3349,-7703,1587,1647,-75,-561
1725,-4489,1747,6699,-1733,-173,1247
1726,7660,-5492,7158,286,-368,264
1727,-6293,-5654,-4027,-1793,-127,-136
1728,149,4347,5796,-1706,-1290,-536
1729,-6305,2583,-4505,922,-1067,-1289
1730,-2728,-7326,4831,375,1848,990
1731,3755,4100,-1715,1950,1826,1299
1732,-4261,1439,5235,-1548,1951,1239
1733,520,-1113,7424,-448,-1,504
1734,7248,6192,-3405,-695,477,-1366
1735,212,-1687,-4227,-1657,-684,-1118
1736,-1542,5951,4051,-422,-1467,782
1737,-7992,-5533,2691,1406,-42,1836
1738,-4255,-864,6271,985,-1087,-556
1739,-7545,-5312,2713,1920,-1527,99
1740,5515,466,4828,-1969,-595,442
1741,6207,3182,4830,146,1,-330
1742,-4368,4668,2610,-259,-800,-1173
1743,6386,-422,-977,-304,-352,-1777
1744,3035,218,1861,-1426,-1756,-548
1745,-592,-1001,5278,1011,-1781,-1113
1746,2193,2954,-1783,517,-747,1687
1747,4369,-6152,5103,-1047,121,567
1748,-1485,-3029,-5114,-896,1322,-1140
1749,4146,-1266,3668,-420,-1568,-308
1750,-1039,607,5656,455,1029,-978
1751,-417,2065,-518,714,245,-1169
1752,4645,-1002,1703,145,344,673
1753,-889,-4193,2270,431,-1353,-573
1754,4318,1949,3332,-1982,1273,-929
1755,-2178,691,-193,-793,-245,604
1756,4507,4775,5611,1545,970,-496
1757,-2728,-2702,-489,-1012,1324,376
1758,-4875,-6165,615,418,-1632,184
1759,-5134,2030,-6355,572,-1670,1644
1760,-4331,-79,-6389,-1071,1424,-52
1761,3249,-1205,6010,943,1803,1414
1762,3286,-6854,4442,-125,-1968,1120
1763,1593,-1229,5488,342,1211,-569
1764,-2757,-390,6149,254,-585,1684
1765,-1830,-4158,-93,-1593,-1136,-127
1766,4329,7930,7469,-55,237,-810
1767,-7937,791,-4646,-1702,1261,1065
1768,-5382,6567,7754,-203,-1822,-161
1769,-3931,3192,-949,-1618,1701,243
1770,-4580,-8,1218,1395,108,-382
1771,-7806,7126,1181,-368,411,-1147
1772,-2490,4477,2856,-1784,327,-1736
1773,-7116,-1086,-898,402,-12,48
1774,3228,-957,3888,-1837,117,-192
1775,-6374,-951,-2805,1784,-607,-1233
1776,7489,6975,-7259,1715,-1987,83
1777,4902,-5122,-1492,-649,1810,-92
1778,48,-5885,-6633,521,118,1139
1779,-3850,-5938,7768,397,-1491,1522
1780,1399,-3639,3839,232,621,678
1781,2176,-6851,-3085,1335,-1945,-5
1782,7681,-3289,7074,-213,-693,-857
1783,-3124,-1213,-5117,-753,1091,1524
1784,-87,-4105,6502,1735,-1778,-271
1785,4948,2049,-1955,559,-154,-129
1786,-4859,-4840,7202,-1858,1120,1354
1787,-7098,-3918,-7348,-757,-972,892
1788,-2714,-1942,-3317,631,1925,-1629
1789,5409,6082,142,-440,-1011,848
1790,-1998,7635,-5111,-1203,-1591,-1928
1791,6064,6426,4063,-1201,1616,-1259
1792,-1075,-4513,5778,1130,183,1770
1793,3302,7109,5353,1680,1855,294
1794,4483,-5974,-7784,1897,-1062,375
1795,-5141,1328,1377,1423,-689,-1405
1796,-4269,3208,-3042,1430,-307,821
1797,5163,6315,1650,1976,1666,-581
1798,2593,-7890,-3851,1714,218,-624
1799,-6069,-3990,-7765,-1267,-1441,1379
1800,2336,-296,-2632,-809,1227,362
1801,-6120,-284,1825,658,358,664
1802,6543,-2431,1437,-1476,1742,-466
1803,1047,-3349,-7844,-249,-930,1502
1804,913,2150,-619,431,-108,1482
1805,-2439,-4431,-232,283,-489,-635
1806,2939,-2858,-5275,1010,-1872,1205
1807,-1897,776,-2551,-14,1809,-1658
1808,5605,818,-2610,-938,-711,-918
1809,-7021,5355,-2595,-1241,1266,-1837
1810,-4643,-5478,3036,205,-1762,-870
1811,-987,433,-6047,84,849,-1037
1812,-7820,6976,-4862,1864,-54,1406
1813,2244,-3313,-647,1095,-1429,1224
1814,-5759,3862,-7639,-724,-408,-636
1815,7553,5635,4132,-1532,-190,-926
1816,-723,-3816,-3899,680,1743,-953
1817,-4455,-7769,-2175,1198,-110,-279
1818,1224,-5118,909,1439,1296,1192
1819,-2841,-7956,6959,-1589,1948,-1768
1820,5351,-900,4153,-1063,-1118,234
1821,-5340,2859,-3814,-675,1746,276
1822,5096,3116,4066,1823,1513,-1112
1823,1980,-5485,2019,-1266,-485,-1623
1824,-2024,-869,-3820,592,1561,108
1825,-5094,-6284,-6755,-774,-807,-1655
1826,-3823,3485,2100,-1090,722,-1531
1827,3142,-1805,384,631,594,1481
1828,4999,-7963,-6786,742,-579,570
1829,559,-2288,-6717,-1,-305,-1934
1830,-2462,-7343,-5440,180,-632,-1973
1831,2015,-159,7219,-1990,-1133,-1754
1832,2918,5247,-4768,1010,-1208,-1093
1833,-109,1511,5489,-1815,1540,-119
1834,-1970,2738,589,-863,354,52
1835,1961,-3391,793,-1064,-582,-1631
1836,2228,-6511,4253,-1992,1470,-917
1837,4598,4599,7040,1990,-1470,-1055
1838,2287,-288,5052,280,-811,-384
1839,6055,5898,-2198,-1615,-971,153
1840,-654,424,-5406,-868,-1170,815
1841,-4608,-4474,5804,-372,-1304,-899
1842,5201,8,-1625,-1732,-1986,1892
1843,-2540,-2400,-4847,1300,-1380,448
1844,3969,7331,-6991,-874,-764,-1846
1845,1350,2379,-2682,1451,1086,-1552
1846,-3087,4259,4517,-668,-1965,-569
1847,-1000,-868,6898,-1100,-209,-684
1848,-3834,2177,7702,-295,853,-219
1849,1045,3827,3732,-393,-1344,-328
1850,-1491,-527,6251,1276,449,117
1851,-1758,6973,-4341,1011,1978,-873
1852,6600,913,4086,-1003,249,1162
1853,-3411,-1459,7057,-603,83,-1812
1854,4773,7223,940,-411,-1279,-823
1855,-4062,-6362,4513,423,1837,1800
1856,5292,-5991,-7146,-1376,-1753,1871
1857,-7881,54,-3472,-1685,-116,-1361
1858,3913,3266,-295,739,36,924
1859,-5850,4693,-6525,-407,-822,1452
1860,-1292,-2667,-5396,-1314,-1900,1646
1861,-6782,6424,-2289,481,-1424,1866
1862,7909,6980,4893,-707,51,527
1863,-4386,-1141,3373,1395,-562,1351
1864,-7414,2855,-5114,-552,-1574,89
1865,-716,1218,5096,1216,-475,-674
1866,-3636,-3420,1082,-1776,-1769,165
1867,-5674,-3573,-7989,1812,349,1737
1868,-3128,7232,2448,1069,-721,-1794
1869,-5075,3953,2265,567,-384,-251
1870,-207,-5779,-5180,196,-294,1612
1871,-6137,-4296,2222,1642,701,1185
1872,-6348,6914,-2698,228,-404,-1740
1873,-715,-7796,3138,693,-1901,100
1874,-5147,3098,6559,-1597,-1763,-1397
1875,3159,4310,-7040,-1579,-1157,1498
1876,3465,3933,-6217,483,1422,-610
1877,-1188,-4423,305,-1552,458,1646
1878,2752,-1763,6185,-602,1899,-733
1879,-4640,-835,4028,-1562,-341,-1525
1880,-7380,-3858,4100,976,-639,-407
1881,2651,-7790,2821,1434,1484,-1883
1882,-5515,2321,5011,-67,-183,274
1883,-251,-4301,1552,-91,891,693
1884,-5724,-7602,-4720,1847,-542,1216
1885,-5855,7240,5125,80,-1239,99
1886,440,7641,5715,240,-389,-1598
1887,-7481,711,-3453,-1330,748,-828
1888,4437,-3720,-6768,1974,1258,-1217
1889,3375,790,-3753,-590,1932,-1035
1890,5419,1068,4043,302,768,1411
1891,-5963,4741,-6864,-126,1165,1529
1892,-667,1468,7264,-372,-1101,1915
1893,3936,5511,6245,1443,698,1354
1894,-7392,6848,5477,572,1634,657
1895,3542,-2758,6203,614,471,605
1896,-3457,-3379,7345,958,-1627,-507
1897,-6368,1832,4051,-1250,1123,1093
1898,-7731,4195,4525,-612,-1680,246
1899,7017,7906,1035,-217,1153,-520
1900,6410,-5990,-5167,305,-469,475
1901,2352,-4080,2930,-1559,462,-831
1902,-6497,2542,-4434,1417,-512,28
1903,5816,5983,-7162,-1157,269,1374
1904,-3120,-5305,-6099,703,-510,1042
1905,3292,2523,-7985,-1490,1653,1729
1906,-6623,-5235,5581,996,-1307,-1547
1907,-6300,4329,4364,875,1999,990
1908,1152,4138,-7040,682,1110,1879
1909,-3351,-4648,6738,818,40,1653
1910,1572,5124,2638,-886,1299,-1528
1911,-4602,1665,-7684,542,1881,546
1912,1148,-689,7082,-661,-548,-1110
1913,-2234,-1518,767,-750,1813,-1564
1914,6927,597,3844,140,-816,1290
1915,-7638,-290,-3057,747,1554,-1109
1916,1559,5719,-3193,-500,-904,1359
1917,-7767,-7252,-4626,-500,1901,1510
1918,-3713,6696,-2705,1187,1823,-103
1919,-3575,-2973,6590,442,-504,-876
1920,5677,7719,4966,-118,941,-92
1921,1975,6724,4079,-1676,1334,-970
1922,356,-5620,-5311,-1716,-1654,-300
1923,2411,3267,-5593,1525,374,1012
1924,-7462,1095,6639,-1003,-976,1359
1925,-6565,-5786,-2794,257,-1608,-1898
1926,5134,7384,2410,-568,1649,-863
1927,-1455,4186,1130,-375,-1652,-68
1928,-4793,3151,-5090,1041,867,-1035
1929,-4794,-1891,97,1599,857,192
1930,5262,-2311,2663,80,1216,125
1931,6854,16,-6041,1827,-1793,-711
1932,-76,-385,-458,349,695,-1361
1933,5721,1656,-6901,-1252,1227,1154
1934,2804,5712,1677,-1641,-1674,1393
1935,-7264,3602,6517,-1089,-1838,1570
1936,-3311,5310,-7350,681,-1548,-1399
1937,-4831,3141,-547,-937,-215,-1041
1938,-711,5471,6034,715,-206,-14
1939,1526,-7747,2601,1474,678,1415
1940,-4081,594,2532,-1594,-1064,1376
1941,-279,-2068,7734,-1153,-538,-1644
1942,-4266,221,5827,-915,829,-1387
1943,-4858,-6564,-6883,1479,-1221,-129
1944,6827,7352,-5064,-163,-946,-223
1945,-2983,-691,-4997,1381,1161,-1807
1946,4086,6572,7967,-824,-1897,93
1947,1843,-2417,-1909,-1874,-1933,1054
1948,-2832,7904,-2936,-496,-1323,-1016
1949,2842,-511,1844,1575,-770,-1556
1950,1303,-4098,-130,767,365,-980
1951,-5959,6880,2935,-1470,-1814,-251
1952,-6147,-4463,2150,1499,-462,-423
1953,5764,5885,-3793,-180,1876,323
1954,-4184,-2331,-6177,1469,-1704,-1281
1955,2926,482,5489,616,0,1875
1956,-2046,4230,1445,82,-385,-1691
1957,3901,-563,-4449,1769,-1186,-1437
1958,2233,-800,-5311,-210,711,68
1959,-3231,-3140,3812,-1247,1629,-635
1960,-1248,7289,-2521,-417,-1138,-1912
1961,-1685,3726,7355,871,-1378,-111
1962,3871,537,-394,-57,-46,-1900
1963,-6684,3193,-3231,627,-546,-675
1964,3874,1486,5355,-1131,794,-1387
1965,2328,-2151,217,1995,-334,-541
1966,925,1922,1675,-1391,-848,-306
1967,-376,4349,-1058,1862,-1107,-222
1968,-70,-6632,-1603,199,-1587,9
1969,-4424,5302,1532,-1089,-130,-1847
1970,-6643,2031,-2398,-496,-1471,-313
1971,-4874,-6066,-7055,-187,-1568,1437
1972,3456,3492,-6668,-579,-371,870
1973,4296,4480,-7917,15,1804,809
1974,-7636,-2638,2314,1553,-11,805
1975,7113,-5362,-389,135,405,-477
1976,4100,-6132,1055,183,723,-1970
1977,5916,2051,-6569,-1034,1288,433
1978,-1393,6765,-2309,808,-1902,-1197
1979,-4093,-7130,5243,-1906,709,472
1980,59,5357,-461,333,1241,-1224
1981,3474,3532,5957,-405,1087,-931
1982,2032,-2886,-4035,569,1753,1302
1983,3054,-1625,2546,-517,459,980
1984,-5573,-4458,-282,1939,1695,1384
1985,2470,2675,-7440,1826,1788,1637
1986,-4946,3297,-1240,1329,1406,-834
1987,43,-1812,338,-1218,184,689
1988,-4805,3649,5176,-26,-1578,-102
1989,6391,-5,-4693,120,-1062,1584
1990,-3675,53,-2059,-954,-1926,-1593
1991,4270,-240,-1671,507,-1228,1185
1992,-7903,6215,1223,-238,-445,961
1993,4679,7161,-1231,483,-1552,-296
1994,2711,-7121,-7998,-1131,-911,1441
1995,-6313,-4679,-2362,-1718,-1194,-169
1996,4371,-7918,3156,1049,-134,-1795
1997,3079,-1657,-2188,1599,1366,-353
1998,-7737,3687,3367,-1667,1701,1985
1999,-3122,1409,-4586,103,1726,436
2000,-5321,-5915,-4817,-1718,-1127,-1827
2001,-1550,-335,-7764,1472,-553,805
2002,825,1970,908,-162,1534,-1709
2003,7157,3928,-2095,-1406,71,1322
2004,2294,-6535,-5468,36,-1605,-120
2005,-3560,-2927,-6168,-1734,1984,1341
2006,-3430,-1031,-2117,-870,1820,-1091
2007,-829,-3584,6666,-1720,378,1423
2008,4802,-1805,5778,1084,1338,-1352
2009,2439,-3876,5273,-1203,852,1272
2010,-4965,-411,3269,-1017,-1876,-516
2011,-4821,2680,-3692,198,783,201
2012,-2171,-6689,-7960,279,-1841,477
2013,-4740,95,921,1131,947,1148
2014,-2392,-139,6247,1442,684,1769
2015,-942,-7624,4362,1736,-737,-1254
2016,-6751,4403,5400,-16,1168,-1406
2017,-6625,5044,3041,1309,-806,-846
2018,4487,1789,706,343,1759,-1300
2019,5546,3414,4040,648,601,-1123
2020,4072,5271,-3546,-841,1143,778
2021,1862,-6092,-4799,-1180,1289,1370
2022,6709,-2207,-6858,-60,430,474
2023,-7460,7581,7713,522,468,-1855
2024,7185,-1569,5993,1060,-1197,236
2025,-5495,6256,-2078,-923,178,40
2026,-5136,-4535,748,-270,-23,1521
2027,-1931,5967,6689,-1110,-577,1157
2028,-7997,-5249,6731,1300,-1156,1633
2029,5439,-5574,-577,-1175,1975,451
2030,5625,1993,933,1826,-746,-1581
2031,2364,514,2996,1775,1005,-1338
2032,-1279,-3985,-5829,1691,-1028,-824
2033,-4250,-1058,1298,-1228,-1609,-701
2034,-7366,-2804,1907,479,-789,1368
2035,4528,-5516,7517,-1908,-1220,1076
2036,7370,6614,5546,567,184,-92
2037,-2522,-4493,-3976,14,1956,783
2038,-5078,-3732,-2529,662,-142,-182
2039,3049,2677,7868,-21,520,146
2040,-4115,-407,-2218,1836,-73,-1565
2041,-1001,3743,3319,1526,503,-1581
2042,1363,7117,24,-394,-290,-1575
2043,5021,-5794,-386,-853,-1511,244
2044,-7158,-6126,-5078,1111,406,1647
2045,-7974,-7895,-5433,1698,1855,-1255
2046,-1779,-2533,2979,518,-1272,-129
2047,383,-7857,1285,180,-356,367
2048,-3217,-805,-3902,-255,690,1559
2049,1295,2055,7986,-322,-1990,-1295
2050,-7005,-4071,4657,-1243,147,-1286
2051,-6095,-5824,6661,-1702,1502,201
2052,-3133,-4220,583,1999,-852,1659
2053,4169,-6554,-2336,-622,-1686,-223
2054,-1216,6212,-6988,213,-424,-1400
2055,-6836,-6587,2880,-1166,-1051,104
2056,-763,2032,7180,310,601,842
2057,5517,-4248,1980,-1642,-691,1462
2058,-4986,6459,3515,-1687,-90,1486
2059,-1972,3350,898,233,534,-389
2060,2968,3964,6743,1315,1659,183
2061,-1118,6296,-944,1470,41,-1222
2062,3196,-903,-3648,292,312,1855
2063,2263,3752,1337,1044,-1418,153
2064,-7313,-7170,965,-312,-1143,675
2065,-678,-7638,-2314,754,1592,969
2066,-1522,712,3863,-1174,586,-531
2067,-1457,-6636,6281,1852,114,1027
2068,240,-2971,-3374,-1279,1646,-657
2069,-5453,-3264,-1971,1108,-1461,615
2070,2741,6323,-6613,994,278,-509
2071,-4442,-6432,-7284,1372,-946,-1352
2072,-1508,-5793,-2267,542,-629,495
2073,-1337,7735,-377,-799,-1211,-1318
2074,-630,-2936,-5357,200,-1973,1216
2075,1964,535,2716,-1624,103,-66
2076,-4202,-7656,6940,1752,-262,1475
2077,-1123,4550,2554,1314,917,-1371
2078,2384,-2372,5613,-440,-735,464
2079,-7919,6125,145,-636,-661,-1326
2080,2323,-4380,-5948,293,-1487,-1153
2081,-4025,-3947,-6960,-1133,-100,-878
2082,2846,-4285,6834,-466,1816,1838
2083,-6205,3080,1914,1817,-709,1322
2084,-7480,168,-7889,-1774,1061,-607
2085,2748,-7645,-3724,-774,1933,-954
2086,-4401,637,-7170,909,1594,-669
2087,7898,500,5406,-822,-1942,859
2088,7968,1236,-4523,-889,-1899,1829
2089,5282,-7503,2627,1116,617,-243
2090,-4529,-831,-7696,-1229,826,1853
2091,7846,4914,7490,-1607,-1876,800
2092,-4251,-5241,-1490,1475,1959,-1851
2093,7331,-7377,2437,-641,-1483,-1583
2094,2804,2966,1396,-1824,1787,353
2095,-1391,4944,453,-1991,-1821,-661
2096,-329,4245,-302,-1759,-926,-221
2097,5753,-285,-3489,1601,505,182
2098,3472,6799,4642,1743,-1504,-880
2099,-4143,3289,6444,138,447,-861
2100,6894,-6217,-468,949,1673,650
2101,-1618,-2443,-1279,-396,-1874,-1154
2102,-4352,1741,444,174,-1747,1600
2103,86,2701,-5041,-1237,-1742,808
2104,-5910,-6672,-5550,-756,929,-1240
2105,5789,-1410,6865,-414,1240,-385
2106,4025,-2838,-5678,-289,347,-791
2107,5296,4290,4885,-1556,439,744
2108,-5122,2914,6305,214,108,-348
2109,-180,7916,-1051,428,-1102,423
2110,-3489,4477,4996,-1043,-1432,84
2111,-2860,-3499,-1881,-764,1786,-888
2112,6864,-1573,-2552,1808,1582,169
2113,4933,-3725,-4779,100,911,-1795
2114,-4928,-5694,935,1012,-718,-1362
2115,-113,4394,-3218,-1347,1804,-1928
2116,1794,-4320,-2442,-619,1830,185
2117,7284,-4219,-7896,1539,-35,-149
2118,5607,-580,4059,-883,1869,918
2119,-812,-2425,3847,1161,-1498,-1631
2120,-2354,4156,475,66,-173,-1811
2121,-4438,-662,-6559,470,-1888,-537
2122,6221,7489,5350,-1939,2,-432
2123,-7701,-5301,6111,-1825,-1703,1687
2124,-1850,697,7936,1620,645,1345
2125,2556,-3179,4072,160,922,115
2126,924,4805,4741,-1814,1330,135
2127,-2733,5993,6438,248,1708,-747
2128,-1466,-850,-3147,-1921,1620,943
2129,-2461,4166,-481,-982,1146,1887
2130,6924,-7708,1515,1017,1377,-617
2131,-1617,-5869,-4632,-184,754,-207
2132,-7147,5408,202,1469,-1567,1030
2133,7514,-5411,-6524,-236,1495,-954
2134,6241,-6714,-3029,-1994,1060,1714
2135,-2737,4630,4562,-1243,881,-259
2136,2256,7093,-5818,-523,-1228,570
2137,703,-3243,-2877,1324,-1565,694
2138,-7927,-1881,-7646,-527,-1048,-80
2139,7910,2252,1978,-1938,-1969,477
2140,-1283,-180,3154,649,-2,736
2141,2364,-530,2824,-887,-1432,-149
2142,-4212,-1859,-4042,-973,-9,-117
2143,-861,2652,6977,-1461,492,1306
2144,-813,-5725,4184,623,928,-459
2145,-2246,-3864,-4404,1450,-1026,1297
2146,-4028,6640,-4684,-754,1052,495
2147,-2028,2702,-2584,498,1139,417
2148,545,2596,-7398,-1657,-197,-766
2149,5509,7153,-1456,1546,-198,-812
2150,5707,425,-5752,246,-1308,1931
2151,-4052,-8000,-4833,-1609,756,743
2152,6715,1612,-4437,-990,1497,1290
2153,4918,2922,-1165,-1871,-69,703
2154,7943,-3955,6977,-1061,-876,1836
2155,-7269,-762,-2687,1214,-329,-1764
2156,2695,-6656,4151,-1843,1621,676
2157,7033,-65,-7852,-536,1425,-361
2158,2495,-1141,7492,-184,828,-1025
2159,1343,-4273,3291,1580,-1523,-209
2160,7211,-1700,-7187,-1594,-563,-1647
2161,-586,4962,-6038,-691,889,-17
2162,3812,720,-3735,-1094,-1137,820
2163,-7929,2113,6335,265,-1260,-1921
2164,-2363,40,4050,-1361,-1132,-1520
2165,-3173,-3218,7940,1743,-1263,-1637
2166,2358,6502,844,-1885,-389,-584
2167,-3065,-5707,-3233,-1464,-695,-896
2168,-1169,5998,-5335,-206,-313,-798
2169,2291,-262,4072,253,-1120,-475
2170,-1793,-5308,1939,-1100,-1564,1460
2171,5094,4403,-665,1840,1792,1086
2172,7962,3010,-3744,327,1362,305
2173,4017,1661,5896,796,1103,1876
2174,7556,-5518,-2707,-503,517,-1074
2175,-4461,5984,-6014,1924,-1569,-1557
2176,7055,955,-788,364,301,-750
2177,2487,481,5811,924,-903,21
2178,325,3206,-4746,1026,-1049,-1867
2179,-3655,4386,7123,1553,-1849,-1405
2180,-5475,-1649,-4214,-1216,-122,-44
2181,-1126,6314,-1716,-1223,-656,814
2182,7717,-4685,-7279,-1548,-910,66
2183,5095,-940,5651,-1470,-179,-92
2184,5077,-6408,-3407,-1083,-1365,-926
2185,-878,3511,-4732,1699,1766,-505
2186,417,575,-2761,161,13,-1287
2187,-6914,-5438,7563,-1664,-395,-55
2188,3907,6627,-22,-1117,-315,-1605
2189,-2979,-3201,-4172,1732,-1808,-554
2190,-5603,7589,-1783,-1804,-1764,-1023
2191,5424,-8000,-3035,1061,-1794,1784
2192,1432,-6671,3712,-1099,235,232
2193,-4346,6561,1646,-1298,1108,-921
2194,6613,-1248,3201,1890,-8,-1403
2195,-7665,-6077,-7494,3,930,830
2196,6012,7434,-1422,-590,-1252,-785
2197,-7974,-6656,3977,1190,1918,1392
2198,-5873,-3812,418,-1612,-600,949
2199,2124,-4363,-1776,1658,1644,1777
2200,437,2423,7380,241,881,-39
2201,-242,510,-1292,-411,-406,-153
2202,-3112,-6225,-1749,1744,1974,-1141
2203,6300,-4113,2913,573,1971,-640
2204,6902,3012,5492,1753,-605,-84
2205,3224,3799,6072,1090,-936,464
2206,-4562,6110,-2778,-1640,-585,-1434
2207,7581,-6926,-4733,438,-599,-3
2208,3221,2352,-6478,762,1269,-1332
2209,-3644,-3955,-433,-400,1753,-956
2210,-2408,-5334,-6570,539,1829,-1067
2211,1132,-7302,3409,305,-742,-668
2212,-3714,-4733,2922,-1991,0,-1235
2213,3231,-385,6446,714,-1068,1391
2214,2766,-2663,-5882,-1497,1989,511
2215,7975,6073,-3458,1737,1014,276
2216,-4277,-5082,-5009,-630,1011,370
2217,-6482,-1782,-1229,-488,1202,1608
2218,7620,540,7256,378,820,360
2219,-5785,-1518,-5602,-1569,-1317,-1815
2220,-4206,-83,590,1596,-1935,1211
2221,-2547,-4336,7920,747,473,325
2222,-4110,6403,-1523,706,1774,1818
2223,-1430,5588,3288,-127,1843,-53
2224,-1108,3336,-192,1519,-1437,381
2225,1008,1990,-3825,854,136,1249
2226,-7011,1164,-1243,1856,1259,-573
2227,-1206,-6433,-1072,-929,776,99
2228,-4779,1724,-734,527,-1957,-1856
2229,6137,673,2966,963,-1430,1664
2230,3625,-7181,-437,-1813,-1153,982
2231,4760,5650,4868,1411,-652,852
2232,-6740,-7407,-7694,-105,-1666,620
2233,5975,-3595,-7274,-1424,-1585,-1832
2234,7031,-1954,-6681,434,9,474
2235,-6005,2754,-3597,-1446,445,-1921
2236,6180,3223,7354,-288,580,26
2237,2785,2079,-7968,1942,1505,702
2238,-1636,-812,7780,-50,958,-636
2239,-7354,4880,5596,-918,-1216,-1906
2240,-3922,-5761,-3464,-309,-1971,-47
2241,-1843,5317,-6575,1124,-1874,84
2242,3682,-4767,4193,1621,39,-1528
2243,1215,7140,-486,-1012,122,-1042
2244,2167,-1655,-2647,-1613,83,360
2245,-542,-237,6143,-30,1343,862
2246,-2918,6532,-3981,1137,586,-901
2247,-1,-1756,-5016,-868,-164,-125
2248,-253,-7356,-4913,1855,-1361,-1057
2249,-3369,1630,-7720,419,-663,-702
2250,2339,3026,-3360,28,1634,594
2251,-3768,2660,4133,456,972,-1210
2252,-2584,5094,-4965,-570,-1855,1219
2253,1617,-5145,-3532,321,1575,245
2254,-4758,2634,-589,1064,1418,1225
2255,-238,-637,2543,1253,-1128,-252
2256,-6690,-7071,7546,-411,-617,451
2257,-252,4425,4235,86,-922,1564
2258,6625,-1576,-7802,891,-1493,-1055
2259,-3897,3241,-1749,473,338,-66
2260,5379,7553,2470,-76,764,932
2261,-7965,-953,923,707,-372,1778
2262,-5817,-7010,1437,-1570,1049,689
2263,-3429,-4979,-367,-632,636,-1667
2264,-2855,7473,188,-1288,963,685
2265,4985,5486,3753,1430,-473,-1772
2266,6370,986,-7901,217,-856,161
2267,5488,-2385,-4403,1879,847,1503
2268,7785,3023,4777,-815,1373,-1615
2269,-5601,-746,6260,158,1900,-1538
2270,5204,6622,-3283,-38,641,1559
2271,-3377,5113,-5950,527,-631,197
2272,-2900,-3440,3191,-266,-834,-728
2273,7144,-7997,1375,1208,-1998,1934
2274,3922,-4997,3449,-1891,-1509,-559
2275,-7844,-7451,7902,-568,790,1292
2276,-1379,6015,-5215,506,-569,-1307
2277,6606,-2277,-3006,-670,-491,1742
2278,1543,-2692,-1767,477,1935,1723
2279,5171,3282,-3313,1455,-691,1471
2280,6561,-107,-3247,1572,-1070,-788
2281,-5781,101,948,1252,-517,-366
2282,487,2660,-7720,1800,661,300
2283,-5057,1106,847,-28,1106,1136
2284,4824,-2281,-7054,1477,-1288,629
2285,6783,-7449,-7225,374,1154,-1740
2286,-3568,5868,7986,721,-487,385
2287,4987,-1533,-2503,-1695,1500,-1437
2288,-2764,3309,5913,1957,1812,-390
2289,3527,2883,-6434,-694,1780,1654
2290,-4912,2952,5282,-1165,896,1724
2291,304,3780,-1751,-1745,724,1602
2292,7394,-1013,6772,815,-296,-338
2293,7632,-3216,-1330,-1911,611,-1413
2294,-2042,3182,1506,-1066,1391,1729
2295,-2512,-5350,6588,1449,-1971,-203
2296,-3142,-2958,1802,1762,-530,1167
2297,6492,6640,-7930,-244,633,-785
2298,-2666,-2426,-3677,234,-1098,1734
2299,-5244,6559,6401,309,1218,1519
2300,-6576,965,-4145,-1477,-668,-25
2301,-1873,-6788,-1984,-837,691,636
2302,5528,-1458,2572,-1781,-1421,-1309
2303,2411,-2463,-1503,-1667,-466,1913
2304,-6608,-6437,4637,1992,1075,-209
2305,-5966,-4126,-1007,-1989,-92,-188
2306,-7557,-3696,6661,-1161,1914,1943
2307,-4106,2336,3179,1780,-1266,1310
2308,-471,3218,-2135,1405,1704,1409
2309,2841,408,-6330,0,-1367,1522
2310,6770,6304,7384,-1869,934,-99
2311,-3903,1360,3754,986,243,-1244
2312,2337,-3972,-1109,1755,843,-798
2313,-5810,7194,7362,1572,1561,1833
2314,3693,-3409,5974,-34,-1157,459
2315,1034,6907,-3240,1280,976,856
2316,-3710,3922,-6766,-872,-918,275
2317,1850,-2516,-6703,1392,-268,85
2318,1959,-7325,1437,-766,1579,-25
2319,5242,-3553,804,-1252,-1894,-1879
2320,-4085,-2058,-5407,-1553,892,-1611
2321,-2448,-3134,-878,-1655,787,-201
2322,4964,445,-2862,-1693,-854,1900
2323,6670,4286,2940,575,-1563,1934
2324,6057,-3261,-716,1335,921,-880
2325,7645,4239,5497,-527,340,-1491
2326,-56,568,2714,898,754,-1976
2327,-7809,-2138,3131,-161,-875,552
2328,-220,-5694,5442,-1261,507,-1974
2329,-1468,-6223,-7363,-1445,-1451,-790
2330,1364,6999,-1939,667,1470,1387
2331,-7085,-4857,4943,398,-254,-352
2332,5772,4392,2717,-389,-495,391
2333,-3117,-6147,2300,-80,-1705,-449
2334,3768,7531,-1239,-146,942,-1704
2335,1763,-4097,3588,-172,1844,-518
2336,-7576,7902,-765,-1008,-1551,-286
2337,-2998,-3265,7995,-1917,800,-1358
2338,-1888,-6977,6781,-1457,-693,-1686
2339,-6158,4496,25,-1938,483,-835
2340,-2710,531,-3061,-1091,1008,-1477
2341,7084,-2685,-342,-1210,1063,-1463
2342,-7347,-4579,1336,-232,132,391
2343,-7453,-935,-663,-784,-1299,-855
2344,97,-5061,2787,-1126,836,-710
2345,-958,-6834,7719,-1591,-1429,1644
2346,4046,-734,-2079,1200,786,405
2347,2022,955,2101,-823,-947,-723
2348,-1510,-3302,7426,-593,1048,1837
2349,4550,1152,-3657,-158,-1211,-1537
2350,3291,-6813,-1835,444,848,1216
2351,-6375,6951,-3465,-287,1704,-1254
2352,2804,-3448,3914,744,-1344,988
2353,2871,3166,5155,-620,792,-457
2354,291,-7023,5094,791,1218,1510
2355,2330,5538,5100,-899,1555,29
2356,5460,3488,-1111,1857,-1167,-1578
2357,-3047,-3495,-5255,-258,1419,1267
2358,3417,-1418,-6354,1441,-1459,-705
2359,1155,-4466,4323,446,-217,1449
2360,-2528,3574,-3365,63,241,-142
2361,2560,6420,7620,238,-1178,-249
2362,5985,1577,5384,1806,-858,339
2363,1540,-6829,6153,-871,1392,-491
2364,-2987,-2992,5229,501,1037,1692
2365,7122,74,-3256,-1989,1988,150
2366,-516,7813,531,1229,-575,-1064
2367,4760,-5401,-3392,-528,249,1642
2368,3323,2039,-2396,-779,1449,730
2369,4783,-5147,-3788,1757,-739,868
2370,-6126,-7501,896,-1024,250,-1083
2371,6596,-3676,227,1567,1942,1793
2372,3451,-1959,-4192,176,1601,923
2373,-5038,-3456,1117,-496,404,968
2374,1676,3735,-2878,560,1369,140
2375,6815,-1707,-640,1430,-597,-1919
2376,1373,-4341,5097,531,-1417,220
2377,1936,2079,-7810,536,1472,1482
2378,51,-2967,-3902,1720,-67,409
2379,-7252,-6753,5473,-115,1808,389
2380,5468,-2499,4421,-86,-399,-1016
2381,-2562,3319,-2534,-1892,-1384,910
2382,4577,7630,3805,1519,651,1603
2383,-5882,-2448,-6883,-1783,-1381,-717
2384,3798,-5314,-1024,-1687,639,-812
2385,929,191,-3621,138,-1018,245
2386,-2901,-7603,4076,-118,1328,-684
2387,2104,5524,-6314,-339,-1443,314
2388,-939,7759,-912,-1910,804,-93
2389,1450,-6718,3927,1323,902,-1973
2390,-3616,7464,419,-1851,553,61
2391,-7462,7170,5103,-515,1816,-1163
2392,-6686,6513,-2211,1273,-656,-144
2393,-404,1236,-1559,867,-991,-1148
2394,870,2650,1516,454,-783,1624
2395,-5513,-2185,1220,1460,782,-13
2396,-2459,2917,1631,-1187,-920,-472
2397,-5352,4526,5618,1984,-1526,523
2398,4873,3308,5237,1609,794,1516
2399,-6716,7856,-5287,-66,-1808,5
2400,-4897,-5782,-1751,-918,-1492,-257
2401,-7063,4228,1481,-1940,-1961,1123
2402,7358,3111,6646,317,247,-495
2403,-7528,595,-5160,-1058,-1822,1636
2404,3517,-6094,-4828,-906,-732,-281
2405,3323,5823,6353,23,-444,1464
2406,-5970,771,5565,-959,117,1277
2407,-5002,-3068,-5832,-1466,708,1644
2408,-2000,682,3299,591,1408,-733
2409,4501,834,-3022,213,1409,23
2410,3570,7026,-1255,-851,501,1536
2411,2390,7069,7121,-359,-833,-1704
2412,7070,-5420,1475,402,1534,-111
2413,5849,-3172,7242,26,686,351
2414,-899,-7411,-4032,-423,-1061,-578
2415,-3516,-7893,5217,1819,-5,1119
2416,-6837,209,-4478,939,1154,1830
2417,5997,-1880,3100,-1508,448,765
2418,-4096,-2452,-6613,81,-814,1859
2419,-7878,-953,-7690,1721,-780,-1065
2420,6901,4785,1454,462,592,-1370
2421,6313,-5015,-515,-877,57,-696
2422,89,-7783,585,267,575,-1957
2423,4833,-6493,4869,1152,1306,-788
2424,5707,-1518,3652,1216,1377,687
2425,-1527,-3452,6210,200,293,1988
2426,-1953,2046,-174,790,-716,1756
2427,4617,-4347,4092,1225,-120,-1855
2428,5175,-7939,2664,479,-67,-117
2429,6766,-4010,-6165,256,578,873
2430,-918,-4423,17,651,43,-9
2431,2207,2975,-4477,-1364,-479,1086
2432,-4718,3399,-5270,682,1202,-1998
2433,-1070,-6994,-6530,1758,215,1133
2434,5192,-4708,-4681,45,-1920,-807
2435,-5283,1284,-5460,-368,308,403
2436,-7838,-1321,-647,-1345,-1066,-1115
2437,4875,-4788,-4312,-453,1612,1914
2438,-190,2007,4323,1139,-1965,1300
2439,4892,161,3134,-721,-499,1849
2440,6942,4160,-3474,212,281,408
2441,-2757,111,-4537,-1591,696,382
2442,-7831,4740,973,373,1632,1950
2443,-1758,-2735,-4145,-894,1324,690
2444,1296,5804,1278,-1069,65,-1736
2445,-6742,7444,-7960,1414,-1599,675
2446,4678,6927,-3133,1404,-231,1817
2447,7332,-5318,-7424,621,162,1532
2448,467,5402,-7710,1124,-190,1120
2449,-82,2659,6893,491,422,-1262
2450,-2911,5872,3643,-45,-1062,-1617
2451,1574,-2544,7190,423,-1676,-548
2452,-4438,-2490,-2240,-1808,-427,952
2453,-7635,5175,1392,-1725,-163,1854
2454,7074,-4338,-7375,-932,659,1114
2455,4920,-5416,-6083,-1208,-1552,915
2456,-6910,546,6512,-88,1588,672
2457,279,-5289,-6002,-1286,24,-245
2458,4012,2259,7912,-407,809,-1171
2459,6532,-211,415,-1616,-1066,1905
2460,-4122,-970,-3606,1053,-1253,496
2461,-2584,-2949,3434,758,260,-1499
2462,6695,-5646,7236,1569,1374,-113
2463,1918,-4544,-4047,344,448,690
2464,-7716,-6142,-3807,-722,283,-1344
2465,-3210,2511,-7942,1828,-744,568
2466,-1184,1850,-4034,-728,-1592,153
2467,-4782,1879,-2642,426,510,1834
2468,-7559,2006,-4992,-45,1156,-1865
2469,-500,5559,5643,-1938,417,-1721
2470,-505,4868,1019,1988,-1895,-1867
2471,-6495,-3262,-1736,-485,-1690,1692
2472,1340,3376,4541,-282,-458,1416
2473,-2603,-4858,4789,-720,231,737
2474,1348,-5712,929,125,-1416,-6
2475,6937,-6290,3750,-80,-1442,649
2476,4535,-2464,1010,1172,-1471,795
2477,-2537,-262,-2167,-648,-1131,236
2478,-5768,1060,-15,1990,-73,-1917
2479,2859,1671,170,286,-1293,580
2480,4957,2644,-4873,1617,-1883,197
2481,2366,-7822,-536,1211,-1277,-1095
2482,6384,-2646,1708,-1878,-94,1514
2483,6649,7437,7525,114,903,1008
2484,-7132,1723,7597,-1029,473,-56
2485,-3748,2110,-4335,-991,1861,201
2486,4796,-4858,7626,-1635,277,695
2487,-4096,-6412,3300,-937,-615,-1840
2488,2020,-2572,-8000,1958,-20,-1501
2489,347,4510,-1263,858,1215,1233
2490,-5770,-5059,1865,1920,-1041,442
2491,-7888,412,-6752,1377,-1811,846
2492,-2708,4784,-521,-1019,1217,-225
2493,-7943,6861,-4567,802,-1510,243
2494,-6166,2921,1731,-369,262,-1484
2495,5546,2122,3435,-1044,-473,635
2496,4807,7938,216,663,-445,-843
2497,-815,6712,3314,1565,208,-406
2498,3965,3876,2540,-3,-1703,1131
2499,1999,-2019,2087,737,-982,37
2500,6406,-6324,-3047,1175,1605,557
2501,-3466,-6673,1317,-1323,329,-583
2502,1646,-7384,-4001,-671,318,1511
2503,3708,2782,-2722,-1615,-1618,266
2504,-4212,7821,2395,-1526,881,1964
2505,337,2379,703,-1990,245,-1471
2506,6529,-5203,75,-140,412,1358
2507,-3560,3318,-3412,-955,771,834
2508,3772,-1391,-3343,196,-158,-1555
2509,6930,-7193,-156,-339,-310,1006
2510,6756,-3048,-3327,1543,1188,-1569
2511,-1107,6588,1064,1189,-1388,1792
2512,-1400,2552,4935,-1803,1681,1000
2513,4933,4508,-7992,-1121,-306,-180
2514,-6253,3851,4364,-1513,-1028,-1581
2515,-5980,-3576,-4623,1097,524,1033
2516,7751,7215,-7261,1726,1560,-837
2517,5461,-3178,-1710,1908,1545,-97
2518,2434,202,-979,1902,1309,-770
2519,-7499,-480,-1142,-1813,-624,990
2520,1542,-3603,4048,-37,-1514,1851
2521,-4900,-691,278,-1241,1568,442
2522,-1505,-3128,-6353,-941,1991,-397
2523,-2305,-1103,-7865,-983,764,-193
2524,1447,6201,-3061,1053,536,919
2525,-1027,-4164,2351,-224,1613,1539
2526,3811,-4927,5004,302,-1419,1514
2527,4902,-4860,307,871,-854,-1572
2528,-349,2352,7265,1993,24,1727
2529,3218,-3721,-7611,-912,1679,-1836
2530,-4501,-187,2821,314,-1859,-847
2531,5135,5256,2881,-503,-1369,1436
2532,2234,-1135,-7464,-928,428,1592
2533,1878,-270,3777,1177,16,-1969
2534,-2073,-5381,445,-1771,-1443,1866
2535,-6645,5761,-1800,1104,-549,794
2536,-5814,-3819,-2817,434,651,-182
2537,-1377,-4902,2618,-411,219,-1121
2538,-959,3827,513,217,1582,-1606
2539,4595,264,-5050,-579,1223,-1645
2540,775,7655,2202,153,1195,1271
2541,-15,-344,4356,1620,-468,40
2542,7449,-2176,1598,-1069,1939,1725
2543,-4200,-6784,-4283,1531,-1852,1363
2544,3312,4915,-848,-748,1885,-1687
2545,1100,-3517,-6040,-133,1140,-1493
2546,1998,2174,-2404,-1934,-267,-484
2547,4474,7834,2554,-1731,942,1517
2548,-3855,-4737,5520,1511,-1104,-926
2549,380,1141,-208,-1510,273,1640
2550,396,-3177,3607,-866,1493,-696
2551,5659,4390,2172,-1890,-1367,-929
2552,1467,-1221,-1721,1886,-418,-1026
2553,1338,-3331,1699,-1850,357,-517
2554,-3944,-7293,-6691,-1365,-399,-1515
2555,823,6009,-2610,-650,-113,1258
2556,4778,3928,7667,1239,903,-1438
2557,-5612,5280,4360,1097,1177,-1431
2558,7805,6073,1250,1009,1616,713
2559,-478,1381,-3365,127,-227,1869
2560,-4514,-7227,-200,76,-574,-501
2561,-4084,5148,2514,-604,-145,-1167
2562,-3051,-3012,4372,-1165,276,180
2563,6111,-5752,-2008,181,-198,-96
2564,-830,6007,-7609,-817,708,-869
2565,2315,1305,3260,-1022,632,1148
2566,-3121,-4765,89,-441,-1481,-1665
2567,-5771,1342,6440,1650,-757,386
2568,-3220,-4614,-3703,1714,1426,-1287
2569,-3390,6731,-648,1481,-1672,510
2570,4244,4668,595,878,-1154,-823
2571,-2938,2349,-6885,1695,-1301,-1620
2572,-6340,5484,6644,45,652,1996
2573,5663,1640,4209,-1800,437,546
2574,-7302,7792,-3272,335,110,185
2575,4899,3211,-3156,1789,1997,900
2576,-7052,-6599,2134,92,-820,1970
2577,652,-654,-5061,-1974,630,582
2578,-5129,1815,-6394,1589,-19,1868
2579,2483,-2191,3620,1771,712,-1528
2580,-6037,-1153,-7154,872,-1011,-877
2581,-3281,6059,583,1248,67,-90
2582,2414,1798,-919,1155,-1174,510
2583,-1085,-4494,4485,748,598,-1833
2584,2620,4471,-5355,1628,-756,379
2585,-6896,4034,-7128,-874,409,1853
2586,5445,-6758,-5408,-1601,-429,-1600
2587,924,6998,-5456,716,1065,-53
2588,-6073,-44,6037,-749,1213,1655
2589,-744,1888,-3938,1121,444,-9
2590,5177,6620,-5729,1870,-321,-1111
2591,-1067,793,-5661,1015,-1848,1264
2592,-1360,-4241,3594,-541,-455,383
2593,-5110,-876,4661,-289,-277,1179
2594,-6791,-906,-2246,48,1225,1704
2595,-3115,-4069,5301,-833,-844,1426
2596,1946,-3285,4475,-248,-1726,1205
2597,-1967,7444,-5866,-750,-505,683
2598,-7702,-7495,-2880,337,-773,-1197
2599,1543,6418,-3259,-1957,-1222,1050
2600,-69,-6350,-7747,-1927,39,436
2601,-2995,-7411,-5286,345,-976,-159
2602,-7857,7493,2559,1458,-478,-588
2603,-2742,-1192,4977,836,-387,-83
2604,2726,6307,6734,-845,400,-1274
2605,-7442,6842,-3507,1609,-790,-1172
2606,1884,7265,-3559,-761,1081,-462
2607,-359,-7096,7965,-1172,1158,-1384
2608,3876,-6323,507,-234,-917,-1423
2609,-3354,370,-6085,-583,-574,777
2610,1274,7273,-6146,1046,-1483,142
2611,-4966,3394,-2495,1973,-1060,1058
2612,-6166,-167,5706,1167,-634,-700
2613,3904,2731,1644,1976,1740,1397
2614,-5742,2551,-6392,695,39,-1250
2615,4601,-3484,6213,-1004,-1209,-414
2616,5916,7052,2190,980,-1840,569
2617,7573,7535,-2861,1191,-855,-1023
2618,496,6172,-2723,-1277,273,710
2619,1835,2811,4566,-537,1961,1947
2620,-5590,2646,-5428,-1457,-234,-1599
2621,-4584,4126,-5269,-230,1111,-1003
2622,-568,-2604,3815,-127,-1230,-17
2623,-3784,5664,-694,-1464,-232,322
2624,3073,6120,938,1154,605,741
2625,6031,437,151,-1186,1232,1627
2626,770,-7380,2750,435,1139,1640
2627,-4047,635,-7094,-1755,1364,369
2628,-169,7676,-7736,-663,-1156,-1285
2629,-2173,-6402,-6486,282,31,-1036
2630,5378,1889,403,-60,-1818,1060
2631,-5519,-7400,7193,573,1285,-264
2632,-5748,-5722,3206,-1724,-1082,-336
2633,3575,-4420,-6898,-596,-1459,-876
2634,-4413,-389,3110,-141,-794,1147
2635,6486,1880,-1832,1753,1698,-681
2636,-2773,-5478,1465,-467,-1419,873
2637,-6784,-7211,1813,-1953,18,-1169
2638,-3114,-5893,-4370,-155,1345,-1851
2639,-3165,-7665,-3553,1074,128,-1994
2640,-1304,2805,1947,-1574,-583,-1929
2641,-1932,4470,2239,-872,-63,-1503
2642,4831,-6866,-4045,1155,-1020,-1762
2643,-1584,-1200,-5469,-71,-371,1686
2644,5334,3953,-1903,486,-462,-1418
2645,1128,5751,3062,-496,1578,-1092
2646,3588,3262,6687,-1422,-379,-377
2647,-3503,-6534,1139,776,1071,-981
2648,-6908,5844,-3580,1804,542,1232
2649,-3062,3867,811,1375,1361,-111
2650,5584,-2725,2618,-1304,-562,1089
2651,7078,-1756,3765,929,354,-399
2652,-3986,-2874,-6151,-144,1527,-847
2653,-1759,6224,4639,-940,76,-176
2654,2447,647,-4244,-146,34,-1970
2655,6203,2910,1055,-491,138,-1996
2656,-2586,5412,-3724,132,-543,-1255
2657,3371,5379,-2956,531,-238,891
2658,2501,4069,-3312,-1639,1449,1200
2659,7261,1147,6037,1904,471,676
2660,-571,5331,-2684,1105,1390,-777
2661,3241,687,-5868,-929,1495,1018
2662,-2845,5254,-747,-119,-724,1814
2663,1313,971,-989,916,-497,1692
2664,7940,-7900,-6018,-1539,-668,-1074
2665,-3208,-5010,2305,-598,-1133,1631
2666,5790,-190,587,-1487,-643,-445
2667,1916,7753,7415,1184,-855,-649
2668,7112,-4209,1591,-1342,-1415,-724
2669,-194,1561,-4046,1090,1133,-1306
2670,6035,2031,-6425,1617,-993,660
2671,-7502,4700,2331,-190,-516,-510
2672,-6543,944,3702,-1918,1816,1861
2673,2003,3145,-6607,1362,463,952
2674,-6860,-2751,6225,35,1063,487
2675,1615,-1864,-6877,-1049,274,1460
2676,2875,-2636,6799,351,936,-1184
2677,-1197,4349,138,1594,-1780,1295
2678,3377,4324,-4352,-1838,-1023,1177
2679,4812,-5033,7948,1007,689,709
2680,2235,4319,3817,1848,1962,1805
2681,2627,4482,4897,1189,-1750,-781
2682,3149,7491,3737,862,-932,99
2683,-1509,-5736,-1689,-827,-1799,1746
2684,-6525,5572,2337,-1990,-625,-169
2685,-90,-712,7572,-1667,-943,77
2686,5637,-5818,-4779,-1432,-1423,-1286
2687,-7882,-6045,269,-1931,-1812,-777
2688,1349,-847,-4533,-365,59,855
2689,7010,6521,6861,-358,-1939,587
2690,-6867,4183,4898,58,1082,-161
2691,6771,-6384,-3628,1550,-1826,-1736
2692,-7157,2438,-4369,-1486,-959,322
2693,-5732,-3974,-1868,1170,1590,613
2694,3602,-1962,6856,-1785,-596,-1761
2695,-4262,-3120,-5127,363,-812,-1826
2696,3440,-6671,-758,-1938,-254,-177
2697,-1551,-5276,5760,1522,-1800,-370
2698,7097,7694,-7297,-258,43,-1793
2699,6626,1312,-5612,-1798,-1484,-565
2700,-4016,2517,7139,-1751,-924,170
2701,-1001,-384,3958,145,-600,-983
2702,-2380,-2589,2161,-131,-456,-1054
2703,-4102,584,3450,-904,1466,-1541
2704,-4114,2352,206,-22,-370,-1906
2705,-2389,-5367,5535,-1187,1116,-1080
2706,-314,-7619,-753,1463,1969,1010
2707,6308,280,1690,-1919,-199,-1230
2708,-3836,-2715,7024,1732,1030,-1999
2709,251,-2819,-3999,-75,-966,-734
2710,1365,6175,-7119,1534,1415,1112
2711,1446,-342,-7842,-183,-1468,-397
2712,-6788,-5746,604,-202,-234,-1163
2713,5210,-7885,4043,829,-1953,595
2714,6834,-4253,5686,1068,924,-460
2715,-1662,-4474,2818,1884,-1261,1626
2716,-4552,-7477,7222,1314,-1843,869
2717,-668,-5526,-51,-253,338,-985
2718,903,-3408,-2447,732,75,-1686
2719,-3562,-113,4210,1165,-1315,-1334
2720,-5387,-4819,-1698,-328,1649,-366
2721,-10,-2888,1738,703,-373,-521
2722,1631,-83,-6025,1263,1728,-385
2723,6311,-5000,2497,117,-284,795
2724,3108,-4331,-6385,1977,686,819
2725,3116,2402,5903,-1823,-1076,-514
2726,827,-5271,5845,-84,571,1467
2727,866,2750,-741,554,563,1858
2728,-1989,-1546,3479,1452,-10,-122
2729,3949,4382,1866,1252,-1335,-1668
2730,-246,-3605,7155,-1448,758,-150
2731,1388,-40,-2077,-468,-1151,1818
2732,7080,-4254,-7294,-1569,-1259,-1464
2733,273,-2684,1982,939,1996,1391
2734,-1442,-7824,3658,870,-64,-1251
2735,3021,889,3224,233,-1873,-1949
2736,1765,-217,-632,443,-701,999
2737,4150,-3329,6853,134,-154,-1563
2738,-2423,-820,4586,1077,-1353,1224
2739,-570,-4942,1350,1705,-950,194
2740,4443,-3335,1252,1688,1187,1113
2741,-857,5164,2912,140,1562,-816
2742,7362,-2057,-1358,1049,-1799,1934
2743,7462,-4379,851,808,-1928,-1381
2744,2651,-187,4175,1616,-1288,-1526
2745,110,-4980,-4585,-1997,-473,97
2746,-1627,-2686,-4828,-1001,-608,-312
2747,-2122,6260,-3351,-1919,618,-1122
2748,-701,897,6214,-25,-558,1707
2749,7887,7485,2630,-614,-1666,-759
2750,2224,-6180,6166,1468,921,747
2751,-4266,-4518,5594,641,-1888,301
2752,-5300,4293,3529,-670,-1252,-1095
2753,-1436,-1169,500,813,940,1983
2754,4028,7624,5503,158,-814,-1325
2755,-6927,-1949,950,-1315,-1055,945
2756,339,7506,-5073,281,1977,-980
2757,895,7788,-2298,-52,-563,-312
2758,-6381,-912,-1596,-1773,328,1632
2759,-5417,7932,4763,1178,-536,-473
2760,-6505,1237,-1014,-1177,16,-1754
2761,-4464,-1593,-3389,936,407,-1827
2762,4868,-369,7590,-945,1668,-1555
2763,-5510,2477,3647,1588,306,-861
2764,-73,-5574,1891,718,763,622
2765,-4143,-7134,1403,1851,1077,22
2766,5869,4432,7668,-947,-1711,1945
2767,-1272,4432,6167,-1346,861,-1334
2768,25,-1607,-1190,503,-680,411
2769,5344,6776,4211,181,1767,805
2770,4940,-7132,-4965,526,1789,930
2771,5929,-3734,-3137,1677,-711,-1043
2772,5858,-1667,-357,-370,1217,7
2773,-1894,4648,1267,-1106,1024,-1660
2774,-2874,1517,-3833,1109,1534,-1248
2775,4842,1136,-5169,1714,967,1158
2776,-3201,5156,-4993,1939,244,1770
2777,-5613,4464,-3228,321,1055,492
2778,-1149,77,-289,1411,424,18
2779,-5741,-7397,-6794,-840,-1262,-848
2780,-7727,-6784,-2428,1289,-144,-1242
2781,-3940,2763,2542,108,-1863,503
2782,-1177,-1410,3242,-434,-145,615
2783,5948,4510,-4800,-731,705,504
2784,-587,-4410,7402,176,-1266,1826
2785,-695,3457,3315,1541,-1469,559
2786,1687,-7895,4831,1580,-50,1446
2787,-6475,-5365,-6895,-138,1087,-727
2788,-2122,3637,-3482,-268,1887,768
2789,-3989,-5543,-2919,-1147,1474,979
2790,2749,898,6196,-1130,149,1682
2791,-7195,-1656,-1993,-259,1780,-1397
2792,-2624,-3588,-3410,982,-630,1460
2793,-2086,1889,7223,-826,1116,1457
2794,-1061,5008,103,1462,421,1581
2795,7693,3071,-276,992,465,-1617
2796,-642,-2889,161,-582,-583,1157
2797,6255,-811,315,682,-1749,-199
2798,-6863,-7571,-7908,-1288,-468,1860
2799,6880,3759,-4021,-224,-1010,648
2800,6345,1542,536,-935,322,-461
2801,4463,-4614,-2043,-103,198,527
2802,4404,7654,2679,698,-1480,-1653
2803,7241,7931,6667,-10,1016,-147
2804,-4883,4151,-1950,1783,-1599,-585
2805,1237,-3782,3744,1162,-1100,-1910
2806,-5202,3110,3959,-685,-832,-444
2807,-1480,6173,-4822,811,-757,268
2808,2179,-4753,-849,1075,1472,471
2809,1188,2270,-830,-1770,-1031,1078
2810,5237,-3834,526,884,-1199,-551
2811,-411,-292,5668,520,-748,-1429
2812,1767,-4460,-6309,945,222,-1223
2813,-953,-1915,-6933,-778,-1794,628
2814,4387,-2699,7903,725,1597,-1683
2815,-2943,2225,-2624,-1324,-1146,837
2816,-808,7607,4244,705,1523,-1491
2817,-3660,-6407,-5789,494,495,1900
2818,2519,-5536,-436,153,1105,-1457
2819,-2855,7962,-5064,-1955,-1318,1403
2820,489,-2341,-6541,1677,-1726,-294
2821,6504,1593,-137,543,-276,1401
2822,6663,-2441,980,-568,-1610,-1112
2823,-2727,3368,-3694,-897,-398,700
2824,7783,-7511,2363,24,-1046,-71
2825,2185,-5193,-1513,1181,1191,-44
2826,-2260,6364,-5123,1710,-1183,884
2827,-6397,-7479,1988,981,-1115,-23
2828,-7418,7456,-553,852,112,-1571
2829,7293,-6528,2200,-810,-291,1731
2830,7938,-364,-6694,1061,-1734,1534
2831,-3561,6039,2434,-911,-580,-1336
2832,3492,-5158,4195,-366,-1243,-127
2833,-6834,-5221,-4143,-1635,509,-136
2834,4402,-5410,5599,665,-1744,-1764
2835,-7668,-5571,-5032,-27,-1192,-1374
2836,5313,-1711,5303,1952,-935,-1439
2837,-296,-1673,-6964,1715,-539,66
2838,675,1124,3232,-771,-522,333
2839,6329,-7817,4743,640,-173,1373
2840,-7273,-7051,5646,-1305,921,-678
2841,-40,3452,7247,776,1003,1857
2842,-261,7678,6860,-733,1451,-1098
2843,-7231,3166,5630,-481,-1838,-1419
2844,-171,5989,-5095,-493,715,13
2845,-7354,-6275,-3352,-564,-280,-1115
2846,-5665,4426,3756,1826,-1821,792
2847,5238,3687,-4429,-1244,-695,-1706
2848,-450,-6377,1684,-1522,23,782
2849,7579,-1298,4250,-332,284,1487
2850,4243,-2818,-6560,378,1107,1386
2851,-3529,4841,3482,592,-1379,-183
2852,7247,-4805,-1467,1781,-394,-1894
2853,4898,4230,4501,-1207,1814,34
2854,-2250,4124,7371,-553,-1402,-1493
2855,696,2153,-5807,-1126,587,-53
2856,-2065,5589,5550,-1063,1649,1786
2857,-2318,719,4065,799,-935,-387
2858,6450,1973,-3937,761,526,1029
2859,-3504,-4864,5231,-336,-1704,706
2860,5056,-6496,3263,554,1554,1932
2861,-6928,-6748,670,1659,-1308,-1072
2862,4005,896,2179,-206,-1627,1415
2863,4729,962,4186,1098,-35,-1444
2864,6922,173,-5344,-1811,1532,-1471
2865,7837,-3236,-1741,-885,39,1674
2866,1464,620,770,625,-438,700
2867,5978,3521,-7543,1200,1481,-775
2868,6167,7121,7662,-305,1353,1147
2869,2037,-2545,3819,-1238,1385,1027
2870,-1671,-3895,-6168,-916,720,315
2871,-2450,-1485,-7021,586,-926,-992
2872,1960,-7822,6399,-84,1131,-1766
2873,3273,7917,-6060,-1199,660,1090
2874,-7371,-2836,3003,395,-1877,842
2875,6554,-652,4283,1870,-1827,-708
2876,5106,3523,-5529,-1319,-19,-1580
2877,4413,-7739,7734,-1962,-356,-877
2878,-5793,6955,-7362,-49,-787,765
2879,1421,6112,-5823,220,-1401,-251
2880,-1287,-1608,3770,-129,-1952,-387
2881,-3143,-6110,598,1891,1529,-410
2882,-2476,4564,-2854,993,881,939
2883,2225,2224,-549,-21,790,1329
2884,-590,5292,-5596,1212,-1769,-1230
2885,3208,-790,2505,-837,-173,-1827
2886,7096,-7062,-2758,879,936,1985
2887,-2767,6764,-702,-1918,1420,-140
2888,-94,-2280,-1953,1186,-1510,1131
2889,6779,-3570,6447,-1046,-1598,-863
2890,-2625,2028,13,-1102,-865,-17
2891,6040,2240,-4820,-1961,-1943,660
2892,-5667,6518,-45,-579,89,620
2893,-2952,6002,3713,839,-1058,-1691
2894,-612,3689,5829,-1194,-577,1201
2895,2292,-6299,807,-1173,-1534,-1052
2896,-1134,-6884,1408,-150,-759,71
2897,-2267,6501,-6479,974,922,-1312
2898,-5492,-3120,-2630,-761,-1668,463
2899,-6809,-4709,2626,1787,1767,-891
2900,-4813,-754,-4111,1486,1311,-880
2901,-5508,-2839,-2275,626,-24,-1633
2902,-1621,-6110,-5379,-1866,-709,-1077
2903,-6997,2004,-5865,257,576,795
2904,1405,2907,-6268,1258,-538,-1572
2905,6080,-1801,-4967,1373,-981,1208
2906,-4890,-5679,-4986,489,-806,1430
2907,5923,2135,-2657,1321,62,-1459
2908,-6950,6852,-2269,-318,-1226,1854
2909,-2817,-5546,5047,-543,1799,-350
2910,-5055,-489,-2377,1447,43,-150
2911,-2966,4828,-4807,557,-893,491
2912,904,465,-4893,1561,351,1123
2913,-4661,5997,-7417,-100,687,230
2914,6795,1948,-7766,-1254,1431,-915
2915,-174,-2656,-3544,-556,1630,1127
2916,-1860,4119,580,-931,1467,324
2917,-7275,5603,6346,-155,-1971,99
2918,-2797,6310,-2411,-870,287,982
2919,3457,-5457,1215,1513,1472,1909
2920,-4355,-1057,95,-1610,340,-897
2921,7386,2944,-3250,-235,-108,-949
2922,-6066,-6475,2117,-870,-1631,160
2923,3142,5912,4719,29,-72,-1703
2924,-607,6729,-1061,1481,1830,1614
2925,-2398,-6562,-7294,-1409,612,35
2926,6249,-2650,1889,1210,1108,1496
2927,-1042,7321,-4556,-408,1401,745
2928,5009,-2725,838,1761,400,1941
2929,7599,3203,2427,565,15,-1103
2930,7403,-2451,-4245,441,316,1051
2931,-2274,-3072,3622,62,-1103,1879
2932,6201,3855,6670,851,-1922,-1469
2933,4991,7490,6326,-1004,1903,1887
2934,3525,-2529,-644,-1782,1677,474
2935,5420,6862,6912,-83,-566,-974
2936,-7306,3088,-5411,1614,-215,543
2937,-4667,-4177,-1641,850,312,-143
2938,-1758,3600,-4060,930,-657,-1466
2939,-4371,652,5,-1071,74,-1458
2940,-6753,5470,7681,1109,477,-423
2941,-2173,-7595,1563,-1717,1787,524
2942,6631,3563,4825,1748,-1696,-861
2943,-6605,7995,7355,-1706,-1158,523
2944,-6822,7762,6824,-1854,-810,1267
2945,4609,-6293,5450,848,-1532,113
2946,-1852,-2854,4096,1505,-1325,-750
2947,-1348,4495,-4851,1827,-388,-853
2948,7350,1837,7708,90,1871,1048
2949,-5562,3519,-2767,-1613,1728,-1438
2950,-2553,3903,6188,-650,-410,-1213
2951,-7234,7042,6603,-1953,977,1119
2952,-4634,-2324,-67,1167,1596,-728
2953,1006,1103,-5017,-1908,1245,-1294
2954,-6763,7194,-440,-1439,-869,-1722
2955,172,-5507,1210,601,-414,-704
2956,-959,-3993,-5433,-2,-1018,-262
2957,4818,3972,-1674,-1246,-1591,85
2958,5951,-3187,-2145,1447,820,-12
2959,-5203,7841,-978,1426,755,-1073
2960,-319,-1160,-6432,-753,1440,-216
2961,193,-260,5612,294,-1541,375
2962,-1617,7948,1851,906,-1106,-522
2963,-4425,2053,-5423,-999,1030,-550
2964,-5215,-1310,-3043,1758,-210,-1670
2965,3631,2478,-1562,-1587,958,1962
2966,2141,4457,6602,-201,-623,-720
2967,6747,6899,6124,-731,692,356
2968,-4768,4040,-5276,-84,1090,1513
2969,814,-7980,3744,954,-798,619
2970,-3588,-940,-7414,1836,-410,240
2971,6496,-1871,507,-150,-512,-717
2972,964,-4267,-1557,-1783,677,187
2973,5951,-6202,-4373,1194,-1447,634
2974,3921,2470,573,-1629,-708,697
2975,4009,5776,-6327,1871,-958,70
2976,-1102,6290,-7597,-969,-1586,-599
2977,249,7494,1656,468,-1203,-1856
2978,-3662,-6093,2319,1850,-447,606
2979,-5771,1328,4860,515,-1529,-562
2980,-3384,-5221,2176,-321,828,1785
2981,2034,-4410,4614,818,481,1343
2982,413,4692,101,1190,-1850,-546
2983,-5354,1952,-4771,1662,-1510,-239
2984,-6421,-1389,6853,-1720,1930,-1578
2985,-2480,2435,-7585,153,-1456,1359
2986,-7598,1396,2747,-456,-1577,-1336
2987,-2036,-1526,7110,-727,1402,1342
2988,1052,-5317,7486,951,-1896,-1789
2989,-7098,-7269,-3875,1657,849,-123
2990,6340,5810,-1020,1073,1541,1834
2991,-516,-5841,1248,678,-1738,459
2992,-2409,-7786,7715,-1815,1787,1798
2993,-5304,-4013,-6076,934,-1903,1037
2994,-4868,-5617,457,626,329,-1537
2995,3302,3713,-422,-1557,-1235,161
2996,2806,4503,-7041,37,1020,-345
2997,-5449,-5871,6671,-869,-1139,-1755
2998,-3969,-7167,7629,1360,-909,1223
2999,5495,-4725,-2277,-1844,-1607,-1380
3000,4612,2443,7116,-319,1024,-1144
3001,1968,295,-5448,-483,-1987,-648
3002,-4861,4345,579,246,-196,-744
3003,-5380,4915,-4431,933,1178,924
3004,-3955,1529,5292,525,-1904,1754
3005,-1331,-6626,-3956,667,-1121,-611
3006,-4967,6607,-7794,-1686,-134,-995
3007,-5938,-894,-6470,536,-1332,-584
3008,-1174,5051,6448,377,-1646,-1764
3009,349,3504,-2867,-867,711,-84
3010,4587,3906,1964,382,-1479,1779
3011,251,-5685,-3031,-1613,769,1460
3012,2246,3723,-6453,949,92,-748
3013,-5770,3649,4746,271,1275,-1284
3014,3075,6729,6427,1266,-1801,-485
3015,998,1428,3927,546,1309,1433
3016,-5849,-7148,-5343,-1159,68,1489
3017,7775,-7478,-822,-433,1886,1329
3018,6858,5523,512,-1014,408,-17
3019,3793,5896,7833,-1896,1377,1219
3020,6616,-6445,-5465,1739,427,803
3021,7553,6883,-959,-1005,1155,1602
3022,-7618,-5392,-4426,-600,742,-1637
3023,-3012,6281,6063,155,-1484,-1297
3024,7047,6277,2445,94,-374,302
3025,4332,7437,4692,-1965,776,346
3026,-7116,-6911,3815,548,307,-1185
3027,-1652,-514,7383,1878,-668,-503
3028,-6127,-6797,5385,-258,-427,1619
3029,2872,5901,1591,-164,718,932
3030,7601,-2833,-663,1833,-1274,294
3031,7833,3426,4373,-488,-1772,-99
3032,3011,2493,-3839,-286,-926,898
3033,-2757,3346,6416,1785,1645,123
3034,5985,-4760,-7102,1862,616,-1098
3035,6658,-43,4907,758,833,-1523
3036,-4034,3286,3667,1842,-994,-984
3037,7767,460,-949,-548,-1043,-253
3038,3502,-2646,-2522,-896,-633,-190
3039,-4199,-4143,7000,-692,166,1268
3040,-1702,6951,-2064,234,-741,912
3041,-3756,6114,6640,-931,-1901,1050
3042,-3572,-4668,-6112,-646,826,-911
3043,-380,234,62,391,1797,-1947
3044,962,2574,-5092,1533,1447,-1481
3045,-6966,-6981,-2393,-13,1956,1948
3046,-6060,-7300,5577,-936,21,-106
3047,2966,-816,-4299,719,-1132,-1094
3048,-3091,-5444,-3543,973,-941,1227
3049,5689,-4546,-7310,-345,-1849,-1759
3050,-468,-3576,4986,1000,-1944,539
3051,917,-6198,1478,-676,-931,581
3052,7428,1557,-745,1828,-657,-479
3053,5617,-7392,-2631,1232,353,188
3054,-2103,379,3552,-1805,919,611
3055,2595,-5319,-2558,-1475,1455,-292
3056,-4288,-6320,4913,397,-1500,-1294
3057,5127,6061,5102,882,1628,1311
3058,-1431,-1373,-6216,470,337,23
3059,-2003,4047,6184,1694,-1592,1742
3060,-4389,2085,-2318,-471,599,-1917
3061,-4194,-1460,7760,-939,1852,275
3062,5785,-7007,-4454,1752,-333,1038
3063,-7178,-7333,6002,245,-1841,-296
3064,4907,-1229,430,407,1705,-1675
3065,-5117,-277,1928,637,80,-577
3066,1089,1759,-4108,822,1886,584
3067,3686,-2205,2641,135,-709,316
3068,5303,-1284,7831,-573,-883,-1237
3069,2224,-6030,-2418,1023,-305,-725
3070,4574,631,-5018,-984,-1017,248
3071,-5680,-3170,5882,299,-744,-1647
3072,-2625,6090,-5728,1674,428,451
3073,-7885,1577,-1346,1459,-1997,1325
3074,-3274,-6170,-1474,1433,1674,895
3075,-1552,3683,583,471,-1134,1485
3076,7971,-2385,-487,-689,1368,-102
3077,4965,327,-3048,-1133,459,940
3078,2464,6261,3882,1618,-866,1265
3079,-1837,4120,-5349,-864,235,621
3080,-6330,6064,-5921,747,-1890,525
3081,-2991,4372,-2465,-321,921,607
3082,-2468,6353,-6442,1297,-1797,1470
3083,4856,370,-2136,-1559,-210,-922
3084,6683,-2079,-5989,-22,734,1471
3085,5412,-7331,-6318,762,-1418,-1397
3086,1701,-5448,-132,-1760,1609,-322
3087,3601,5947,-5084,-1295,-1212,94
3088,-61,1244,-2737,-1675,424,868
3089,693,6188,1784,-1398,420,84
3090,-3239,-5324,-4264,976,1016,1614
3091,-3777,-4443,-1698,-1617,-1847,-1542
3092,-6321,5831,-864,-1562,-157,-287
3093,2901,-4745,3367,-1960,-876,1203
3094,-1676,7537,13,-674,-288,919
3095,-6460,5229,-6962,-1233,-686,774
3096,-5506,-7212,6052,-1023,1666,1189
3097,5319,-1479,5948,-1736,-1122,-1026
3098,-4539,6829,648,1428,410,-1974
3099,7755,-5713,2829,-882,1914,-1806
3100,1965,4016,3406,-236,1512,-398
3101,2847,5230,1629,113,543,-1221
3102,-43,7717,-5126,143,991,1230
3103,3835,-4999,4177,-699,1320,-880
3104,7778,-4777,-7731,-1948,1902,802
3105,-850,5211,5776,-1083,984,209
3106,-3184,1554,-4496,1538,629,537
3107,4209,-3964,-4891,-657,1677,-1821
3108,-2768,-6345,4657,45,-993,-1925
3109,-1843,-852,-6301,1191,456,-1771
3110,7079,4998,-2215,220,-1617,-893
3111,2539,1933,-6346,-882,-426,435
3112,-2379,4034,4380,-365,1889,1932
3113,7747,-7725,-6896,484,1191,422
3114,6986,7475,2509,686,963,720
3115,5206,7924,3832,1737,-941,1862
3116,-3316,7648,-3186,-1127,1142,-798
3117,-394,6107,4083,-1239,-55,-122
3118,6465,-470,1920,1024,-1835,-364
3119,-7825,-3630,-7341,1489,1640,465
3120,3646,-3034,-3476,690,-1126,-143
3121,5633,1433,-4795,211,-36,-1976
3122,-7464,764,-2943,1654,488,1767
3123,4775,5005,-399,70,1586,88
3124,-2189,-4601,4714,1871,-1955,156
3125,3852,-7999,7957,-203,608,889
3126,-3619,5404,-7902,15,1470,480
3127,2014,4460,-7500,-1102,1020,-1283
3128,-4477,-7041,-4466,49,1178,-761
3129,3364,1462,2860,-175,374,1126
3130,2260,-4944,2672,259,-1908,-836
3131,6637,6521,667,-1745,1314,-1483
3132,-592,-123,-670,-711,-894,-141
3133,-5673,1734,-1365,-58,1090,1103
3134,-2897,7999,7798,1131,-102,-825
3135,-1134,167,-800,-1027,1002,-1515
3136,-6384,4017,-4388,1370,1242,-1884
3137,-5163,-1315,-5696,-1882,1812,-1565
3138,2029,-7717,900,1094,-629,942
3139,-3151,-1787,2381,1844,-1609,-1544
3140,-542,-6681,-867,-460,-143,1122
3141,-2423,4592,-3887,-1574,1175,-1977
3142,3810,-494,-2729,204,-897,1794
3143,6919,-2868,-3053,-1204,354,1046
3144,-3659,-1005,-7205,1736,1028,9
3145,-5646,-536,-7562,960,-936,-820
3146,4947,-5128,-1332,504,-1600,-1860
3147,1797,-1239,5332,-1963,417,895
3148,-1055,-1596,-826,1646,1007,483
3149,4446,-1225,485,362,832,-774
3150,-6248,-5207,3921,-1541,380,-318
3151,-2915,4315,-3147,25,-1006,1433
3152,6579,-3532,-4474,232,-1978,-821
3153,2390,-5632,7199,805,66,-40
3154,4102,2730,915,-1033,452,-631
3155,-3409,-134,7756,-525,-1317,1590
3156,6593,5785,3939,-902,-968,1416
3157,6998,-7351,6890,935,1899,1901
3158,-7467,-2481,-813,279,-754,1522
3159,-7099,-7688,2555,-671,860,16
3160,-5050,-1154,4923,-1540,-239,1415
3161,-4210,-6385,-6169,808,-1066,1304
3162,-325,1412,-4702,112,-1451,672
3163,7163,-3108,5084,-475,1829,-1687
3164,-1832,-3414,-3035,-905,385,1618
3165,2404,-3945,-713,-1872,-1947,503
3166,-7659,-3127,474,1982,1917,69
3167,-7040,2478,3000,-232,1506,1972
3168,5853,7697,4815,858,40,136
3169,2392,-4843,-2050,1728,-215,-1755
3170,6643,1820,-3183,345,-1161,628
3171,-963,43,-4743,1824,1753,-1031
3172,6603,6569,2592,-300,-1641,573
3173,5060,-2883,2541,-1685,925,1358
3174,-3059,3812,3297,-499,-27,1676
3175,-5555,-3311,-5565,-489,-1971,-1601
3176,-6945,566,4769,-962,-710,-1123
3177,-6479,1774,-7658,85,1980,-690
3178,2503,2905,6511,699,-1550,1761
3179,1777,476,7985,1354,-517,333
3180,-7414,4068,-7622,-716,-668,-1603
3181,1136,-2768,-6941,-1149,730,-391
3182,-4248,6874,-5302,139,853,-1164
3183,952,683,7248,1873,-1807,239
3184,-986,-4340,6880,-1748,-762,377
3185,1603,-4007,3128,1842,-1046,-651
3186,-7107,7764,269,825,-755,-1662
3187,-4884,-2027,5210,-611,-507,-1289
3188,7672,-1402,-7820,1115,-603,-352
3189,-7122,-1869,6715,-623,-662,1390
3190,-1232,-446,-7055,-1909,-833,1283
3191,-1496,-7103,971,580,-291,1294
3192,-5839,-6567,-781,-1058,-1988,-607
3193,333,-6447,-7448,-1869,1068,1634
3194,-3728,653,-3687,1072,706,1983
3195,7942,-2477,-7769,-191,-170,-950
3196,-2771,2857,-3905,275,556,1243
3197,-3636,2980,-5824,39,-1412,21
3198,3387,-4247,4086,-1709,-1994,940
3199,-545,-6774,-5759,-905,1449,-1196
3200,-583,2431,-2347,1782,1088,739
3201,-381,-5178,2009,-1811,-235,359
3202,-815,-5948,1483,-463,-1015,823
3203,-3763,675,6364,1837,305,1456
3204,3013,-4432,-2234,1992,-1783,-1674
3205,-2920,676,4371,850,1125,-1461
3206,2503,-60,5011,-1230,1474,-1220
3207,2647,1595,4545,-941,189,-1507
3208,-5289,-831,351,-1713,-1140,1018
3209,-7078,-5179,4569,-1229,1522,-1834
3210,-6512,623,4470,-1429,-1256,1457
3211,-4806,5708,-1432,1860,-1404,561
3212,1528,772,-794,-1292,-947,-1170
3213,-4586,4790,7343,1001,-898,1387
3214,6563,4407,-1617,-1301,-5,-1537
3215,1749,6912,-522,1638,-534,895
3216,-2893,7041,340,1813,-129,714
3217,1297,-181,6967,-1390,-963,999
3218,-773,158,-1789,922,-1097,-1103
3219,2357,6683,-3911,-1624,-1039,893
3220,-7483,-757,-17,-1092,-1937,486
3221,-4322,-4060,7850,309,619,-1105
3222,-5717,-1067,853,1715,837,890
3223,-5724,1896,-7592,-342,-1856,-970
3224,5457,1974,-7244,569,1894,466
3225,-6822,6563,-7168,765,1882,1040
3226,2480,5200,5585,878,-819,1943
3227,-5127,4956,-1146,-1808,1257,1429
3228,-7931,7112,-7115,-684,-1312,-365
3229,-1004,-1068,369,-327,677,-1386
3230,-5123,-4481,-6323,1306,-1917,1466
3231,6605,7730,-6722,1432,-1233,-1538
3232,5027,-6242,169,-1886,1085,1782
3233,7686,-5620,2611,-422,1761,1957
3234,-2235,-5982,-1418,-1943,1622,142
3235,5680,530,4149,1052,1712,1781
3236,4400,-2419,2617,1431,-1626,564
3237,1714,-4464,-5118,-1028,-1212,261
3238,5915,-6711,1211,925,-1812,-1325
3239,-4829,-7346,3069,-1341,-1544,-1614
3240,-1596,5707,-5903,1687,1338,-1540
3241,-4113,-5659,-2059,1721,-1122,778
3242,-3472,7496,1377,-626,532,1228
3243,2393,2869,-5085,435,1298,-1119
3244,2723,-3844,-6219,541,-681,615
3245,1524,-3894,5292,-170,-1617,-372
3246,3076,-2725,-337,-1607,-1745,-13
3247,1266,3650,163,351,-460,1389
3248,1498,5244,1249,202,-293,588
3249,-171,4545,-3325,-1429,1504,1854
3250,1901,5197,-2865,-1511,-1358,1621
3251,-6726,-281,-7999,-502,930,1784
3252,-6379,-6969,1007,41,69,651
3253,-3710,3470,-3703,-5,1564,-915
3254,-6387,-7793,-683,-1307,279,1681
3255,-6558,-7744,-1295,-1595,1474,-1397
3256,2651,-5379,-694,881,792,-160
3257,7242,-5872,-6802,-412,-1950,18
3258,324,3855,-3872,1680,1726,284
3259,7745,2264,-4679,-492,-632,1190
3260,-179,-6187,6909,-1577,980,1736
3261,5953,-7750,-2680,-554,1402,930
3262,-6581,5379,-6065,661,384,-1274
3263,-5242,-6614,-1078,-60,-649,678
3264,-278,6304,5535,-1220,-1679,635
3265,5455,2867,1468,1135,-1627,-938
3266,-7704,7629,371,-66,1600,-600
3267,-2912,-1554,3520,-1832,1151,-1749
3268,655,-5908,2121,576,-1506,-1337
3269,-2525,-6166,6970,236,-1230,376
3270,-22,6344,-3095,1518,-1777,20
3271,7597,-5224,-3939,-1041,635,927
3272,-7840,-1571,-7207,443,-448,177
3273,-2872,-4956,2142,-1023,1514,816
3274,-4617,3983,2995,972,-544,-683
3275,-7541,-3069,1907,-740,886,16
3276,1372,7116,-4790,-1136,460,-1342
3277,-7,-6400,6742,-1245,1811,-751
3278,611,5444,2202,365,-1725,-668
3279,493,-3708,-6411,484,1761,-750
3280,3963,969,1324,-1933,982,1652
3281,492,-1645,-747,-949,-686,1414
3282,4143,-3636,-2976,-1516,-1827,-1147
3283,-5819,6645,3693,-1833,-1494,-701
3284,-7583,7301,-5159,853,-280,-1592
3285,-196,-7214,5770,-1446,-1850,599
3286,3264,5762,2424,-387,446,-1043
3287,-7095,7655,-7363,1832,1603,-838
3288,-5503,-4,-5205,-1125,850,-606
3289,1952,-1684,1457,92,-1002,-1433
3290,4191,244,-6081,-737,-1639,1050
3291,-4010,7759,-6130,-1370,-456,1682
3292,-470,3533,2051,-1852,-1127,-1731
3293,-5569,7675,6368,1877,355,-37
3294,-7135,-6487,2073,-11,665,1936
3295,-5826,56,4204,842,548,364
3296,-2011,2854,-2333,-851,-371,-520
3297,2343,1333,6107,-1601,264,-622
3298,6306,6350,-5459,1818,1190,1099
3299,-5264,-5796,6576,-1741,-547,-1578
3300,5541,2356,-6655,303,1230,-847
3301,-5204,5666,-2632,880,1574,-913
3302,-2811,-7623,-4804,1607,-797,1765
3303,210,2360,-2156,1527,271,-211
3304,-1360,-231,-596,539,1462,-744
3305,-5579,2894,-7065,1624,-191,929
3306,5806,1422,477,-1896,-1212,1497
3307,-3141,3945,1056,-1879,-990,-1116
3308,-5774,4351,7706,956,1578,1818
3309,2893,6156,-7279,1621,-1206,1016
3310,-5838,-4036,-6546,3,-78,1218
3311,2267,-1513,-27,-994,1189,-420
3312,61,7965,351,1005,972,835
3313,3585,-5752,-1672,-1024,398,-1550
3314,-3798,7636,-4393,-722,-913,162
3315,467,-6719,-3416,1296,686,-1417
3316,5090,2449,3823,-263,-1785,-833
3317,-3162,-4882,-2282,-983,-1061,899
3318,-221,2572,7156,-1602,753,-1568
3319,-5259,-3491,185,-1352,726,720
3320,-6801,-6160,5499,-13,883,-1318
3321,2155,-7641,6302,978,-182,-123
3322,-3216,-4964,3528,-1086,-534,1784
3323,3575,-6478,-2691,-936,1031,492
3324,-760,6648,1425,-1700,1150,1954
3325,-4533,1852,-4101,-1245,338,419
3326,-1477,-2236,-5630,-1087,1507,-27
3327,-7742,-3263,-3520,54,-225,-1858
3328,-2010,-1774,-1961,1709,-1095,-363
3329,-6322,-114,7326,-1957,1438,857
3330,3765,-7380,-3203,-876,16,1618
3331,6858,-7385,2445,-947,1945,-1132
3332,-3339,4366,6191,-1800,-866,-70
3333,-2160,-44,-3267,996,-1064,766
3334,-3670,-7217,-2750,500,-1851,1542
3335,2357,-6173,-3352,569,1436,-744
3336,-5575,3464,6771,788,220,67
3337,-5718,6756,3770,1397,543,1015
3338,6094,7519,1149,-1025,790,475
3339,-4673,3680,-3117,148,1692,865
3340,3268,-7009,-2064,1536,-951,1356
3341,5306,6320,-4992,782,1011,-1770
3342,-7490,-32,-1270,-457,593,1227
3343,-2053,7433,-4588,302,-410,1249
3344,6151,-581,-478,-1168,-1749,-389
3345,3973,-5526,4777,-249,1953,-1313
3346,-1349,-3992,-5087,-121,1578,91
3347,-1477,7777,7561,266,731,-1013
3348,2888,-4449,4415,-1371,-51,-1683
3349,2853,3937,7948,-224,1314,533
3350,-6760,-4055,-505,-1184,1862,-1940
3351,-4953,-3796,521,718,723,1389
3352,7626,-5808,826,-678,-1341,-29
3353,1006,1810,6609,953,-156,-1438
3354,-4344,-194,-4266,-692,375,1019
3355,-7482,-1995,2635,1996,-620,173
3356,5100,7894,-4840,1320,1125,1689
3357,3965,-6600,-1226,1544,-1887,1478
3358,7138,6141,1662,303,398,1027
3359,-4978,-2758,-700,1987,-1201,-1587
3360,-5676,-6450,6740,-587,781,-780
3361,2267,1497,-6781,-296,1343,-1353
3362,6336,2120,6065,1956,380,314
3363,4596,-1923,7023,-1420,1390,1744
3364,6269,2918,3709,-1580,877,1990
3365,-6610,-509,-7402,133,1956,-1574
3366,-5214,5093,-2504,-1345,-1513,-1444
3367,5017,4044,-7214,-1064,1403,770
3368,6332,-5605,-7228,-1839,-575,947
3369,-5676,3246,7513,654,1379,-810
