Sample,Ax,Ay,Az,Gx,Gy,Gz
0,5148,-5401,-4853,-1646,-782,104
1,-1360,7742,7920,-1095,-720,884
2,-1557,-4185,2164,835,695,583
3,-5441,5663,7200,-1778,1651,1773
4,-5753,5932,-4270,-565,438,1905
5,-6335,-322,-6486,-115,-1493,-611
6,-2077,7973,-3945,-376,655,-1171
7,1312,-7744,2235,-1180,-515,1927
8,2547,2661,5941,-634,424,-1198
9,-5223,3563,5235,192,905,-128
10,3694,-5327,6153,357,-1546,-1613
11,6148,3077,6056,-1972,-652,-521
12,-5495,-2906,-6788,-684,17,-1038
13,4938,-2850,-4944,-862,1148,137
14,7356,869,1151,-1565,1318,770
15,-4743,-601,-557,-614,613,480
16,6807,3246,7995,366,-1447,-1359
17,5953,199,-3735,1861,-1828,170
18,-6423,4642,2448,1252,1212,681
19,6234,870,-1143,1894,337,242
20,-4286,-5684,-5244,195,1149,1973
21,7135,2803,-3418,-82,1678,852
22,2224,-6784,2774,1077,1907,553
23,-1607,872,7266,1707,163,-868
24,2594,-7364,-5442,-275,1649,-161
25,-250,-6877,-3534,-1653,-446,1513
26,7687,3237,-1626,452,-279,786
27,4149,-2295,5728,1039,1547,1589
28,3242,-7202,4071,-657,1339,-824
29,4662,2253,4464,1082,1808,-325
30,-5807,-2405,-4251,-1836,-1549,-1967
31,-6433,1974,6314,-75,-402,-1708
32,-2913,944,6649,275,-1856,-586
33,-3594,7012,-2057,-107,1397,-1653
34,-4401,2473,2301,-603,1662,-12
35,6540,6,-488,1768,918,405
36,3857,-7567,-1616,-95,1955,576
37,-6916,-5335,-2784,1597,-766,-92
38,-6889,2492,4894,1538,1415,-282
39,3002,-7460,1266,-1560,-1603,-1166
40,3964,3519,6299,753,-198,-1408
41,-4179,5723,6545,1415,581,411
42,2134,283,-1724,-1716,452,-657
43,1360,-6757,7751,-1198,1349,169
44,2441,-6392,-6457,232,-729,-55
45,-2154,-1284,-613,-179,-1119,-1577
46,3639,1785,7221,-249,-802,1253
47,3332,4867,3219,-1636,1998,1978
48,-5287,-419,-1047,-1222,-1452,-1016
49,1305,-2176,7391,-662,35,1968
50,-7600,6462,-168,776,-1669,1446
51,-1537,2244,-7807,99,241,1318
52,-5982,-5889,-4096,-1506,1803,286
53,-427,5456,1257,1864,1031,1066
54,6827,617,3015,-486,890,-256
55,4369,851,-1612,-953,1275,1822
56,4151,2143,-4595,-474,483,354
57,-3955,2119,2698,-596,-138,1708
58,-1869,1203,3068,339,662,-504
59,4325,4273,-2902,1220,-490,895
60,-4638,-6381,-7716,349,-1607,-102
61,1270,671,-4772,1289,-1614,-1772
62,-7031,-3369,5382,780,554,643
63,2478,3396,-3052,194,-569,-461
64,-2335,5886,375,-1240,812,942
65,1685,-2116,-4255,-45,1595,1059
66,6161,1464,24,292,-152,706
67,6944,-5785,-6735,1506,-1766,940
68,1218,-7828,-4109,1683,1871,206
69,-3820,-4308,-3207,-107,-1310,1616
70,-284,3693,-2063,-340,-1905,1672
71,-4090,983,-4355,879,-1770,-822
72,-4235,-2388,1400,1925,-1293,-773
73,-7460,-7348,3954,-503,-1984,1074
74,4326,-5172,6024,-1432,717,-1519
75,-3872,-1490,-4435,715,-1848,1231
76,-1892,720,-2381,561,-162,299
77,-881,-3424,1265,-1075,-1228,1959
78,5313,6344,4711,241,-165,-1793
79,5008,4112,-847,1612,-597,-997
80,-5863,6424,1785,-1791,-293,-1419
81,-1153,7775,-3031,1169,-1404,-202
82,2239,5072,7634,1887,-690,1211
83,-526,2116,6592,138,-1347,-1998
84,-4140,-3642,-4642,337,-1571,1947
85,-1020,1983,1644,-1980,-353,-1707
86,-1346,3860,605,1770,-1069,-993
87,-7633,-3361,-5102,-831,-409,-104
88,-5074,2413,-7226,-1759,-1027,751
89,6704,6891,90,-1374,475,1770
90,-5297,6187,-4047,1133,-1208,-1675
91,-6961,-6358,1892,-58,101,1172
92,1808,7528,-4083,188,-611,-466
93,-7254,-4927,1136,-1810,1046,-262
94,5634,7614,1003,876,-1227,-440
95,4430,-953,-7601,1347,1983,469
96,5673,5216,415,-393,1719,1278
97,-5138,431,4789,-1070,-753,-1316
98,-7916,5533,3773,-1953,1293,87
99,-4007,-3085,2316,-1120,1411,-9
100,-4176,-6864,7555,1694,1018,1712
101,6583,-6705,2411,1108,-1370,286
102,1536,6006,6214,-1808,-348,-925
103,72,-7240,-2013,1649,84,-411
104,6298,-3390,-7280,-294,-349,666
105,648,-7431,4252,1722,386,-903
106,5084,326,1673,-1883,-1378,1739
107,-1268,-6628,-5921,291,-884,87
108,6539,-6689,6413,-1465,-1362,-1686
109,-1396,6194,498,1039,-1216,-518
110,-4371,5265,-4218,-1275,578,802
111,63,-4079,4930,-1222,-953,-967
112,-6741,-177,-4170,635,-1759,-1241
113,-2329,-6017,-1524,389,1683,-810
114,7327,3344,-557,859,1491,311
115,-6809,5351,-7733,-77,72,495
116,3226,5827,-4454,105,1923,1191
117,-3127,5355,2607,-1994,753,-323
118,-1358,6371,-7453,533,-920,-735
119,-7534,-7952,-4492,-1181,-839,361
120,-4398,2885,7731,-999,1071,1074
121,2798,-3360,6153,-1959,-1943,-1578
122,-7814,-3946,-1410,-1957,-1909,-521
123,5696,-7456,-1908,-1338,795,52
124,1553,7637,4860,1906,-1845,-513
125,7722,-6499,173,1800,-720,-843
126,4288,1173,4452,-1368,-429,613
127,-2449,-3227,6705,-1960,-299,628
128,3788,272,5351,1607,-129,1365
129,7366,1420,-2332,400,-961,-1856
130,-5623,4326,-1124,1225,102,1674
131,1990,-4041,-5067,1023,625,109
132,-7233,-5357,2138,-774,-464,-1185
133,7519,536,-3153,968,-1568,-1276
134,5895,2785,3899,409,1421,-472
135,-2313,-1744,4981,-3,-1602,244
136,2476,1761,5528,-500,1990,-1333
137,-6009,-6029,4243,-333,1088,-1239
138,3234,3707,-3756,1069,118,1328
139,-459,74,-1491,52,-1407,841
140,-2635,-306,6915,-868,-1180,-315
141,-6999,-2009,-5906,-119,-1968,-442
142,-2885,-4111,7795,23,-477,1329
143,3281,-3955,4988,-588,433,-392
144,1587,-7779,-2752,1429,-1577,-945
145,-1374,-1757,7161,472,360,798
146,-3525,1597,3061,-1955,-861,-1253
147,-3366,-3959,-2879,-1390,-1274,1743
148,2701,-2104,3846,-723,-1361,1570
149,-6830,4181,997,1538,-1667,1837
150,723,-6960,-3953,-1459,1656,972
151,-7578,-1850,327,-1848,-195,894
152,-5936,-6203,2760,924,-618,1466
153,-6435,-5795,-6506,-513,1475,308
154,2351,5379,6544,450,-1620,944
155,-989,-6658,-5823,-672,1475,-1495
156,-5216,-4434,-233,-1216,-1168,-260
157,6145,6110,6731,356,-232,-1613
158,-4377,2639,-4561,102,1152,-554
159,-6215,2853,7209,-1194,-1323,-367
160,6987,-2258,6738,-1257,1496,1919
161,-7600,7459,7990,968,-1359,-755
162,1034,-6564,-6127,-276,-866,-1576
163,-6108,-5645,-7018,166,-612,618
164,7544,3087,-7856,-533,-1101,-1654
165,6186,-7214,2415,-9,-1291,1977
166,567,1751,1293,-104,-79,300
167,7925,-2939,-7013,-1681,-1763,394
168,3272,5231,2359,-553,-1530,-953
169,-5078,-3160,4872,1753,-1041,-247
170,5904,5752,-7166,1889,54,1164
171,-69,-5660,-6408,1031,-543,-1959
172,-3702,-7958,7460,654,-1753,1938
173,-3501,256,-630,-1920,-843,467
174,4823,-1724,-2385,1825,147,1478
175,2144,-7592,-5212,-1508,-1537,702
176,-1973,3914,5403,196,-774,661
177,1235,-3630,-3636,1330,-862,1615
178,-6448,-297,6732,-920,264,-575
179,294,3222,2570,-1118,1387,-1899
180,1586,1858,-4390,1523,-1002,666
181,6391,5179,6649,1017,-1679,1131
182,-1866,1847,-3923,1859,-1837,-676
183,-990,-1964,-2550,1050,-762,422
184,2286,-2661,4013,-1469,1992,-519
185,1590,-6683,-1193,835,-751,550
186,-5754,525,-1621,1992,1599,-311
187,2450,6758,6460,1068,1988,1194
188,2205,6835,-5542,458,-694,1486
189,-871,558,3773,-1466,-400,-1789
190,-3176,4557,-6974,-1387,1785,-180
191,-2251,3524,-1348,-1498,-1990,169
192,-1567,3881,400,1919,1998,-217
193,1788,-1707,5748,1292,951,-333
194,-4517,-3827,-5544,962,1782,-1979
195,7302,2709,-4426,97,561,971
196,4755,-1758,5533,-1364,762,427
197,-1764,3044,-7728,-783,-579,966
198,2236,6301,-4070,931,1522,1876
199,3484,7234,-7572,1953,-1727,1834
200,4124,7406,1840,1014,-1593,330
201,2735,-3854,936,-1308,1028,-102
202,-616,-1534,3407,264,1397,-818
203,-3449,1307,-4735,-1465,951,869
204,-5500,-4155,-7761,-859,-551,-846
205,5936,-284,-4902,-634,-1433,-1404
206,-1854,2480,1284,1703,553,1112
207,-7891,2026,-6706,1455,710,-612
208,-3943,-6482,4643,242,24,-1874
209,6671,6290,-5102,-357,1549,1083
210,-2346,2330,-7186,-1775,-1962,299
211,-4559,6453,-2888,-1139,-1239,1992
212,-1566,6630,-7883,-446,-1680,270
213,2229,2448,5553,896,-1603,-987
214,3967,2606,4071,-1979,-558,224
215,-6889,-7004,3742,-855,361,-1082
216,-104,4120,823,-81,921,1088
217,-4618,3744,5458,-1241,-646,-1501
218,1035,-5660,4039,1970,-1076,-773
219,-5265,3506,7850,1163,-1212,-1290
220,-1470,-7068,-67,-1807,-1282,1587
221,-276,1223,-7151,-985,1564,681
222,7258,3860,6202,272,849,-1872
223,7194,6716,2197,1885,-233,64
224,-3393,5942,521,1478,1515,744
225,-6292,-7102,-7159,-704,1739,-681
226,7621,7397,6469,-1640,-1718,443
227,684,6040,-7984,-72,1164,899
228,-1605,-262,5751,240,38,-1810
229,-6202,-2873,4528,537,156,1290
230,6789,6914,-4181,-255,330,1920
231,3809,686,3605,-975,-1182,574
232,-2826,1265,2018,1756,1448,1847
233,-4853,7026,2877,-1831,1320,323
234,5190,-2020,4049,389,1246,-1613
235,-6894,-2747,5873,234,1231,1189
236,-7152,1553,5847,681,-59,1231
237,4428,-1538,-4848,-226,775,-381
238,-5252,6999,6887,-1982,-957,-985
239,-1394,-4071,-7354,-1016,-864,-1261
240,6209,943,-6143,-19,1120,1197
241,1574,6704,2742,1485,1271,-1414
242,-6741,5604,3832,1699,951,-917
243,-1061,-4865,-1233,1962,-1068,252
244,1131,7059,-1645,1746,-1038,-400
245,2296,-3745,4901,-670,-558,-1212
246,1797,-2627,7240,-1459,1145,-1117
247,1898,922,2956,-88,-952,-629
248,6230,6012,-6336,-1099,255,818
249,694,1674,-3303,-34,281,1985
250,2664,1913,3564,1850,1179,-33
251,3308,526,-3525,1915,79,1986
252,6769,-2070,4622,1127,104,478
253,-3068,-1089,-7938,-869,1317,-618
254,4337,6211,-3228,-130,-1065,-739
255,-2313,-834,1503,1637,643,-295
256,5642,2930,2703,1220,-356,-426
257,5175,3665,-7995,-483,-1867,885
258,1760,7482,4808,-1328,1769,366
259,-5491,1138,3654,-997,943,1555
260,-1369,2404,-6629,1293,-1440,-1550
261,3730,7548,932,-715,1327,201
262,-4702,2029,-4324,-1351,-1861,-1566
263,-1982,1740,-2820,834,686,1125
264,-6067,399,-3744,-1278,-98,909
265,3360,3244,3218,3,1928,-941
266,-7626,591,-153,1799,1342,1316
267,5262,3688,1160,-1453,-315,176
268,1162,1097,-3136,-171,282,704
269,-3191,7199,-2084,412,1261,-102
270,5548,-3725,4870,1461,-1959,-198
271,4571,-2204,-3945,-359,-669,-404
272,1808,2590,-7245,-679,-1703,-694
273,-6359,6907,-3707,278,-326,1102
274,-701,-4263,1174,261,-1366,1524
275,6711,-7231,1448,-1004,1650,1273
276,2557,4152,2673,-1762,739,-274
277,-7376,3908,-5799,-1274,-1106,-1633
278,-2317,7894,-2505,-106,1163,31
279,834,-2990,6239,-1794,879,-541
280,-2390,-753,2413,-1206,-1642,-1076
281,-5075,-4281,-7718,1286,1429,464
282,6546,2239,-6187,-191,-993,-1332
283,-4099,4758,4995,-1123,1275,-1120
284,2346,4524,1944,653,959,-682
285,4063,-958,6188,803,-1644,1370
286,5848,-6841,-3304,-116,284,1138
287,6117,7489,5121,-639,-242,-389
288,-6100,955,2218,-690,-418,1938
289,3104,-2000,1510,-1253,-1995,964
290,5768,-6828,-7066,-571,1425,-1683
291,1336,-3767,2580,1187,-1710,-1056
292,-6939,-6348,-4118,-1424,300,1193
293,-4579,3237,-7663,-3,-452,-437
294,-7708,-7596,-1959,1525,333,-1454
295,6494,-5187,1996,-881,-1627,-978
296,5855,-2837,7704,263,-1739,1892
297,-4113,4784,4314,1323,901,1716
298,4955,5867,6883,-209,-949,-1272
299,3688,1162,-4981,1026,-1467,534
300,-6823,-4370,-4485,1240,1974,1391
301,-811,6972,1153,1210,-1699,-1263
302,4418,2121,1388,1453,1790,1977
303,6782,-2035,5568,-1264,-525,-1627
304,2230,2006,7240,1558,1394,1746
305,4847,-7907,704,-133,1285,1310
306,7397,709,-3356,-823,-724,-136
307,6635,6227,-3845,1,-109,-1124
308,6007,752,-7523,316,1476,-1042
309,-1522,-4064,4325,1945,1299,-960
310,-2528,-5167,-7279,1622,-891,1593
311,6288,-1131,-3578,-87,959,34
312,3146,-349,-2496,428,-900,-1817
313,-4540,-519,-2457,-227,947,-337
314,286,-480,451,-248,-1749,1565
315,-7840,2892,-1318,1419,634,-933
316,4204,-2489,-671,-557,1731,701
317,3722,-5015,2865,349,539,533
318,-5021,5273,4716,-1202,1132,-674
319,-6180,4152,7603,473,61,-1346
320,-394,-3343,7878,1915,-302,1099
321,-484,638,4047,1994,96,460
322,3616,-663,4356,1424,-652,-78
323,-4902,7881,-3362,1783,-610,-228
324,2904,-4144,-125,-1859,-1467,240
325,-346,-292,-4472,-1193,-1496,1851
326,-4371,5526,-2659,-1848,1272,-1029
327,-290,218,1919,-623,394,-298
328,7795,-1895,-1300,-564,1831,1915
329,2773,-1382,2685,395,-1499,1658
330,-5079,-166,429,1538,317,1143
331,4449,-3259,2422,-967,-1545,-669
332,4031,-5345,-1110,73,-1183,508
333,1397,4145,7811,619,977,1404
334,-7085,4678,-7880,-1798,1711,-1744
335,-410,207,-2668,-921,585,-1033
336,5416,5513,-3930,-427,1569,-681
337,-2745,-268,2800,-938,1728,-1541
338,3414,1473,-2056,-180,1464,1841
339,-5117,3078,-7596,-291,1638,1144
340,-932,-5229,7654,888,-433,691
341,-4483,2476,4480,1611,-711,-1850
342,5471,4542,-6271,-1486,1323,-1293
343,2407,1068,-3292,1804,-1691,-552
344,1797,-1661,-1051,787,1474,1394
345,-2632,-6099,2092,-565,1054,-434
346,7275,-1053,-5460,1048,839,681
347,-3147,-4622,-3259,-177,1079,1160
348,5347,-2606,-5428,-1967,-1230,1793
349,-4,-1993,1952,1273,-1106,1015
350,-7632,3747,609,951,-1619,11
351,4891,-3423,2423,-1370,-938,-683
352,6763,7011,1480,-1017,1830,-1538
353,-4412,1293,-7004,1357,258,-1226
354,-5447,-7498,7008,218,-716,393
355,318,3053,2485,1856,-76,-1234
356,-5927,-1268,-1505,-1914,-1734,1020
357,7811,-4201,3717,1705,-1349,-1444
358,3957,5489,5483,-1190,1686,906
359,3339,-2966,4973,-698,1313,1015
360,7579,-5087,-1251,-669,506,-1018
361,-46,-1847,1984,549,1522,893
362,6314,-3888,7204,-485,83,-1037
363,7223,-804,2605,1720,-771,1227
364,7547,-4764,-3676,756,-459,-1042
365,-3356,5706,-3148,-1478,302,1
366,-776,2009,-6511,-618,86,-1070
367,-7954,-3643,7886,-1204,-40,-1032
368,-6296,6382,6319,-755,99,-261
369,-1992,5647,2458,315,1680,-1348
370,3298,-2751,3193,-385,-588,-1944
371,-4917,4487,3169,-1140,-1762,1915
372,-6868,-2497,3755,-1405,1532,-455
373,4726,-5972,-6818,-1444,1367,302
374,3065,7008,-3643,1965,145,309
375,3000,-3620,-1003,837,-61,-1638
376,874,-819,7410,1554,-1410,-692
377,-2868,4320,-384,-1540,168,1796
378,2172,-1627,2679,509,212,737
379,-4395,-6271,2982,-1403,382,-73
380,-7625,-7820,7928,478,-1115,-1196
381,1806,2199,2875,1483,872,-106
382,-238,5269,4333,366,392,-1843
383,1735,209,3503,-137,-723,-296
384,-3614,143,7445,-627,-645,-440
385,-3131,-5806,5687,-150,589,91
386,-62,3728,-4314,1726,1686,1651
387,-6260,917,-169,-1335,1798,-481
388,-6257,-7138,-7240,-602,-1091,-1534
389,1379,5952,4470,-703,987,486
390,-1004,-6939,-929,1735,-325,-1919
391,2011,-4704,-2182,-300,-14,829
392,-5630,-1852,2619,-651,-1249,-973
393,-2878,1544,1873,43,-1588,100
394,156,-4336,2949,-1249,-1516,1263
395,-1341,-2762,-5670,-597,-1899,-1697
396,-3129,3150,-2359,607,1015,-946
397,6500,-1166,-6031,1102,-1359,-1912
398,4589,-2882,-3416,253,-1061,244
399,1605,1351,1700,1244,-194,665
400,-1617,4464,2096,394,392,-709
401,7167,560,-810,1171,-538,-232
402,-488,4330,-6131,1442,-1528,-164
403,-7224,1455,7158,-1645,249,205
404,1845,-6887,4065,-143,963,-781
405,-7048,5224,3144,1757,-1686,1512
406,-2635,5537,2803,-1941,604,-1648
407,-1375,-271,-1588,1535,1623,1066
408,7525,1791,-2159,232,-1453,-1278
409,2924,-2727,1522,1118,1875,1884
410,-1529,6304,3942,1135,1012,1515
411,-2504,7469,2677,-342,-718,-433
412,-6211,813,3415,201,-1805,88
413,-1049,-2865,4255,43,-690,-376
414,881,-542,1850,-1245,267,-1834
415,-3867,6820,-1066,67,-148,-230
416,6270,3227,-825,-1726,1225,-901
417,3690,-3017,3490,1574,-381,-699
418,-5075,-6772,-3263,-33,-725,1496
419,-3440,4135,-5624,-194,1008,-351
420,-3936,6130,-865,1788,259,260
421,-5824,-6081,1334,399,1456,860
422,-847,7269,1980,1629,-1239,-1985
423,-1018,1121,6094,1703,-1020,-1936
424,-2116,-4752,-1816,-698,-1867,1141
425,-2852,-4117,-7373,-1915,-202,637
426,2224,1696,-3058,-1785,-1966,-554
427,-1291,779,1860,1859,1410,-1319
428,4664,5371,-5247,-1579,427,188
429,-4550,7467,3834,-727,1479,184
430,6710,6365,-3567,-1919,-1379,514
431,5197,1708,1728,680,-54,-97
432,7302,-1917,-5590,-1763,-802,-166
433,-1646,-759,2048,281,466,1630
434,-7925,-820,637,-1063,1685,1381
435,-5748,-7590,3466,-1778,-1039,1268
436,2665,381,-5481,-1851,-258,1895
437,-240,5630,-2743,171,1734,428
438,503,2887,-1370,-391,-1638,-1284
439,4053,3724,740,1978,1207,-743
440,-7755,2311,-3145,-201,267,-830
441,-2872,2221,2450,-28,-1702,1905
442,-4835,-4058,2677,1280,-1276,-1372
443,-4681,288,-913,-157,33,859
444,-5646,-4173,-4673,-1150,1752,358
445,-4714,-3768,5694,1987,1996,-1242
446,-5197,821,-7930,-128,-24,-1621
447,-313,-2903,6240,-584,1352,200
448,-341,-6467,1631,84,-641,1002
449,4038,-1942,6983,1289,-202,-1827
450,6705,-3858,4772,1871,843,1075
451,-3096,-3774,292,1846,-535,-321
452,-3466,-4057,-1231,-847,-1386,668
453,6564,-1360,-626,1033,-1027,-954
454,-7271,-6509,-3839,-1118,-1259,1018
455,-3287,223,4493,1829,29,-1255
456,-466,-4684,418,282,-360,1840
457,6071,4196,-3629,-1646,297,-313
458,504,-5657,7420,-742,-570,-843
459,2226,-2521,-3036,-103,984,52
460,2868,4766,-892,-1416,-833,1839
461,-3212,950,6437,144,43,1874
462,-3452,100,6947,-50,754,-284
463,-2296,-4880,-2456,-1564,-1557,-1721
464,-3867,-6343,6649,1282,-790,1369
465,6423,3774,-7314,1856,-1674,-540
466,4408,-1999,4217,128,1964,764
467,-151,532,1623,-295,-1615,-414
468,-2287,2146,-1250,221,1044,224
469,-7382,5477,4605,-1625,-40,-1942
470,3322,-4185,1116,-900,-53,-1180
471,-5798,2343,7267,-1627,-1417,-1053
472,-3612,326,666,1736,-1340,-1894
473,-4676,-2023,3968,1012,1224,-1455
474,6341,-2540,-6447,505,847,-1092
475,46,-6645,-7012,-1953,-784,854
476,-4264,-6136,-2740,1442,-1164,-1521
477,3766,-1828,-6659,-923,-1784,1200
478,-6933,2147,618,1279,-451,300
479,4081,7737,4026,-918,211,1745
480,-5712,2399,3528,-1368,-1838,1455
481,4395,-7214,1999,-1205,-368,-1578
482,1189,-1091,7780,675,-1348,-1233
483,6277,5431,4430,-1272,-1241,458
484,-2474,4382,4832,1407,-1599,-1743
485,2556,-1198,7140,-1118,-1924,307
486,765,7755,-698,-1243,-682,1888
487,-5559,5743,-5224,-1660,-980,1927
488,396,2294,5237,-2000,-147,1266
489,3474,-7413,5557,1337,-829,-1787
490,6607,2525,-7748,637,1115,1555
491,-756,6364,-429,-1394,-1829,-620
492,290,5470,1732,-1827,-460,1070
493,5085,2642,2231,1181,-592,689
494,6532,-5764,1538,-966,-161,-1412
495,-1269,3427,-4681,716,-1283,-1889
496,3998,-4018,7264,253,-140,576
497,-4459,-7673,-6662,-556,350,1285
498,1165,-4742,-4288,-66,1103,-521
499,1911,32,-7499,-976,1388,1909
500,-4552,4870,7989,-1543,-789,-919
501,2400,2166,-3164,1450,-655,287
502,7226,-6890,7753,-1583,433,14
503,-5366,1253,3628,-1534,-781,1260
504,-7757,2275,-2506,681,720,869
505,-7216,2823,5216,1879,-586,1515
506,-3488,-6500,2393,-794,714,-75
507,-6971,-5206,1676,314,128,561
508,6295,-5456,99,1835,198,699
509,2904,-1730,7420,-1887,23,577
510,1201,7181,4256,-227,-7,837
511,7935,311,1796,-71,1880,-352
512,4188,6430,4008,-1475,-1588,-1615
513,4020,6208,2136,-998,513,1164
514,-4613,6557,747,1189,-1169,-704
515,-4722,-1382,-1190,-757,-1436,-593
516,3964,-3625,533,-640,1823,-1502
517,201,3175,3329,1265,-454,1141
518,7213,-3522,-3262,-915,1088,-426
519,-910,2374,-4049,-621,-1608,899
520,-2648,7066,-7164,-1951,-939,1891
521,-6251,5697,2016,-271,504,1461
522,1029,3206,-3451,552,1490,62
523,7831,3472,-3239,-1646,1369,63
524,-3402,-5217,-6273,-876,1152,515
525,-7029,2982,5102,66,-614,1017
526,-5,5541,7257,-1241,-1514,-1632
527,-7571,4828,342,-1444,-1305,-875
528,638,330,6795,-606,1641,-1921
529,1028,-7645,-4088,-572,824,-152
530,7544,-2657,-787,1362,332,-60
531,-7450,-5989,-861,1978,-855,-31
532,-3520,-7026,-1024,389,-1502,-1843
533,-1077,-7622,-312,-893,-1149,787
534,7050,-4065,-6011,-24,990,1584
535,1930,525,-300,-405,95,1557
536,3514,-6185,-5071,1907,798,423
537,-2027,-5588,7798,-1359,264,143
538,-5347,454,89,-756,1329,-1272
539,2851,-4452,-2093,1326,1948,523
540,4035,-2313,3686,-222,-1312,224
541,6658,7605,5761,639,-890,-1461
542,-1293,5748,-5189,-477,1089,-476
543,-4317,-7027,-2364,-550,318,-1540
544,977,-730,-6268,-62,-860,-158
545,-5519,-7256,-1485,-1544,-1234,1906
546,-6532,508,-315,1634,-352,413
547,-1744,-876,-1055,1062,1301,-1275
548,5370,-764,-4083,365,543,1853
549,1924,2206,3175,1150,1167,-1932
550,1874,-3254,-7223,-1433,1761,1416
551,-4073,-2742,-2441,-977,1274,-1477
552,-4958,-4036,4025,654,1158,1590
553,-7278,4413,7722,15,1385,-1585
554,-5696,3829,366,-77,-149,-1863
555,587,-378,-4728,1277,-1857,1399
556,-4784,-7896,-1633,-921,-1923,-1082
557,-854,-6947,4178,1750,-23,1172
558,-6276,-5397,-6803,651,-150,782
559,3845,4654,-776,159,-885,411
560,-4619,-2028,-675,-372,390,1387
561,-925,3359,4544,1864,1749,1484
562,-392,-4340,5165,-1254,45,1897
563,6190,1313,3203,-1314,608,-1638
564,3212,1137,-3445,-1946,1232,-345
565,7434,7725,-4196,-1542,-358,1773
566,-3130,4446,7531,-660,1721,1638
567,-2526,1492,-3298,281,-185,235
568,-2382,-7805,6903,-1446,-1816,818
569,1541,-2809,-1907,-200,-1423,-1789
570,2554,651,7125,-1659,540,1491
571,1949,-4873,-2063,960,-431,709
572,-126,4502,-6913,507,1704,-811
573,-4531,-3062,6841,1248,677,-610
574,4362,-2243,6186,44,-1479,-837
575,4108,-3053,6431,4,1981,380
576,-3395,-5864,-4427,1944,-569,1615
577,7787,6254,-3611,786,284,687
578,6836,1822,-3390,-33,-1466,-657
579,171,994,3568,-1903,-667,-1606
580,3213,-1789,1267,883,486,-1498
581,5445,-2073,2711,-420,-1073,1829
582,3763,-233,5490,1513,-277,-26
583,4673,3114,-1997,-1199,1081,1104
584,706,-2302,2734,1202,1307,-180
585,362,1556,6057,-933,-455,-1953
586,6622,5177,838,-31,1358,-1599
587,-422,5234,3144,982,455,780
588,1920,7518,-2512,-3,1301,345
589,525,-5751,6387,994,-1512,-1024
590,-1705,3008,4551,1938,-1008,-479
591,-6174,3956,5970,181,35,1758
592,-7320,7508,663,-1120,-1912,450
593,1643,-2633,6644,1960,-495,501
594,-7926,430,4034,-692,1201,-618
595,7075,-3727,-7825,1251,1747,-1566
596,-875,-3399,392,-1293,1075,-1510
597,277,-25,-1866,1568,442,1687
598,7945,-6411,2679,-664,-1821,-1706
599,-6013,837,6308,761,-1598,912
600,-890,-5023,5200,161,-688,-1973
601,310,-6266,-4021,1972,-702,477
602,-1792,7654,-1070,447,-902,-832
603,-2883,4422,-662,1993,-1664,1694
604,4074,-4793,2601,-1017,120,44
605,1781,6360,1731,1167,1912,-32
606,-3314,-74,7330,1628,-978,-672
607,6674,-2008,2922,-768,1313,927
608,7660,3912,841,-1803,-1679,-264
609,6677,6108,1566,661,-1269,-1845
610,-4754,4683,4525,-1606,-944,1066
611,-7639,-993,6978,1455,-1376,1286
612,-4732,-6869,4730,460,-1112,228
613,-6251,-7684,1467,1600,-529,1946
614,-5063,-4444,7054,613,1322,258
615,-5123,-2272,119,213,1763,1698
616,6305,5622,3444,1978,-911,-706
617,-4995,-965,6065,458,1739,-1846
618,3204,5925,2123,-670,-1385,979
619,-2139,-7605,-7875,640,-42,1529
620,6589,5560,3614,-1044,1746,132
621,2177,-7927,5766,667,-1232,-1775
622,7184,6585,-753,871,1222,876
623,2706,1122,4405,-1374,-678,1050
624,-6403,315,4016,-1127,-551,1767
625,7501,-6211,5817,-1162,883,-38
626,7673,7911,6979,471,-1619,-96
627,-5955,-2524,-3023,-78,-1923,-1074
628,1976,4105,-4553,-972,804,-175
629,2798,-6442,5258,-679,-987,191
630,-3615,7578,-5689,1416,-962,1996
631,-4448,2335,-2126,1236,-356,875
632,-923,-5774,-2548,1369,-102,858
633,-3449,-7849,-3427,82,-722,1900
634,7656,6552,-3373,-703,-864,-1016
635,-4747,-4688,2653,694,-930,227
636,-3787,4064,-1587,1012,1891,1658
637,4633,2896,2047,1933,1144,483
638,-6772,251,5727,-1219,-1164,-612
639,4079,-7957,487,1258,392,-1257
640,-2273,-2332,-2648,-181,-827,-978
641,-2119,-907,-801,1484,-1435,297
642,-5744,1439,382,-1723,551,727
643,5510,-5235,-6417,-1299,45,-732
644,-1851,-4610,-6703,1744,1445,-1435
645,2749,1795,3940,1334,-1632,-1154
646,7884,-6547,-2969,1384,980,-1712
647,53,-4539,3826,1293,-540,-1370
648,-1040,1432,-39,394,-1635,-1778
649,-3610,6382,-1564,-338,1181,-1811
650,7873,-1879,261,1122,-398,-1045
651,-4679,6327,-573,-473,813,-26
652,-1657,577,-7171,1744,1899,-474
653,-7784,6414,3670,569,1563,-1882
654,-1462,5059,1625,-1661,449,1168
655,3884,6065,550,423,-985,-898
656,5710,6749,-5309,732,-2000,956
657,-4418,4969,7534,-705,-3,-1174
658,953,3456,-4122,-738,1716,1673
659,-1093,1389,-2308,-486,-1763,681
660,6965,-2213,865,-750,641,-1403
661,2705,-6294,-5657,-1568,894,375
662,-6785,5021,4645,1283,-390,-647
663,2768,-1878,4805,722,-1594,341
664,914,-973,-5172,-1652,1109,1411
665,4520,-7303,3407,-730,1336,-599
666,1148,6247,631,955,-1480,1504
667,-2822,-1709,3444,-1562,-1752,-596
668,-3185,6959,6705,-346,122,-523
669,5116,2254,2299,154,-1727,-695
670,445,1126,-2162,-105,-302,956
671,-1377,-7792,2901,746,1321,1945
672,-7042,4604,6679,-979,1063,-1093
673,-5888,-6816,2145,889,-315,-1939
674,1854,195,3625,-1435,-846,-1145
675,-6228,3469,4320,-304,-364,-102
676,6724,-2781,1614,1206,294,48
677,-7369,1661,4361,-1512,496,-1842
678,5929,3103,-722,-1945,682,1750
679,4857,6940,6925,-552,-1760,-545
680,3695,3856,5358,1807,361,-240
681,-7253,-5179,184,975,576,717
682,-1305,4028,1098,-855,661,-1812
683,-4245,-6410,-891,-201,-714,-8
684,6289,-5897,7455,-314,1506,-1350
685,-1178,-3477,7980,456,1401,655
686,5816,-2479,-493,-1292,-1305,147
687,6670,-3333,1107,-1571,226,-25
688,-4461,-4529,3560,1766,-1264,1535
689,-4603,-692,7555,389,-1201,1424
690,-1343,-1408,-438,140,28,-1508
691,7438,5811,-1304,35,1427,356
692,-7029,-6161,-2324,1426,1192,-1047
693,-2,-277,3178,1221,-880,368
694,-4889,6570,-735,-1878,1888,-647
695,-4351,-5922,3394,478,1639,-785
696,6412,4939,3090,1073,-152,-98
697,3533,-460,7078,-1826,140,1658
698,-241,5580,-6647,1851,-241,1172
699,3957,-650,-3090,-974,-1037,1374
700,-7053,3440,7856,-696,114,-40
701,-1022,-3322,962,-1735,-1497,-691
702,5934,-1870,4137,166,-704,266
703,2426,-1096,2475,423,-1414,-1801
704,-3509,-5711,534,3,295,541
705,3096,-6354,4918,1053,-959,201
706,4993,5263,-497,-898,1580,1753
707,412,-6244,6257,-1672,-1958,-274
708,7294,2586,-2874,62,459,165
709,5638,4806,-6256,-1786,-1314,468
710,-7998,-6262,-7705,-1658,1874,-1023
711,-4435,-6267,5373,1132,992,1904
712,-3356,-885,-7758,-78,-1669,363
713,7634,2954,-7770,1862,263,711
714,-3321,-4070,1722,961,719,1778
715,1822,706,-1203,-6,529,-1414
716,-2908,2541,3533,1797,1797,-49
717,5628,-7111,4230,760,-1514,859
718,4665,-3283,-7235,1878,-1621,-1328
719,-5077,7423,2226,-1655,1956,565
720,3037,-2798,-7434,654,-1856,-484
721,5461,-7252,4383,605,1935,-1271
722,6877,-4645,2813,1529,1533,-1728
723,4965,-7185,1582,-48,-1849,24
724,434,7839,-4876,1157,-1231,-567
725,-7097,2460,1047,-1172,584,-418
726,3661,-3066,-3131,1407,-1392,338
727,-865,4484,-2506,310,760,1244
728,-4797,3067,-707,1161,433,-842
729,-51,2728,5858,841,-1542,1755
730,3917,-4318,3202,473,-644,-1884
731,-5814,2289,6274,1497,1798,862
732,6519,-4560,121,903,-177,-1329
733,-4672,-6192,-2762,274,455,-142
734,-3990,-2970,-1843,1528,-1486,-42
735,6851,-6335,7974,732,409,1604
736,1599,-4927,-3852,1474,-431,188
737,6254,-7570,-7205,450,-1430,959
738,-973,-6321,6752,-1267,933,-1546
739,2662,7288,5636,600,416,-1767
740,2839,-2769,521,127,1721,-734
741,6804,-7249,927,1573,-206,-1327
742,-1498,-4574,3098,-1754,96,477
743,-6841,5649,-5854,-857,1195,-788
744,-5459,-457,4496,-284,-1791,-1532
745,3756,-4915,5041,-878,-41,1943
746,7738,-4702,7289,-1902,1899,-1787
747,7959,-7506,1695,-1239,1976,-1818
748,-7260,-7030,4495,520,-1176,-756
749,-7489,4910,7269,-484,1180,-1001
750,-4228,2379,-5092,901,1674,-865
751,-631,4123,1698,-198,1184,1606
752,-6562,896,7911,987,-333,1008
753,-1218,3179,5953,-1879,535,678
754,-2051,5581,3053,1896,-66,1789
755,3145,689,5650,1294,1412,-368
756,-375,-3241,5841,649,-1453,1794
757,2193,-6734,3418,307,1182,1371
758,-7995,-89,-2460,-712,1759,-287
759,1285,1586,2640,732,932,453
760,187,-3723,2491,-1391,-1892,895
761,-5620,-2450,-3979,-86,-1857,597
762,7854,4155,-4798,-361,-792,1986
763,4420,4547,-2027,-1823,366,-1821
764,5351,4921,5873,-991,116,-1741
765,1631,-7692,-1621,1380,-1666,713
766,-3419,6289,2136,-1481,-1927,195
767,-7274,-5968,5809,1830,-182,639
768,7102,-2146,1140,587,1082,-1630
769,2628,3085,5612,-844,1748,-803
770,-737,1994,3540,1613,-594,152
771,3970,-4057,-7340,1524,-434,862
772,348,-5705,-4787,1389,923,-1374
773,-4489,2552,3314,1131,853,1004
774,-496,-5262,1182,-1807,1361,-1836
775,3639,1727,2679,201,94,-1177
776,-7830,-629,3720,-428,117,-360
777,-1523,-3866,-205,-695,-439,781
778,4137,3293,6850,211,-1498,651
779,-6520,4066,3542,-1315,-1202,1200
780,-2802,-7509,-3829,994,-996,116
781,4348,-2054,87,428,-740,-907
782,-2374,3862,-3939,-480,-1309,-929
783,5582,-724,5461,698,-1014,122
784,-5914,-2345,-4253,-1677,1610,575
785,-7340,-2730,-4,-71,443,1082
786,-5806,1997,5117,-1080,-943,-596
787,-2084,-46,658,-299,-204,-1065
788,2440,-2225,-5767,666,-1370,375
789,640,-2463,-7343,1775,-1354,-495
790,2202,-6078,1293,1552,283,-1077
791,3163,5829,341,-222,166,-373
792,7837,320,-5779,1866,899,-1415
793,7820,3529,-4341,-1240,1018,-1732
794,-6023,-1183,6892,1608,28,-53
795,-3840,2580,4994,1679,1603,29
796,-1131,-6436,-379,-325,478,-1798
797,3248,-6705,293,-665,-151,-979
798,4774,4959,620,971,-808,-696
799,5212,-7629,-4662,-1741,891,-1866
800,-5711,-7225,-2019,-756,1834,1290
801,-6194,501,6942,1373,-1391,449
802,3545,5265,-6096,-608,-1800,1838
803,-2553,3597,5124,1964,-233,-44
804,4846,6804,-7377,1572,1906,647
805,-4856,-1745,7149,-1966,-1949,-1432
806,7742,3893,-6618,487,613,1614
807,-3244,-2671,1089,1070,852,108
808,-2303,2752,-6689,-719,-1079,-830
809,3239,6264,2327,-1128,438,-689
810,1622,-1636,6713,-1948,-247,-1122
811,471,7952,3347,-1948,642,-948
812,-7049,-6647,4779,-895,-1567,1966
813,5995,6229,7269,-728,308,-1135
814,-5381,1318,-6797,591,1216,-1537
815,7198,3705,-2743,1478,1514,1657
816,5773,3650,261,232,-1889,-1150
817,-7701,1210,3059,1968,835,1936
818,5835,-1464,6817,722,-130,43
819,-6898,6421,-931,-1793,-395,1174
820,-6521,553,-998,-816,593,360
821,-2015,-2471,6015,1169,616,1038
822,6753,-6064,-1118,1345,-1884,-1346
823,-6302,-6489,7611,1133,1388,-64
824,2261,7792,-2343,323,-1612,-61
825,-5489,-2527,5419,94,1462,-997
826,-2956,1584,6999,-640,304,548
827,-7722,-4531,-108,-278,-1553,-1196
828,-5555,7221,-3597,379,535,-645
829,-5178,594,5570,-1070,1728,476
830,-2332,7060,-6582,-758,-1217,749
831,-2487,-4654,-4204,-1063,-1076,1408
832,-3559,-6968,-4432,934,770,-1317
833,4761,-1550,739,1766,1819,1439
834,7576,-1361,-3361,-539,-1895,-1164
835,-6829,-5308,5989,1841,1614,-459
836,6810,-1120,-956,-958,-710,-667
837,-1047,6284,6658,392,-1616,1898
838,-7426,-957,4416,-1312,-1846,279
839,-6937,-4578,3414,-893,1435,1686
840,-4541,-7258,-7782,119,512,-493
841,-6262,-5796,3862,-1352,-790,1086
842,-7700,-7626,3361,-1659,-688,-503
843,-3608,4696,-5556,1079,-914,-90
844,6447,6518,4261,1992,1405,1806
845,-4148,-6772,-3420,263,1938,462
846,5640,1212,5816,1604,-210,1333
847,4801,-5474,-951,1600,-1763,760
848,-237,7363,-2682,-651,-40,-469
849,-1932,2593,7580,841,-1237,-186
850,1359,1049,5562,-1106,695,150
851,-4684,-33,6984,-659,766,1038
852,5235,-6347,205,1807,-1708,-418
853,-790,-5515,2264,-196,-288,-567
854,4767,4771,735,-1424,1937,723
855,1955,-4218,4600,109,171,-1687
856,-7565,6412,-5317,160,-417,924
857,6633,-3493,1435,1964,-376,624
858,-4025,1704,5598,326,-1685,-1421
859,6116,4879,-5541,1450,-453,-595
860,-1309,2207,-321,533,1466,-1800
861,6370,3947,-6737,1825,-249,1792
862,-133,-7478,-5991,-1774,-264,-1386
863,-3027,-7771,4482,429,1058,-1183
864,-3564,1682,2137,-1514,647,-1481
865,-6650,-4929,4842,1856,1799,1273
866,7021,-1882,-1703,1117,485,456
867,120,744,-4957,-1220,-1937,-1535
868,2543,-4271,1693,549,-131,-1170
869,122,327,-910,1071,-1956,519
870,-6561,1786,2759,-1811,1377,780
871,-2500,6356,6600,-807,-1312,-1682
872,-4360,-5393,5984,1499,706,326
873,7816,-1789,837,650,1766,-1569
874,-6177,-3278,-2947,-1394,900,-42
875,-771,-1311,-4250,-1226,-1140,-1532
876,-4755,-1446,-1746,-1221,340,89
877,-5393,7561,-2920,-1751,-1742,-1329
878,-1006,-941,-3238,-375,205,580
879,5629,-4839,-2243,-793,939,-411
880,4624,7614,982,-550,-39,-1720
881,-2984,7669,-707,-902,-1904,-229
882,-4341,-3160,3980,-568,-275,78
883,-4146,82,7431,-1232,-41,-621
884,5879,-2257,2652,1579,1844,168
885,7717,3506,4004,-935,1538,1220
886,-4660,-1876,-7831,625,359,1054
887,-232,-449,-5813,1568,1457,-1034
888,-7487,5601,-959,674,-1156,1987
889,-1215,4675,-1927,128,-1132,-262
890,1382,7198,-7288,1993,-1853,-1193
891,-199,-5227,-7905,-300,-315,-1780
892,6820,-4765,4527,1275,-1131,1705
893,2011,-257,3504,191,-267,1921
894,-4437,500,5745,-495,1712,472
895,2511,-6500,-3514,185,1345,-335
896,3367,-7992,31,143,-980,-1967
897,-5989,-6349,3095,-1858,-221,-548
898,-5896,1266,-5944,1143,-1688,-1984
899,-3649,-2233,1829,-1753,-1812,-416
900,2829,402,2083,396,-122,841
901,-7643,-7509,-3503,-463,253,1666
902,-273,147,324,-986,-1018,464
903,3140,3871,-1915,-655,73,627
904,5537,-7414,-4783,-1270,1372,1503
905,3778,422,696,-337,1710,-575
906,3079,4241,-6794,-981,501,-1280
907,-402,7569,-838,54,390,80
908,7681,7791,4070,927,-1346,-357
909,-3619,-604,-1223,496,565,-1070
910,-853,619,2709,-885,698,-433
911,6768,-6535,-6379,1690,807,97
912,-6998,-2081,-3910,1062,1768,1849
913,-7993,-2116,-7999,-571,-646,-798
914,-3503,-4909,-1173,1168,-1039,1596
915,-5831,-5316,2983,1347,129,1015
916,-3709,-6755,-6798,-1240,1967,351
917,-980,1788,-6505,-966,-1607,-126
918,-1401,-7107,7713,-1927,-749,-1616
919,4620,-4748,-5284,967,939,781
920,6409,4251,5516,1994,998,-1828
921,-5582,537,7592,-462,-1226,796
922,-579,-7693,1429,134,1582,1742
923,1900,7603,2147,-1689,284,957
924,-2456,6414,-338,-1936,-194,-1191
925,-7531,-5853,2898,-2000,-1931,1872
926,2459,-6117,249,-191,77,1148
927,-5659,-1596,-3277,-1272,1874,-1453
928,1670,5543,-4175,1259,524,-592
929,2178,7659,5821,1623,-570,1136
930,-5875,-6179,1136,408,1817,140
931,6291,5400,5467,-1692,-696,-1025
932,4885,4321,7569,1679,1982,1239
933,-5839,-347,2692,-1529,-401,1164
934,7231,3906,-909,1807,-788,1205
935,-6153,-5646,-7356,-37,1580,1751
936,3182,-1659,-3559,-984,-1271,1014
937,-1165,-7191,-6113,1807,-1715,1025
938,256,182,-6911,1578,-294,-1510
939,696,-544,-2224,-823,1020,-573
940,2791,-874,-2259,-1139,-531,-114
941,-6585,5025,-3143,-1208,658,-1984
942,1098,-852,710,1613,-525,460
943,5944,-4037,3466,1976,98,-1011
944,6897,-1769,-5149,861,1918,1457
945,-3275,3221,-2482,1902,908,1569
946,6071,6402,-7537,-81,-751,538
947,5092,-6587,631,1088,-75,1662
948,-6388,4150,7296,1428,-956,-1170
949,3549,2359,-496,1196,178,-1500
950,7759,3372,4863,-1808,1798,-520
951,744,7820,-3273,-1438,268,-1176
952,2426,-1918,6509,1850,396,374
953,-4719,-721,6013,-846,978,1783
954,7527,-809,6265,-1205,223,-933
955,-220,2935,4738,543,884,-174
956,-7245,-698,7748,-1848,990,-1541
957,6650,7332,582,-1680,-1835,1415
958,3279,-5977,4550,1117,1892,1344
959,-7774,1247,4444,-22,-1013,1442
960,-545,-2801,3946,1469,-258,1342
961,-1157,-2284,-612,1864,489,-1475
962,-4618,-1360,-5012,1709,-1443,1465
963,5507,3930,1333,-972,316,372
964,5679,6306,2979,1501,-592,594
965,1995,-6582,-1412,707,-1621,-114
966,-6771,1193,7389,1354,-1521,807
967,-1333,-1408,-3023,-1753,-700,-959
968,-1271,-2284,2128,958,188,733
969,-2435,-5183,1080,-1069,-900,-188
970,4781,-7846,-5761,-397,1281,-1322
971,1590,-5568,5203,1147,-1311,-268
972,4436,-2709,-7234,-1905,746,990
973,-1172,-1823,5164,-1868,1499,-1040
974,7066,-7243,-2566,-348,-1622,-252
975,175,7940,-7096,-870,341,213
976,174,-3707,-4295,-1863,107,1136
977,5033,-5327,-6690,271,-1388,-600
978,7256,-5232,-2063,340,-1744,1615
979,5672,4585,-4242,-918,-618,-1658
980,5395,5224,-725,1744,1195,-1722
981,-3496,-70,-3494,1419,442,-734
982,492,-4556,-6546,1089,361,-1773
983,-6178,-1315,-5562,1821,-1425,-486
984,-2055,5216,-3252,-1517,-634,121
985,1738,-1349,3356,743,874,-1265
986,1721,-6224,1418,1963,227,1015
987,-6147,-7971,1542,-1627,-1653,279
988,-3710,-3780,-3963,1331,341,-977
989,2079,-3873,-6547,-848,-1916,-624
990,-2449,3557,866,67,-1060,137
991,-5320,-1410,-5338,-1827,1385,-141
992,-2475,4882,-2296,1547,-1156,-429
993,4465,25,7362,646,528,-90
994,-5949,-4203,2288,365,16,1306
995,1576,-5646,759,421,-259,1957
996,-1854,7624,-1130,1132,-1069,-972
997,-7275,-3333,-4352,1782,1491,-882
998,5015,-4317,-816,-1910,945,-1849
999,-2848,-1952,3683,-124,726,-1196
1000,-744,5784,737,-1498,1636,-228
1001,7239,-3345,-6114,-1649,-267,1038
1002,6289,-4297,2523,-939,-1690,-1379
1003,4928,2515,7263,-1156,1659,-558
1004,-7820,-1295,-920,-1614,-132,-115
1005,2794,6664,2368,461,431,-513
1006,-3382,4106,6060,-1257,-1564,-1725
1007,-1413,-6868,-6987,1692,519,1279
1008,1956,3938,-5292,-340,1629,1800
1009,4407,-3763,4498,-1624,1647,-1114
1010,-605,-3659,5686,-1877,1910,1881
1011,187,-3283,6079,1327,-1227,-734
1012,-740,2355,-202,-17,-231,685
1013,6751,7826,6974,-1074,-890,1955
1014,2609,6006,-4846,-1174,1307,1025
1015,-5069,-5156,998,-209,-737,-246
1016,-4196,7977,3101,2,1208,1853
1017,1209,-6858,2519,-830,-1583,245
1018,5069,-6735,7796,-496,746,738
1019,-7245,-788,2510,996,684,-240
1020,3322,-6796,-6368,1413,-1053,1619
1021,-2550,-7823,-5819,1843,-1564,145
1022,592,3401,-7583,461,-251,1047
1023,5886,-4178,2700,178,-698,641
1024,-6002,4548,-3056,659,1969,-1214
1025,-1971,-1287,2089,1971,1754,-1621
1026,-4270,-7858,-1255,1476,-759,-1647
1027,-3715,1891,-5317,1120,-1388,668
1028,4907,5333,4280,-1129,1788,1368
1029,-2959,1982,-6591,1191,1743,-1597
1030,-3068,-660,-6996,-1021,597,246
1031,3753,2957,-4667,1604,91,1112
1032,1960,4280,434,228,357,-977
1033,7624,-2461,1295,491,401,-529
1034,2937,-7772,2118,1839,417,-198
1035,-678,4085,-3796,-3,948,1047
1036,-4087,5457,1316,95,-1137,1555
1037,-27,6309,5066,326,1318,-1044
1038,4238,-3822,4372,1593,413,-1805
1039,-1427,-2934,-7457,-808,129,-1853
1040,7100,7606,-4703,-1085,958,188
1041,-3894,-1237,-6354,-1779,-1088,-102
1042,7897,6814,-5987,-1316,1687,-1125
1043,3822,-7810,-1042,230,-548,383
1044,-5732,4242,-3837,207,1845,701
1045,6579,303,-5983,840,1469,1814
1046,3096,1626,2398,646,-706,-1877
1047,6956,-2193,413,439,-1105,1851
1048,-7582,-3374,1458,-1997,1188,-1557
1049,-7847,-3287,1359,-269,-1513,-1971
1050,-1295,3184,3897,467,-831,-1057
1051,1207,-1826,4776,-1628,-981,-1039
1052,938,7186,1823,921,1982,1845
1053,2314,7673,-5058,-904,786,-1181
1054,-592,-395,2112,1283,706,1661
1055,-6655,407,-7598,1065,740,1682
1056,3184,248,7987,1592,1350,-887
1057,-2414,-3347,-6659,696,-379,1535
1058,6696,1572,1141,-924,-523,194
1059,245,-7703,7696,-53,-418,-1124
1060,6559,-2251,5945,398,-1989,1186
1061,4525,-1574,-1232,-1910,521,426
1062,-1256,7305,3895,1006,-529,-1156
1063,-6871,-1413,7804,821,494,602
1064,-6300,-7615,2730,-723,-1636,-1908
1065,-3627,-1029,5215,-783,-1896,181
1066,3846,-7912,-3820,-854,-519,1010
1067,-1951,-6275,-1346,743,975,-667
1068,-150,4712,6487,400,1190,321
1069,-3072,-3330,1075,127,536,-767
1070,-7910,-4576,-6746,-1835,1541,-1483
1071,973,3067,2003,-1132,-1927,-1176
1072,-2384,-544,7792,-391,-1913,685
1073,4862,-3129,-6941,1467,1350,1421
1074,-5850,6763,7430,27,-1537,428
1075,2779,-2225,-2702,-1207,928,199
1076,4964,7631,-4298,-1946,-973,1306
1077,-3425,-3328,-6856,-1658,-1753,-403
1078,-3599,-7783,4812,604,-82,1429
1079,-1401,-1344,1547,-1147,857,-25
1080,-1811,-2883,-7172,1436,505,1044
1081,-6352,-6555,-3123,498,1298,89
1082,-395,-854,7011,1953,303,1648
1083,-3696,-6203,-5772,1032,-367,1620
1084,-7765,-1110,2468,271,-1753,-378
1085,7512,-5509,-7184,538,-1985,1857
1086,4454,-3539,-3967,-196,95,-1965
1087,2739,-6189,-5824,-315,719,679
1088,3348,-4792,-1497,-1471,144,-1681
1089,1275,7655,-4536,1172,1899,-812
1090,-3234,2574,-5423,213,-26,-1807
1091,7428,-5705,2468,-86,217,-1624
1092,2137,-3895,-4276,-564,-802,-692
1093,1917,-903,-5551,-1570,1112,394
1094,1806,-1481,456,-709,135,-957
1095,6040,6288,328,395,1528,623
1096,4403,6372,3275,493,-326,-1501
1097,824,4323,-3387,213,656,-1291
1098,3135,-6056,-2806,130,868,-1448
1099,7423,-6937,-1470,1189,-217,-891
1100,-7946,-1342,3188,63,735,-519
1101,-3034,5691,7730,-715,-1436,1054
1102,3857,-5181,1544,-1929,1150,-314
1103,3700,-7500,-6994,1697,1462,927
1104,6287,5439,-3593,-1745,-738,1251
1105,1429,4056,-4391,-211,-898,-1890
1106,-4844,5321,-4598,39,-1903,569
1107,931,5518,-6368,-283,-378,-974
1108,2080,3453,-4962,1372,603,904
1109,-3230,-1637,-3308,1397,715,1197
1110,2576,2841,498,1749,-1464,-1923
1111,4925,-1869,-3102,1815,1939,-83
1112,-7385,3077,-2745,-1743,1980,1240
1113,5777,-6993,3209,975,-1829,-1867
1114,4249,300,7285,-558,-630,-1209
1115,-4548,-1182,2594,1064,1239,-894
1116,-285,-6015,3161,1261,-1302,1483
1117,-859,3064,1323,-190,-1798,-414
1118,4727,1951,-4145,-580,-1979,667
1119,-1630,-6973,4534,1365,-814,-138
1120,3099,-5982,5928,-1245,-1179,306
1121,5391,-2323,-7943,1009,871,946
1122,3804,-5853,4244,767,-1767,-1989
1123,-1183,580,-3352,976,962,25
1124,90,457,6018,-1960,421,1610
1125,-3241,7494,366,1287,-316,-66
1126,1540,-6552,7738,-1214,1535,475
1127,7868,169,-7702,-1157,-880,319
1128,-6687,3320,4949,1758,1745,483
1129,6856,2612,-5447,-1570,1155,638
1130,-5468,4205,5151,-841,-408,683
1131,1063,1797,1795,692,506,-29
1132,4445,-7204,6239,1283,162,-877
1133,7251,4057,-2617,-1194,1392,1954
1134,-5738,2016,-5490,810,1835,1728
1135,2360,979,-2159,-324,-924,-733
1136,-7574,-5076,6604,-768,-782,-1190
1137,1808,-525,-1358,-1541,1899,-774
1138,2095,-509,3076,-27,1171,510
1139,-523,-7349,4922,-965,1457,126
1140,7152,-4823,-1656,-1876,1687,-1440
1141,5256,-961,-6253,1287,1487,-337
1142,4266,1185,-1099,-636,-1467,404
1143,3198,2029,-1520,-42,1888,-35
1144,755,-7655,4997,-1044,-432,-1912
1145,4376,2678,-5695,-757,543,385
1146,3030,-7359,2677,1247,-1141,1478
1147,5088,-5295,530,1558,28,788
1148,-5939,7452,-6002,-239,716,315
1149,382,4089,-3793,-241,-802,1775
1150,-4373,-40,7782,280,-380,1600
1151,-1328,6456,4659,-1557,-1034,50
1152,-7359,-858,-6777,1732,200,1800
1153,2923,1886,5935,-234,-1840,-1880
1154,-3142,5152,792,-1042,1626,-1249
1155,-1773,4288,-1781,-1808,-1312,768
1156,-4298,7885,5747,472,-1092,-661
1157,3829,-7734,-6038,465,-56,-3
1158,231,2254,-4466,-1007,896,1630
1159,-5369,5020,6429,-509,795,1280
1160,-473,-3638,7065,-1806,692,1653
1161,1263,-951,-7384,1568,-1573,-856
1162,3908,-176,-5404,1481,-1594,1347
1163,-6093,-4919,1997,-1119,-374,-1771
1164,-3309,-4836,1215,848,-807,1597
1165,5319,3079,-6654,1300,246,262
1166,-2577,6537,-7578,835,135,-344
1167,6241,2975,-7679,1743,-994,-1473
1168,6391,-6422,5234,-1873,1372,890
1169,2312,-5794,3084,-923,-981,-152
1170,2419,2704,6184,-482,-1042,783
1171,1278,4593,-3379,-1975,36,-1037
1172,3172,6513,5288,-1072,-683,23
1173,-3635,5463,-5343,1816,1899,-1078
1174,6744,-5296,3862,532,-1408,-959
1175,-6817,3575,-2739,-1467,1767,397
1176,-2284,-2227,-1339,303,38,256
1177,962,-3804,-7532,-607,866,-1336
1178,-1198,2375,828,1593,1085,-1119
1179,6426,6064,4025,1600,1298,1622
1180,-4783,1077,-548,1607,-77,586
1181,-4310,-7027,-1954,-1844,1791,-1746
1182,-5471,-408,-7344,1425,-208,-1576
1183,7496,-6858,-6949,-1897,-968,1811
1184,1100,-2996,1358,-713,-601,421
1185,-621,4627,5925,-222,340,-745
1186,4862,2765,-50,514,1275,-464
1187,-109,-5940,-2026,754,726,648
1188,1794,-3938,-5229,1573,-482,1386
1189,6753,-341,4090,792,-1537,-82
1190,1098,6069,4678,64,559,-1325
1191,-518,49,4604,-1838,-1149,1379
1192,196,48,-1527,-1882,-1031,98
1193,3958,-1572,-4544,1077,1651,528
1194,3984,545,7729,736,-1110,-9
1195,-6892,1419,125,-322,-1632,-833
1196,4519,-4288,-2077,-1518,-1978,-832
1197,821,-2618,3858,1608,781,-1946
1198,-2611,2639,-1781,-206,182,997
1199,1897,-2297,6636,-1124,-591,1969
1200,-4118,4951,6237,1181,-495,1119
1201,147,-2396,588,-1591,-1938,739
1202,229,5227,6206,522,-23,-991
1203,4409,-6801,3213,370,-1510,-1396
1204,3955,-7420,7463,-232,-55,333
1205,-4870,3046,1191,923,618,1105
1206,1601,5806,-6903,1749,1989,-160
1207,1563,-5218,5581,242,847,-371
1208,3661,-3155,-6312,-1230,-1671,823
1209,-1869,-5123,5896,-866,-1190,1849
1210,2344,-7418,4575,1698,-335,1442
1211,5990,4640,-3644,-1848,-1837,-183
1212,-1868,3692,6063,240,1176,-772
1213,3983,-1130,6923,-233,1074,-908
1214,-3764,-7804,2250,1398,-1296,426
1215,96,6656,6933,231,-324,-129
1216,6638,4146,3924,827,-589,-306
1217,-1703,-1925,-1347,-1615,-1800,-413
1218,3961,1455,2416,947,990,-1771
1219,6537,3276,7507,1253,1553,233
1220,-5358,-3756,-3226,812,1584,23
1221,3291,4618,-6290,-1354,-1643,-1316
1222,7653,2005,-89,812,-130,-1572
1223,-3855,6267,2728,1452,1281,860
1224,-5337,3203,-2560,-1809,923,-239
1225,-4140,2310,-6976,-435,680,1542
1226,618,2738,-5709,149,1973,1852
1227,7629,-5176,6296,33,1589,-1323
1228,6166,-3665,6936,1906,-558,525
1229,921,-5859,646,938,-1797,-55
1230,6500,-5529,-1561,83,-1989,1264
1231,255,2911,-6368,-644,1460,-1907
1232,-2749,-6201,-2441,-250,1822,105
1233,-993,3148,1846,1508,1791,407
1234,5866,-3939,-6838,-1329,-515,-335
1235,-4805,2197,3613,1341,1387,344
1236,2360,-6291,-1517,1582,-831,954
1237,-4244,-800,-5057,1437,-866,481
1238,-7350,-7123,-5043,-918,544,-185
1239,2276,1056,-2722,-93,956,-1995
1240,-4595,-3751,1108,1226,319,-1642
1241,-3562,-289,5509,1946,-1850,-1266
1242,3615,-1844,-124,18,-1041,-566
1243,-1649,6636,-874,1052,-1604,-1121
1244,5774,-1796,-2337,-1957,164,-1392
1245,-5236,6593,-3326,886,-1291,-832
1246,-4417,7476,333,190,1622,853
1247,7115,2905,4742,1342,1832,746
1248,-4100,-6531,-6170,-1511,1571,-1118
1249,7087,7333,3626,-1904,-602,-1781
1250,2013,-1121,7940,-1824,-259,970
1251,4907,-2295,-3958,1072,231,-37
1252,4871,5534,3856,1709,-857,-720
1253,3566,-405,3669,-1161,887,-1722
1254,-5172,5462,-1063,-1492,-1963,459
1255,-7969,5497,-711,360,1128,-521
1256,5578,683,6311,-1997,-860,-1691
1257,5373,2158,-7224,79,684,-1951
1258,-1028,6154,-3227,1260,-477,1259
1259,-5888,-5539,6928,639,-1690,-587
1260,7077,-1723,6812,-522,-1219,-1491
1261,-6668,1015,7446,-706,-403,26
1262,2474,1944,-440,1984,-1267,-372
1263,3423,-7526,262,1251,581,-191
1264,-6985,3353,3846,307,-1629,-154
1265,-3998,6217,3367,1878,1353,352
1266,-6054,2056,3000,-1692,-1150,-1946
1267,2488,973,-3556,1772,-1035,916
1268,2188,862,-4913,1987,529,-1235
1269,-6517,-4639,-2083,-383,70,1358
1270,-5502,4793,-3439,360,1430,-779
1271,7573,-6227,337,-640,1163,-1999
1272,-1722,6328,-1266,-1540,1559,-758
1273,-3362,-4428,-2239,1066,66,1218
1274,2039,7435,-4324,1678,-1522,1855
1275,-2003,3464,14,1227,-701,-1277
1276,7264,-2677,7742,-449,939,-1497
1277,1316,-3890,2703,-1798,-93,-573
1278,5499,-2018,7472,-1033,-383,-1273
1279,7703,-1518,-4089,-294,1900,166
1280,2116,5873,-7448,1561,-1097,1553
1281,-2233,3853,1532,346,666,-128
1282,5403,2946,1349,-411,-1284,867
1283,560,-4858,-3033,-1949,-1927,200
1284,3088,2857,7896,-1858,-865,476
1285,-3628,-6251,6330,723,-744,-1918
1286,-3429,-1052,6277,1431,-231,-853
1287,-5716,868,-7723,-274,1600,1468
1288,-3770,5255,1707,59,843,-1922
1289,7401,-7144,-9,925,1653,-297
1290,7972,7343,5409,-1746,324,-1844
1291,4540,1323,4384,1397,-1028,-1653
1292,-5394,-7203,-1054,-1059,1621,-472
1293,-2093,4945,-237,-1542,-892,951
1294,1589,2363,2248,698,1272,-1017
1295,-1383,-3549,-1085,-1407,-1295,953
1296,320,5675,4212,-632,-1693,487
1297,-3148,-5016,-5002,-1317,1312,-816
1298,-3533,70,6104,877,-61,-1888
1299,-3537,6501,-485,-601,870,-1416
1300,5230,3131,-1407,-541,-1956,-1783
1301,898,623,2179,201,1862,-1934
1302,-4108,2193,-799,-1018,-33,-1943
1303,6363,-4329,5899,1632,-1726,1576
1304,4594,-5118,-4745,-1260,-1587,-62
1305,7306,-3527,-7239,113,1219,709
1306,-5088,-7901,-6559,-895,1162,1715
1307,-5140,-4388,3566,-1499,-202,-878
1308,3652,-2647,7908,-894,1124,199
1309,178,6266,-5605,-176,-436,-250
1310,-4120,-615,2170,-145,1624,1642
1311,1085,-6715,-1828,465,1045,727
1312,7121,-2830,-4416,-1270,-969,1390
1313,-2877,-6138,-5239,1908,1360,1034
1314,3719,-283,-5297,-1789,-1942,-376
1315,7579,7391,-7000,662,1539,-1757
1316,6612,4359,-4376,1959,1322,520
1317,-6864,-6449,-917,-349,578,-1281
1318,2355,-7759,-2681,-1950,439,-1073
1319,39,-3313,-3164,614,-1421,1408
1320,4280,1544,2579,1689,-107,728
1321,3824,1991,1427,-1690,-722,110
1322,6379,-557,7443,-626,-20,-616
1323,-3959,-1383,763,188,-504,-590
1324,-2839,-5303,2465,-1616,1874,-702
1325,-1606,-3582,5754,-1079,273,-266
1326,-911,1656,-2966,659,1086,-1733
1327,1199,-2657,1825,629,-1780,1333
1328,-7945,7629,1445,-372,-85,1813
1329,6202,3888,7831,-838,730,1349
1330,-2553,-2980,-4437,1426,1949,66
1331,2515,-4586,2467,927,1977,1354
1332,-3979,2739,4791,1362,-1246,-1080
1333,-3043,-7967,-3251,-1697,-1057,-248
1334,-811,-2954,5396,1323,-1405,1091
1335,2198,1599,-4012,720,-804,670
1336,-1576,1297,-2273,-1712,781,106
1337,5800,-7120,-870,-1367,938,974
1338,214,-1977,-7321,-322,-534,-1322
1339,-4526,7382,6003,97,-663,345
1340,5842,4958,2563,413,818,1874
1341,544,-784,2605,1519,-344,-1989
1342,7569,-4121,5996,-1222,-1767,-92
1343,-6235,-4871,2890,712,638,-1332
1344,3914,3115,7351,199,477,-1446
1345,-4564,-3698,6047,1514,866,1657
1346,5572,6830,-1147,-236,-245,947
1347,-5757,-6001,4545,-167,-1386,-1784
1348,-1657,1901,3064,1984,239,-174
1349,-3868,3880,-3718,-1615,-1173,-1478
1350,-6224,-463,-7461,1300,685,-1417
1351,1310,-4349,381,-1074,-1025,-1899
1352,-3743,6429,-7088,-1017,27,-783
1353,-6566,-1952,-6027,946,1186,1684
1354,-7668,1778,5107,-1798,746,165
1355,-3505,593,6609,-19,1788,-1637
1356,-7634,-3825,-1732,-1556,880,-654
1357,2249,5132,6417,1339,-1721,-376
1358,-2041,4595,-1184,756,350,-1394
1359,-4884,6830,-6554,-1433,-654,-249
1360,3094,-353,5084,1677,-986,-674
1361,3984,5732,5190,-673,645,1750
1362,4695,213,2540,-105,1663,290
1363,7519,-4988,-7544,1455,1157,-1190
1364,-5441,-347,7757,1249,938,-1589
1365,-6335,5729,-5076,-466,1909,667
1366,-5523,7368,-6627,1069,-1486,783
1367,1621,4889,1610,-1510,168,75
1368,-333,1174,-2725,-932,-498,-1508
1369,-6889,80,4159,-1831,-56,1968
1370,-5543,-5335,37,-212,393,194
1371,-974,4308,-2648,1432,-128,-1024
1372,-7125,5950,4864,-1990,-658,-161
1373,-6640,-5864,-7280,586,1530,-1536
1374,4819,2504,6898,-1152,-1742,-1315
1375,6569,2615,2700,280,674,-1700
1376,1580,-3899,5509,-219,-508,-1036
1377,5415,2148,-7345,1218,-562,68
1378,-6334,-2911,-2577,440,-518,401
1379,1880,4065,-7770,-336,1448,1040
1380,1343,-1483,-6829,-835,1520,-1386
1381,7951,-37,-473,456,-1593,1965
1382,-6455,-753,-2851,685,1725,-1595
1383,-7640,-4418,-5936,-1412,519,714
1384,1630,-552,-7481,1940,-965,1675
1385,5130,-4995,-4786,195,-392,-321
1386,-7032,7915,-1702,1515,1889,-431
1387,6770,7416,7343,274,-1222,1759
1388,-5879,-2401,-1210,501,-232,568
1389,-2571,2531,3166,794,-208,219
1390,1876,4677,2639,604,-1509,1122
1391,294,-6235,-2649,-631,1603,221
1392,-2559,-1174,5886,-219,739,363
1393,-822,3544,1674,-447,88,1752
1394,7202,3398,4227,-710,1931,-299
1395,4077,-3684,7788,-704,-659,-1495
1396,-6513,7065,-2057,-1443,-1096,1060
1397,6842,-2741,4578,1183,1335,-506
1398,-4712,-4293,5337,865,285,-403
1399,5970,-6874,-525,-1473,-314,777
1400,-7403,5989,-6569,-315,-1655,-1880
1401,3596,-1115,684,-214,-1824,926
1402,-5248,6353,-6017,1639,-619,1393
1403,408,-3228,2050,1805,270,-1381
1404,-4603,-5296,-6872,1855,1038,-799
1405,3420,4032,6986,1862,-625,883
1406,2748,-217,430,-79,-653,-692
1407,-7501,-2461,977,1031,1819,-1925
1408,3593,5568,-2174,-364,1823,-259
1409,5995,-92,-4586,1778,-372,931
1410,-3359,5790,7917,7,-1314,1824
1411,-2797,3073,-4719,1629,1717,889
1412,2031,-176,-2388,-1212,-921,-1606
1413,-5565,7553,-4006,-14,-1920,799
1414,-5979,-7419,3434,1985,-1306,-274
1415,6515,2960,-5749,-1121,-865,91
1416,-6898,-1213,-5892,116,1143,-1903
1417,-1067,-746,-724,-1443,142,-1471
1418,943,1392,6806,1615,-660,1976
1419,-595,819,-6297,-1786,-287,-1116
1420,5444,-3861,-2931,1591,-1525,103
1421,-1425,3510,-1163,-246,-1158,-137
1422,-4924,-7758,-6144,81,148,1659
1423,1473,-6403,-2425,-177,1030,-934
1424,-399,-3130,-1966,-1537,-1178,1647
1425,846,7114,7663,-1737,1454,-1188
1426,-1413,-7784,-5896,1932,-577,-813
1427,-1492,3135,6259,1069,-1189,1582
1428,-424,-431,-1302,-919,276,374
1429,-7595,-3280,7980,-757,-1327,205
1430,-4480,3098,-1201,1439,639,588
1431,-3824,5405,-4982,-1501,390,1086
1432,-6932,-1643,26,1506,-1782,-785
1433,-5703,271,-742,1157,1562,-1057
1434,7683,-7233,-5133,-547,211,-1238
1435,6685,2168,-2074,596,-1314,-919
1436,-2146,-7768,1455,1792,-1622,-1111
1437,-1084,4866,5557,-93,-933,-1224
1438,-4093,1251,-1048,1701,-1875,-913
1439,-480,7021,-1397,-1722,-992,-542
1440,-6991,5478,-7117,-1850,-437,1761
1441,4084,1939,-4047,-1741,1543,-672
1442,-2620,6107,5614,1379,-692,565
1443,-2257,2027,-4933,-452,154,685
1444,-6709,3260,1004,-155,-756,1733
1445,1629,-1750,1358,12,480,143
1446,-3712,-7825,-2881,-881,-1151,1557
1447,3291,-5641,-1026,1276,-896,-1464
1448,-3392,3769,-5831,-1755,802,-1309
1449,-3101,-2983,179,-1765,-1597,1115
1450,2216,-1888,2203,533,372,983
1451,153,6799,5059,1859,1279,1773
1452,2771,944,-3540,-923,1196,-1936
1453,-2000,-3719,3510,1924,618,1426
1454,7360,5485,3028,827,-1862,1628
1455,-3598,6721,-6575,425,1411,886
1456,-5877,-6832,-6296,92,250,-892
1457,-3838,-2465,5920,1784,-1186,1159
1458,828,1696,5150,1794,1642,-89
1459,5132,4131,-5032,1881,-1693,100
1460,-1432,-5267,-7086,833,-1162,1422
1461,-1041,-539,5119,1259,211,1715
1462,895,-5703,5624,-286,1504,-849
1463,-346,-3034,6851,-1084,1560,219
1464,7155,-4778,5079,-1303,-12,-76
1465,6769,4854,-6467,-1590,1471,-876
1466,-4172,4820,4190,-981,76,1780
1467,-3456,2579,4918,1615,-65,-1462
1468,4849,4302,948,-1882,-1113,289
1469,-6068,4288,5930,1988,289,-1035
1470,-4491,-3095,6022,-947,-254,-529
1471,3254,-3904,-1443,256,-1258,-805
1472,-2392,2729,-5292,-1294,-921,916
1473,3668,460,-2577,1966,-734,-1225
1474,1623,-6488,-1561,764,997,-1674
1475,6874,4080,-1451,-1866,1049,862
1476,4718,1654,5244,-614,1500,-1952
1477,7552,-1222,-3795,888,117,1670
1478,4555,5232,-7860,1834,-1364,-614
1479,3499,-191,-4593,1637,-1625,-1087
1480,-7569,7930,4079,641,-1622,-456
1481,-3431,-1744,-3469,1553,-1306,-1237
1482,2065,-1428,-7641,1210,1601,268
1483,-3968,602,-7101,-505,-1287,274
1484,7606,-5592,-2121,-459,1,1142
1485,-7620,-7779,-1307,877,-15,1665
1486,3590,1868,5482,466,-11,-898
1487,-4813,-657,-962,-146,-529,-1676
1488,-848,6096,5975,161,-890,-1987
1489,1133,-3144,-3907,-1924,-394,1866
1490,2863,-1284,-373,1935,-144,805
1491,4843,888,-346,-680,-1585,-82
1492,-3663,5621,7930,-461,-45,1018
1493,6281,-3017,-1347,1354,504,1749
1494,1858,57,4968,-628,137,1059
1495,3965,-1461,296,-898,-1153,213
1496,-510,6944,3287,-513,58,-790
1497,6097,-5105,-1414,-257,-1642,1278
1498,740,-5440,5444,-1969,378,1436
1499,3091,-1790,5601,-229,-1543,-1062
1500,1846,-1942,5152,-1390,121,-835
1501,7107,-438,-3898,58,173,1068
1502,5911,-2893,-5307,1655,-980,1557
1503,-5815,7597,-449,-1296,1076,1716
1504,-3009,207,3362,-187,1541,-499
1505,-4259,3551,-5283,1379,584,-1355
1506,-4039,4978,98,56,644,-1182
1507,-6892,-4469,3227,46,-1279,1839
1508,2222,3847,4958,-331,-1598,-1433
1509,-1596,-85,-3210,956,-1334,408
1510,-4052,-2769,4604,1879,788,1090
1511,3330,314,4903,1659,24,617
1512,6395,-6983,-1586,1883,-1908,1291
1513,441,80,1770,-116,-672,865
1514,-522,6663,-1550,874,-286,-981
1515,-3710,3263,-4070,1779,-169,766
1516,-7979,-3208,-3884,1093,-1507,-1604
1517,2336,6451,218,-1897,-276,-1071
1518,1850,-5581,566,-1479,1548,1716
1519,4305,4192,-4364,-754,427,-203
1520,7551,5251,5528,-517,-421,1518
1521,5004,2138,-7936,-1657,-987,-1312
1522,6814,7009,2565,1539,388,424
1523,-2002,-7841,4237,-1694,32,-1186
1524,-6374,4404,-965,-1959,934,-1817
1525,-6661,-1526,-1277,-404,803,-49
1526,3188,4241,-1522,-434,707,-155
1527,-4791,-7143,-4965,-1294,-723,1783
1528,-6803,-1878,4090,-667,445,-1227
1529,-6749,-3112,-88,946,-1710,-1203
1530,-7903,3582,1106,1525,-1506,552
1531,-4449,-4739,-856,642,1057,101
1532,-3753,436,-1100,-808,-331,-1778
1533,7621,-4580,3178,1054,1494,1910
1534,7785,-671,1321,852,-90,626
1535,4613,-820,-7047,1533,550,1930
1536,-6476,-6540,3472,196,1411,-408
1537,6776,-7680,-851,704,-917,1915
1538,3624,-4000,237,22,-115,496
1539,3,-7974,6366,-192,807,1812
1540,-482,6018,75,-531,362,-1607
1541,143,-7431,577,7,717,1380
1542,-1081,-5614,-2902,702,694,-1455
1543,-4847,3309,-5509,582,456,1983
1544,-6010,1610,7716,-400,64,-345
1545,-2825,-4692,5626,72,401,1552
1546,5279,335,1409,1129,-1606,-1762
1547,-3323,-5980,4741,531,487,883
1548,4037,1512,-6720,-1334,-581,1564
1549,-5895,2210,-5541,-91,1607,-801
1550,863,-5975,7296,-1281,-1722,-577
1551,7628,-6790,5856,46,-328,688
1552,-4999,3705,-3540,-1800,1469,187
1553,3277,-156,2733,-1221,1244,-1548
1554,-1013,664,2809,720,1791,-1928
1555,7570,-4599,1057,412,1621,-55
1556,6974,-2185,-1364,-1118,-1018,1684
1557,1419,7305,-6733,1876,-317,-1921
1558,-6835,-3227,1148,351,-43,-665
1559,6242,-3533,83,964,1110,399
1560,-7241,-2443,5609,-772,-523,-1985
1561,-1597,7479,-4103,-1282,944,613
1562,-5912,6649,6850,-893,-1816,629
1563,-1219,3962,441,-900,-957,1592
1564,-4401,3967,-6073,-698,1978,-904
1565,-2360,-5386,-7097,1591,935,352
1566,-4944,-1794,-4034,-44,728,-417
1567,-350,-3520,6964,1913,1064,-228
1568,76,-3129,4752,-587,-1372,320
1569,-1111,-6960,-2864,-178,-493,1478
1570,-1302,1608,-6562,-110,745,-785
1571,2580,-2452,4231,1823,767,680
1572,6420,4617,7582,1660,1470,-1264
1573,1938,-3426,2282,-1896,-391,-747
1574,6185,4911,-1482,552,-867,-99
1575,7684,-1976,4608,1088,-1450,1884
1576,4325,2108,6087,1950,554,1782
1577,7221,-1104,114,1442,1931,-1339
1578,7985,-1613,-3345,929,-1704,1836
1579,1334,-1368,6313,1990,1316,-435
1580,-7277,4524,7770,1735,-68,1604
1581,3049,2984,-2646,-1185,-106,1613
1582,-562,-6710,2780,482,-1463,1270
1583,5147,-1869,-1035,-1058,-392,185
1584,7707,6574,6651,-979,-1367,-995
1585,-6871,-1605,-6045,-1991,-1892,-576
1586,7981,-6348,-5960,1871,-1970,-870
1587,1244,2169,6317,-431,-1275,1311
1588,7584,-2001,3831,-358,1876,1466
1589,-7061,4829,5919,825,-616,869
1590,6533,-2394,-2810,168,-1134,-1400
1591,-52,1791,-6220,-574,19,-681
1592,3033,-1794,4332,-1614,-1073,1377
1593,5154,5403,5765,849,-141,-306
1594,-775,1862,1978,529,548,-16
1595,-2631,-4744,6635,-1800,1248,1281
1596,-7055,595,1816,1884,-421,-1529
1597,7416,-7457,7512,-1262,1949,-291
1598,-3345,-2123,5106,165,1980,295
1599,3669,3744,-4020,-36,-1471,1523
1600,-7007,2998,-5002,-434,-1084,1021
1601,-4177,-2930,-3015,-1724,748,1923
1602,-822,-3270,7299,1689,584,-1140
1603,-58,-1974,1441,-1461,-261,-1794
1604,-3934,2779,-2466,-982,-1363,318
1605,-2063,-2049,4294,248,-687,-1709
1606,5248,5803,6753,189,-1177,691
1607,6069,3822,-7011,-1958,-189,801
1608,829,831,7438,-84,634,-902
1609,3678,6823,-3132,-601,-897,-1074
1610,-3938,163,4911,288,1123,-1657
1611,-4321,4240,744,-437,-1546,51
1612,3629,-1467,3022,-191,120,848
1613,1086,-7110,-2425,1604,407,-1460
1614,1001,1007,4830,414,-1533,-619
1615,-5561,-1802,5034,1249,485,217
1616,1626,7817,-7434,735,-1679,-1330
1617,-5657,-3289,-7506,1356,877,-1307
1618,4046,3384,1073,-1146,1583,-97
1619,3368,-298,-437,759,761,330
1620,-6618,2625,-1119,-1918,1276,674
1621,5374,6914,4348,-282,1136,1442
1622,-2566,7040,419,248,-649,-1789
1623,7035,5874,-4816,-784,45,-1245
1624,6698,2422,4061,-1203,1611,-967
1625,2563,-1300,-4283,-536,860,-956
1626,6361,-6834,4277,1653,188,705
1627,2119,-5435,2326,1598,1267,-1545
1628,1956,-5396,936,393,20,209
1629,3941,7504,94,1457,-1263,-1212
1630,-486,-7238,-1139,989,1148,246
1631,-7332,1848,6870,915,1476,-561
1632,-5349,7556,5456,-579,215,-1488
1633,-331,4048,-6392,-539,1688,549
1634,98,6663,-5306,428,-294,-1194
1635,-2153,1308,521,-1816,23,-1880
1636,-7461,-4754,6566,477,-1006,-1278
1637,2986,3727,2984,920,-499,1284
1638,-1090,20,4296,-1197,-1978,990
1639,5347,4704,7605,-1955,140,-1273
1640,-2626,-3091,555,314,-783,828
1641,6602,7534,-2786,-623,-312,-1026
1642,2810,-3568,7801,-826,-1698,-836
1643,5503,4403,4285,1935,-1406,1834
1644,6393,560,5665,901,1896,545
1645,-3366,-3062,-6189,-928,-731,-629
1646,-1138,1200,-2552,-1608,118,774
1647,-5467,6352,-3012,-757,-192,1016
1648,-4901,-2817,6905,1246,1058,127
1649,-7879,-3359,5019,-1498,-1312,1228
1650,309,-227,-6093,-1326,-1146,1856
1651,1590,-6904,4672,27,-477,-1671
1652,1118,6605,1066,104,1118,623
1653,7185,484,3619,526,-1388,913
1654,981,7744,5539,2,798,-429
1655,-2918,-3418,-7467,990,454,-947
1656,-6875,-4556,-4375,-723,-490,1949
1657,-3691,-7381,-6381,-535,193,472
1658,-1345,6496,5255,-1475,-1032,-1819
1659,5581,5773,4539,202,711,831
1660,1945,-5994,-5947,-1541,1464,797
1661,-7637,7541,-5806,76,345,-475
1662,6053,7105,7811,1318,1712,789
1663,1900,6127,-4827,1581,-382,1071
1664,-211,5980,-4407,-1366,-1061,-590
1665,315,4543,2791,-1055,1361,27
1666,-5107,-4343,2755,-1087,-1481,-217
1667,5400,-852,-896,1416,376,1203
1668,7783,1416,2317,-285,-1481,-1381
1669,-4343,-2800,56,-299,-514,-1077
1670,-2998,-263,5082,1096,380,787
1671,808,2585,-1998,-702,1216,-364
1672,3387,6310,-1962,1106,-1219,-1174
1673,1005,-5215,6133,-164,-965,148
1674,7656,-6905,-4328,-1213,-1243,-1504
1675,1807,-6609,6894,1859,542,1451
1676,-1021,-938,-7862,609,1308,139
1677,-7016,-1659,-638,1989,1133,1029
1678,-1978,2739,7920,-1047,1348,963
1679,-2635,160,-2392,195,-1472,839
1680,-5276,-4457,2677,-1161,-735,783
1681,968,4185,-7429,1727,1831,-1726
1682,-2745,359,4695,-1063,-455,67
1683,-2950,1676,4,1072,465,-1693
1684,7279,-2301,-3654,-1195,1799,-527
1685,4921,7316,-2395,1902,798,1795
1686,-2187,-2325,-6436,-1562,1606,1440
1687,1567,-7602,3725,-648,-819,777
1688,-7053,4326,-4963,596,1210,677
1689,-6832,-2108,7916,820,265,139
1690,5403,-5682,-6177,-671,1822,-309
1691,-2207,4091,-2994,464,729,-1433
1692,-7012,1148,-6321,736,104,-1364
1693,4113,-7772,7216,1780,575,-1084
1694,-2148,7163,-4451,586,-161,-1072
1695,6846,-5738,-2832,-922,1799,-1065
1696,-7219,-6606,2284,-701,-257,1860
1697,6314,-3997,-4296,1775,-87,-738
1698,-3800,3686,-4261,566,358,321
1699,6649,1703,-2007,-1694,109,-937
1700,-846,-3696,948,525,487,-1533
1701,-5725,6016,2049,-1850,-1568,1118
1702,-429,-2630,-3806,1162,-291,-1030
1703,-5616,3207,-7543,-844,-72,526
1704,289,4989,1096,1332,-24,-1352
1705,6355,-2477,5158,-1596,-858,1588
1706,-6196,3850,-4049,-988,-1033,-1328
1707,-4079,-3341,-4153,-137,1111,-255
1708,6528,-2916,-6375,-286,-1004,219
1709,39,2433,4295,1744,1052,719
1710,-1992,-5414,-4781,-847,412,-862
1711,3065,1935,1658,-1952,870,1417
1712,1248,-4375,1165,1557,537,-767
1713,-2753,-5766,1569,-339,552,125
1714,-1325,6306,6417,131,1588,1664
1715,-1043,-4902,4413,-1241,444,91
1716,6644,-3821,-5195,1013,1991,-1044
1717,4701,-7289,-4892,-653,-916,712
1718,4516,-1925,572,-1634,-1440,-1147
1719,-1177,-5419,-7074,760,1686,1185
1720,-3336,-382,206,-1096,-1735,-776
1721,1155,-4481,7821,-629,-98,953
1722,-7122,-4863,2379,1025,-1120,612
1723,6503,-911,2272,-489,-1031,-593
1724,5607,-6010,-3319,1734,1748,-689
1725,-2100,6438,-6405,348,-898,1010
1726,3487,5073,-6236,-1427,-1097,-982
1727,2393,5973,3728,1063,-1822,1002
1728,6524,2059,577,-839,-607,1644
1729,-3391,602,-2639,1966,-487,214
1730,4538,-7128,2417,-211,548,451
1731,3552,-5771,6874,706,-627,301
1732,3397,-3085,103,1446,1969,1231
1733,-7373,1320,5750,-1301,-1830,-1467
1734,-1397,3071,-4770,1398,1082,925
1735,6576,1789,858,1133,-768,-528
1736,-3198,-35,-4818,1218,688,775
1737,-7321,7744,5989,1886,-1851,-1634
1738,-4054,5263,-6978,-1023,1652,-1785
1739,-7990,635,-5290,-1997,1748,819
1740,1813,4510,-4303,1573,-130,-1838
1741,-5740,-1637,604,-907,1981,-171
1742,6920,-2528,5111,-1544,-893,-172
1743,6849,-7409,-6113,-247,1016,-916
1744,1689,4683,-7383,1547,-596,-919
1745,6222,-3138,-2777,1439,-302,-1216
1746,3329,6698,3663,1964,-473,1158
1747,-1813,3232,-1645,-1794,63,344
1748,-6461,-1762,-7667,-1646,-115,317
1749,7896,-7865,2851,24,1980,-63
1750,-886,1119,-7728,-389,-70,445
1751,-6603,2,5532,-1110,274,-790
1752,1230,-4145,-4151,-1440,-1665,-810
1753,4939,1310,-7846,1155,-1068,1295
1754,1295,-1146,6193,457,-210,-1227
1755,-4779,-3132,4443,-131,-1803,-1533
1756,-7364,-6244,592,-1107,-1350,-238
1757,5801,7047,-4097,-309,1221,-552
1758,4762,4263,-7486,1470,1081,1857
1759,-5654,560,-1546,729,1947,1740
1760,4458,806,7225,-1157,-476,1321
1761,-4864,5931,-4403,-1083,310,-1897
1762,-564,-4120,6908,-837,810,-1653
1763,-3721,3362,-2895,677,-963,1419
1764,-298,-3031,-6474,1734,1234,1001
1765,80,-3337,-2712,708,-1558,1482
1766,4822,-7801,-3808,911,1123,1853
1767,-5649,-3690,4692,1901,266,1021
1768,-3335,-5206,-7478,-1651,-213,-1022
1769,4990,-805,-3797,-771,-1238,404
1770,-6829,5408,5549,465,-398,592
1771,-4608,1513,558,769,-1774,-1667
1772,-7033,6097,5880,-1708,1925,-1124
1773,6727,4313,5735,1498,499,604
1774,6190,1542,4742,-1239,-1412,760
1775,5048,853,2171,-1189,683,-351
1776,-679,3259,6114,-873,1133,1624
1777,-4994,2936,-7621,-1784,-502,110
1778,5093,1802,2485,-82,1502,948
1779,5355,3380,4283,411,-540,906
1780,27,-371,-6111,-413,-519,-1014
1781,-5483,-3021,6734,210,1279,1780
1782,-6146,7533,-4503,1416,144,900
1783,-2957,6871,5397,524,1072,-1197
1784,4262,6848,-6117,-161,450,-573
1785,-5258,6693,-3008,1207,1319,410
1786,2205,5977,2337,74,1538,240
1787,1667,-29,5185,1635,501,-61
1788,4253,-5012,3248,-1029,-103,1477
1789,7137,2661,4139,608,-1716,859
1790,421,-6739,6240,797,150,555
1791,-7180,3268,-7274,1430,1054,583
1792,2142,599,-7705,1974,-1551,-464
1793,1762,-652,-1419,-1033,1878,1635
1794,2215,4992,-657,-242,-1528,-1590
1795,-5122,3863,-5672,1631,-1144,-6
1796,1370,2318,2270,1005,391,-797
1797,4947,3683,6635,1460,-360,1799
1798,5417,5144,4916,1743,-647,1388
1799,-3641,-7192,2112,1615,308,1799
1800,-6939,577,-951,807,-498,960
1801,5399,5730,2831,209,-929,-1406
1802,-1744,4065,-7397,1916,641,-1427
1803,-5315,3006,-675,167,-1102,1839
1804,-980,-2278,-7339,1792,-1267,-1185
1805,-756,-3757,3867,-447,1244,1618
1806,-2287,2172,6459,-513,-1034,-602
1807,1383,4547,6559,-667,-777,-455
1808,-4232,-190,-7882,853,403,-1408
1809,4258,-2759,1374,-1249,-697,-941
1810,6690,5270,-2430,1641,-1144,-1539
1811,-2022,6808,1904,2,-1204,524
1812,-3871,-7787,-7535,-727,-914,306
1813,-7079,433,-3909,-157,-282,1292
1814,257,-198,-2443,1163,-579,-1657
1815,4524,5435,2076,-494,449,736
1816,1475,-1592,1135,1911,-169,-603
1817,1175,-5830,5460,1226,-773,-45
1818,4299,5036,-5931,-65,-1771,86
1819,-3266,6387,-4147,-1193,-1806,-484
1820,-5787,3574,-1622,-351,-571,921
1821,1204,-3756,-1287,174,-1206,-329
1822,6205,-394,-791,699,1659,1351
1823,545,-6522,-2557,1962,-1300,341
1824,5647,-7074,-5819,1083,759,-1038
1825,3184,7570,-65,-1726,-1472,-201
1826,-7306,2171,1305,437,1114,792
1827,6810,-1478,1425,280,-141,1930
1828,-1165,-5804,7484,-1621,1379,-637
1829,3537,3050,6209,-1827,-358,-574
1830,4224,-3444,6286,-608,-1067,945
1831,-1940,659,-875,536,991,1560
1832,-7838,-682,5751,1963,1637,-61
1833,-7010,7495,-7528,1180,-1929,-1929
1834,6651,-6793,3079,-741,1245,1128
1835,4532,-6889,4449,1486,-995,494
1836,5729,7287,-3917,-353,-1594,987
1837,-1357,2697,4848,-1459,69,1947
1838,6514,-5015,-6199,1654,-1029,-1855
1839,2872,726,4458,-1214,-1787,-1486
1840,2626,-6498,-452,303,-1869,-411
1841,-7227,-3369,-6491,1709,1064,-146
1842,357,-2876,-194,1299,291,-1811
1843,-4957,4311,4685,889,557,1591
1844,3616,1224,334,1846,1603,1282
1845,-5584,3451,-611,1640,1657,-1535
1846,-1742,7793,1915,-1602,50,701
1847,-3016,6160,5168,282,-64,68
1848,-59,6815,-4613,-1621,-715,844
1849,999,-1165,1780,1914,-108,-257
1850,2799,-3541,238,955,-149,1384
1851,6532,2412,-2180,954,-1888,74
1852,7929,-7443,4104,-244,1678,713
1853,-1529,2220,-1940,-873,-1024,1401
1854,2627,5017,7855,-554,1905,-1981
1855,4062,-5966,1860,765,-682,103
1856,-3043,-3841,-4376,-1270,-1761,-262
1857,6602,-4148,2417,-1054,1669,-1995
1858,-1358,3689,-2346,1048,333,-314
1859,3158,5470,2110,-1432,1356,-529
1860,5926,5972,-6316,-1246,-1831,1791
1861,2834,4553,3122,782,1737,-1389
1862,-7902,-1991,-7848,-497,-789,168
1863,-4683,3842,-4262,1465,-1400,-1804
1864,-3327,-2697,3041,-879,-1159,631
1865,-5124,-6632,-2984,-1244,205,-882
1866,4265,-5897,-4834,-1420,429,-561
1867,2152,-3805,-699,1701,667,1661
1868,6602,-3852,4355,-1847,907,-302
1869,208,-5678,3189,-830,-1252,1127
1870,7436,2016,-911,1448,1993,-1886
1871,-1702,4997,3448,266,1582,-1857
1872,2611,-3139,-1794,-358,-1382,-1494
1873,5147,4914,2868,-388,37,-786
1874,-280,2150,-1521,-525,-1091,616
1875,1835,5858,-795,763,1427,682
1876,-1200,-3900,7102,-1781,780,1332
1877,4417,1791,5006,-413,-1717,-66
1878,-4506,7472,-842,761,1323,579
1879,-355,628,-2829,-1301,-1418,1394
1880,6544,383,5702,-1540,1800,759
1881,-5520,1715,5918,1867,-320,-353
1882,-7539,4642,7856,1701,62,1073
1883,-4778,-5598,-3907,627,-937,-1788
1884,1132,1068,-7262,-83,-578,1828
1885,-4461,6501,4150,1854,-1276,-573
1886,2764,1506,-7693,-1866,1846,-1301
1887,-3546,-7914,6296,-1502,-377,-576
1888,-4201,-5577,-2734,1450,1637,-681
1889,4577,-7334,-7297,-1855,242,-1234
1890,7657,3066,-5646,-132,-1842,1824
1891,-5411,4397,5097,1190,-457,1240
1892,3636,4864,-5709,1988,449,-398
1893,-7211,-5376,-4002,1655,321,-1994
1894,-7335,5563,796,-995,-477,470
1895,-1554,171,-5266,1340,-1786,-1536
1896,-2457,7679,3312,-1256,1298,-1324
1897,-2383,4833,-3866,995,957,862
1898,7088,5224,-4401,401,1967,1159
1899,-2603,6084,-569,-1671,-1001,1293
1900,-6387,-6288,-714,-319,498,-549
1901,5940,329,-4054,-1101,-1460,-1582
1902,-829,4927,7093,30,1831,-815
1903,-60,4051,5137,-190,927,270
1904,-6882,4750,-1102,1096,-212,-823
1905,-6122,-2673,6698,1460,1572,-1696
1906,3254,6156,-6768,140,-1637,523
1907,5801,-7684,1927,-1860,-1802,299
1908,662,-2993,-7727,23,1426,-1333
1909,-7977,6547,-1023,-1804,-1808,1645
1910,-459,-1948,513,-1702,-264,955
1911,-2566,5360,-4,-1117,-1061,-1997
1912,2050,2051,439,-1037,-1149,745
1913,-2933,5904,5508,-1028,-645,-1428
1914,-5783,285,6671,2,-224,1451
1915,860,7637,-4069,175,-1304,1702
1916,-5749,-7345,-6286,166,543,347
1917,6290,4020,6423,-401,957,1579
1918,-1953,4816,-1931,1381,428,1023
1919,-3402,-6852,-5304,1019,952,1759
1920,-1420,4745,-2122,-887,-1660,570
1921,1388,-410,-2703,426,-1794,-1356
1922,3762,-2829,1096,180,-1680,-1405
1923,-5684,-1851,-2632,-852,-187,-1617
1924,-784,-365,-3609,-512,-675,1843
1925,-3178,-4901,-802,905,-1885,234
1926,2552,-3535,-7924,-1344,-1626,1134
1927,4938,-4997,775,1065,512,1927
1928,2553,-511,5691,1743,1504,86
1929,-6897,3286,-4275,1895,-453,-1136
1930,-376,-2958,15,-1704,1283,-1796
1931,-6534,-2076,1046,1176,-339,241
1932,-6640,-5684,-1237,-96,741,851
1933,-2131,-2305,7161,311,-254,1886
1934,-2081,-7652,-3310,1273,-948,-1714
1935,6218,-3739,4895,-1121,1003,1253
1936,1391,-7524,-1060,-1012,-744,-1612
1937,-3974,317,-932,-1795,1914,1929
1938,-2837,2816,5115,-1856,1917,91
1939,-7124,921,-3109,-865,1983,-376
1940,1633,7679,-6314,-331,1240,-1493
1941,-3925,1004,-1817,1950,550,28
1942,-7463,-7926,6448,77,1737,684
1943,3664,4908,-5094,-1258,130,1367
1944,4502,7390,1508,426,-1034,1262
1945,4647,-7988,4992,-1065,237,-1840
1946,1905,-5524,-2495,1082,1459,1969
1947,-2254,3154,-4988,-788,171,1729
1948,-2244,-5831,-6318,352,412,-1747
1949,-3053,-4744,-6907,1213,654,1558
1950,7283,-2771,-5725,879,114,289
1951,-21,-4199,-1032,797,-403,-1838
1952,-6461,-4787,6199,710,-1522,978
1953,3952,-1229,-3452,951,315,216
1954,6313,-7561,7728,838,1497,-59
1955,4220,973,-7725,-1,1345,363
1956,-1163,3151,1652,-819,865,693
1957,1152,3191,-291,-20,-1550,-192
1958,-7086,3620,812,-1633,-810,-1061
1959,5511,4859,-6240,1935,-83,1341
1960,-4390,6462,7982,1365,-1532,388
1961,2934,-7084,5419,-865,-573,373
1962,-5755,-6371,5421,1599,-497,-1290
1963,-888,-7287,696,-1859,-186,-1009
1964,-1868,6612,1139,550,1323,-138
1965,7711,5013,95,663,-1388,-308
1966,1899,-7720,59,-1596,-1147,-5
1967,3379,-7745,1535,310,-293,-1093
1968,-1062,-693,2219,613,-289,-1851
1969,-2066,-4493,-2478,1626,-33,-1770
1970,-5203,5503,6004,-1743,-1078,718
1971,534,-5340,1862,-426,1847,-1336
1972,7500,-4087,3747,-1512,543,1786
1973,4035,7810,-7409,1628,183,1861
1974,-7991,990,5786,-1800,-939,1869
1975,-4670,4294,-4919,2,1542,-192
1976,6535,-6132,-2368,1224,-952,1677
1977,-3556,7583,-5425,-1666,1016,-1212
1978,2491,6405,7433,-905,1351,891
1979,-1306,-2712,-6387,-1916,793,-70
1980,5264,7486,3625,-1324,928,-1530
1981,-7086,2813,-2480,605,578,413
1982,2270,-4164,-7803,289,1767,-1192
1983,5310,5372,-1406,400,-1305,415
1984,4565,624,7454,-1058,64,322
1985,-4614,7460,-7802,-28,-133,228
1986,-1664,2595,4926,1935,1471,-338
1987,-2861,-1194,293,1040,256,-1476
1988,5206,6606,6244,-102,1892,315
1989,4061,-722,-4225,-1747,1406,639
1990,-4640,-774,-6597,-1592,8,1369
1991,-7846,-7760,3632,-409,242,-1216
1992,6789,5527,-6520,1288,1075,-1084
1993,5087,-4745,-2086,1866,-629,-357
1994,3538,2945,-1027,1889,-14,-1702
1995,-4525,-5147,-1627,-471,-523,607
1996,1564,-1740,-318,819,-567,-369
1997,5330,3599,-3657,415,-1821,-1086
1998,5600,2257,7636,138,1296,-1097
1999,2210,1791,7480,310,-491,-847
2000,2329,-6585,-3137,-1925,-1036,-821
2001,1415,1734,-701,1979,321,1890
2002,-5559,6183,-5473,512,-1312,1714
2003,-6127,438,2961,1045,-1749,-289
2004,-4574,1522,2322,-1042,-1433,-1297
2005,3239,65,3497,-585,-1036,1117
2006,190,-7331,-548,-1644,39,-1943
2007,1571,6905,-7930,-892,-378,-1443
2008,1339,-7825,382,-413,-1807,-297
2009,-5096,-1870,1299,884,1450,-199
2010,4981,7764,7493,335,-1578,-614
2011,-4169,4955,-7438,586,-1336,1753
2012,4464,-7417,7715,1112,895,-598
2013,5706,4788,-1743,1710,66,-1256
2014,-4052,-654,2162,1358,460,806
2015,7633,-1516,3914,-1141,-1633,-1964
2016,-395,-1195,1191,-776,-1219,1210
2017,2483,7977,3182,-69,1998,1015
2018,-3140,2195,-476,1183,890,-238
2019,-2101,-5110,3988,-1746,1501,1811
2020,-3267,-1109,-840,1408,1432,291
2021,1495,3528,4853,1483,-1037,-241
2022,1513,2923,-4957,-1673,-830,26
2023,7239,-3183,-5776,182,-787,-948
2024,4128,6988,-4614,113,838,-487
2025,7762,-4538,-5832,772,1293,-383
2026,3533,-5769,1984,-1204,407,-1301
2027,-7956,-2645,-6737,1326,-647,652
2028,3573,-1903,-5797,93,1016,463
2029,4126,3251,5585,391,1137,1721
2030,1053,-7249,-1457,-1062,549,-1438
2031,6165,1666,-6787,643,1051,-827
2032,-7166,-1783,196,1022,-379,1445
2033,3519,-2545,-5352,1022,606,-156
2034,3835,6479,4027,816,-1028,-410
2035,2643,3928,-2056,986,1547,898
2036,-5260,-6155,-3070,-193,1875,1248
2037,4088,2589,-5336,1767,-1364,477
2038,-2162,3709,-5642,-477,-723,-1097
2039,5262,2332,-7684,-554,-174,-1049
2040,5634,-5770,5612,952,1857,-1796
2041,6727,-6354,3730,385,212,-1220
2042,-6026,574,-4776,1297,607,1126
2043,4924,-6049,2144,1557,-702,453
2044,-2412,-7047,-6204,-858,1280,-1036
2045,-3760,7338,2369,1624,-217,1876
2046,-4,1897,1735,-578,-1501,-1327
2047,-271,4594,3557,244,1302,-617
2048,6626,-3898,-6058,644,-14,488
2049,7855,2275,7013,911,-1557,-1775
2050,-1716,4624,-6872,-360,-1173,1458
2051,3896,-2438,7152,-1423,50,1085
2052,-638,6365,1999,-1277,-1615,870
2053,5479,-5176,-2861,1478,217,892
2054,-7042,-872,1087,-1400,647,658
2055,-4188,595,-1034,-1966,-752,-1223
2056,4783,2792,-4911,-1110,-1845,1403
2057,-6589,2415,-5053,1683,-1558,-960
2058,5607,6937,6287,-1531,-685,-613
2059,1691,-7200,-3531,1925,554,964
2060,-4711,1463,-44,1911,-1760,-1548
2061,469,-7065,5428,-520,266,-1549
2062,7706,-5175,-5998,-1621,-1872,1993
2063,7133,1330,-7460,-546,1536,644
2064,3985,7424,-6944,-443,214,-843
2065,2653,2776,-2901,1187,186,-170
2066,6269,-5579,-3854,503,-1080,-1566
2067,3014,-6964,-5174,-1445,-1025,-1313
2068,5395,1195,186,1339,501,1762
2069,-1441,-6405,7984,-1566,-913,-150
2070,7879,4699,276,-680,1502,185
2071,-1523,-594,-1672,430,1734,-1238
2072,-3105,-1724,-7566,1600,312,309
2073,6699,-3839,-5737,1450,1526,-91
2074,3726,3139,-175,-1526,-415,-184
2075,3339,-6740,-7976,-1011,-520,904
2076,2389,-3581,5667,-758,714,1176
2077,-978,-72,966,311,491,-56
2078,2598,3309,-2870,-1153,-391,-274
2079,-5648,-6506,7306,1840,-869,-1169
2080,-1601,-4410,-5957,-116,-1562,159
2081,-2128,-2695,-2587,-1125,-572,163
2082,-1830,2232,1494,-273,597,-197
2083,5530,6676,4780,1966,352,-1035
2084,3860,-7172,910,58,-1812,-1460
2085,5612,-5557,6363,578,-1597,-383
2086,-3844,7718,2805,515,-1787,1242
2087,-2592,2677,1466,-912,-242,1152
2088,4613,4064,-4702,-1311,-548,-198
2089,-680,7049,-2878,-248,5,140
2090,6980,-1947,-5382,-596,1512,1572
2091,-1329,-3962,1640,184,-423,796
2092,-678,-421,5625,-1992,1439,-795
2093,4672,-3990,1795,-1733,-464,889
2094,4654,5193,-3625,993,-1067,-700
2095,1445,5418,-516,-1402,-50,-1038
2096,-649,-4874,690,1906,-1831,-1983
2097,5382,-537,-3046,0,497,-443
2098,-2474,4320,-5437,-1663,142,623
2099,1016,7479,-4638,-520,-477,-949
2100,-7674,-3577,5980,-1859,-1677,-1352
2101,3851,5384,-1658,1261,1023,-1913
2102,-1265,1420,6944,1529,-411,1701
2103,5468,5962,-1606,-50,-111,-1558
2104,-5542,-7882,-7825,392,-909,-1834
2105,-3648,-3599,-3779,-563,-1946,-1680
2106,-3388,-5914,2742,292,-1941,1134
2107,1804,-6424,-3600,435,-1116,-1993
2108,-4806,-4537,1444,-80,406,1449
2109,7291,-3223,611,1796,974,146
2110,1786,-353,2183,540,715,1322
2111,3507,-4981,-5312,782,172,321
2112,-3973,4812,-4026,-985,1281,1134
2113,402,3876,-5093,1299,341,1892
2114,3125,2605,1248,-482,714,575
2115,-1386,5096,-4633,1551,-1793,-500
2116,-5931,7201,5309,-1834,-242,-1158
2117,2641,4553,3733,1360,475,1474
2118,3430,-7444,-4363,1768,1181,286
2119,-4656,3223,4159,-1575,-1831,-1669
2120,-3238,1538,-6859,-193,-170,947
2121,4260,-485,4398,-942,-1463,-12
2122,-2516,-6543,4602,200,1802,146
2123,-1802,-2844,5913,-1915,233,-894
2124,-3308,-447,-2880,1184,1354,850
2125,3387,-2769,670,-1161,1881,-868
2126,1714,-2397,-2998,-289,1969,-448
2127,-4982,-4370,6243,788,-1300,-1541
2128,4728,-909,-413,260,878,978
2129,-7852,2115,3366,568,1196,1576
2130,-2144,3919,-1081,-1273,1303,-1347
2131,4052,5725,-491,-362,-1696,-487
2132,3802,5347,-5180,1552,1967,1432
2133,-2746,7646,-3464,19,-307,1394
2134,7180,-6774,-4778,-1912,-488,1944
2135,7298,-2997,-2905,-1777,431,-196
2136,-4457,5584,6417,1335,-1414,347
2137,5780,-5680,2981,1059,-501,102
2138,-7743,-880,7636,-557,-1764,1020
2139,3850,-4910,188,-338,-1965,1113
2140,5137,-5086,4628,14,1326,-1998
2141,-7509,2051,-4697,-452,-1364,-919
2142,-6108,-7369,614,243,520,-1673
2143,4556,-4370,-87,1172,-1202,-1874
2144,2732,1462,-6910,-1316,283,-33
2145,-6984,-2922,-1333,-602,1701,83
2146,-7468,-2149,-1531,-1984,1322,722
2147,-765,-244,7820,1684,1043,-1804
2148,-3849,2381,402,-1268,1204,-1109
2149,4845,1282,-4335,1713,1049,-1163
2150,-7291,623,6041,-462,504,1559
2151,4719,-1763,1182,898,-843,999
2152,42,-5720,1117,-1329,1592,614
2153,127,6070,-920,1710,1207,-1324
2154,139,5533,6857,-1299,-1028,-830
2155,-2811,-624,6066,-393,1868,1730
2156,480,4593,-7160,-1934,91,-492
2157,547,-5784,-3718,-1304,1823,1759
2158,-5126,1525,6218,1788,425,-51
2159,5473,-1657,6748,-1362,1031,707
2160,-768,-1388,-6103,549,979,1140
2161,5536,3022,4291,-1538,-1299,-1802
2162,861,-7342,469,137,-1395,222
2163,389,-1502,4695,-1935,-486,-1768
2164,1019,1828,-5708,-889,-1565,-215
2165,-2674,-1672,2039,-1431,-1978,831
2166,-1366,-751,7875,-755,1307,1159
2167,-5565,-6974,-553,-217,-1825,1260
2168,1139,6658,7871,-1611,-1616,226
2169,4726,5644,-5911,-977,-1092,584
2170,775,-4701,-891,-305,598,1655
2171,3115,4369,-7125,-1023,-1977,-1555
2172,1182,962,-2700,-1459,-201,-835
2173,-754,-7349,4623,1897,5,-1908
2174,6873,778,-1377,626,-1179,1635
2175,-3960,6801,-1817,133,1827,1638
2176,7465,7955,-1230,-1416,1809,-266
2177,3723,7183,-7589,447,1069,-709
2178,1765,6337,1336,1255,-1176,1807
2179,6564,-3470,2689,-129,-374,614
2180,-3628,-7179,5216,-1962,-373,-426
2181,-5214,5006,-3954,-1116,474,337
2182,6389,-7130,-1879,1744,1223,1211
2183,-6014,-1126,-1319,-1068,1358,-1697
2184,7881,-3501,4193,1820,1065,-1226
2185,-3547,3644,5554,-1300,-1016,1941
2186,4741,4533,-6791,-980,-1431,728
2187,7159,-6885,-3419,-65,-1256,120
2188,-2888,-2599,304,-926,-324,-1296
2189,3333,-3249,558,1463,-1512,-1440
2190,387,7326,6939,680,1291,-310
2191,-4283,-5836,-1899,1832,1528,-1968
2192,3019,-6794,-851,1478,1447,-1511
2193,2083,-7481,-7978,511,-957,337
2194,2963,-2125,2345,213,-435,258
2195,-2764,1034,5281,-428,-1189,334
2196,-5403,3367,7109,-1182,62,-1359
2197,-7479,7098,-4080,516,682,1264
2198,-7650,7865,4684,650,-885,-706
2199,-7093,-1719,-6972,-576,1820,-132
2200,4882,-3415,5165,1995,-1930,1321
2201,-6365,4454,-1120,-1710,-1123,-823
2202,5979,-2127,3655,-1048,186,153
2203,-2902,-6164,-6834,-545,-1242,-628
2204,-5600,2311,2883,36,904,-58
2205,-3089,2098,-5943,-1398,-1844,560
2206,772,4063,1739,-1928,356,1608
2207,-3233,7271,-4079,1744,473,55
2208,4440,1094,6569,63,1095,1056
2209,3272,-4460,-4169,-1419,1109,1062
2210,7551,1734,3884,1010,1605,-1849
2211,3791,-3504,7647,1428,-1992,959
2212,7168,6384,4661,418,38,640
2213,3300,-712,5840,768,-837,-464
2214,-1722,4091,212,474,-644,426
2215,1907,936,1319,-90,-1836,-1673
2216,3356,4288,-4489,-245,1031,-448
2217,181,6420,-1360,1329,-496,1682
2218,573,222,-6078,-1763,-606,-34
2219,-2730,3285,-2056,-538,664,-1251
2220,-6512,-2607,2971,251,1701,-1430
2221,-125,607,-2893,-1486,1657,1492
2222,-813,3337,1592,1408,-1829,-684
2223,-6496,1006,-229,-1706,103,-1415
2224,6607,340,-3820,1238,1635,917
2225,3342,178,2209,1175,-96,955
2226,6526,-6159,-407,-42,-1086,525
2227,-2733,6519,3453,-781,-308,133
2228,-4673,7005,5876,1230,-1143,-842
2229,-1660,-7260,7020,168,128,-759
2230,-2100,4988,-6255,1422,-571,223
2231,-5968,3725,4444,-1606,-1413,-590
2232,5177,-7263,315,-1024,1514,-66
2233,-1701,-5576,2978,815,209,-1739
2234,-7103,-2707,-4084,-1106,446,784
2235,-3008,-2252,-576,-1288,1884,1339
2236,6495,5289,7269,1203,-1678,-322
2237,1270,7856,1999,-1325,721,397
2238,-2493,-323,6287,-122,-1984,-313
2239,-601,1179,1059,-1196,-1474,-561
2240,-610,-1259,697,-994,-1007,1957
2241,6998,-2014,4159,-791,1614,1963
2242,4576,3226,-268,-1342,1787,-18
2243,-4739,2760,2581,932,1207,1125
2244,-5414,7035,-3578,988,1317,1369
2245,-301,6332,-1198,-1991,1178,825
2246,-4106,-5254,4910,1944,-31,1913
2247,-7359,-4767,4340,-1169,1052,-1813
2248,1862,870,-140,9,1729,-1987
2249,-7366,-1922,962,1163,1581,473
2250,-6088,627,1544,-632,-1492,1678
2251,3277,3073,1032,-370,-1397,-921
2252,1669,-3576,-6835,-1364,1253,1491
2253,3339,3827,2248,201,90,-1872
2254,1951,7748,-6745,-1018,1427,1865
2255,2647,1414,5795,609,-1622,129
2256,-2815,-5967,-4466,-1224,-1725,-273
2257,4170,-2181,-316,-1783,-667,332
2258,-4704,5317,-3433,-1621,-1378,539
2259,1660,1649,1379,-986,-740,-1929
2260,-1340,-7059,-2804,556,-405,-205
2261,3595,-1455,2335,1111,979,1279
2262,6143,7680,1866,570,-1721,-151
2263,-1189,-1081,-5301,1306,-898,1640
2264,378,2846,-2237,-205,1512,-916
2265,-2234,2617,-7280,-510,325,600
2266,-3815,7419,2526,-1208,-928,1061
2267,-4513,450,650,621,-535,-773
2268,-6345,7492,2605,-1001,1386,-1517
2269,7090,-6625,944,-617,416,-218
2270,1099,6794,-6092,1832,-424,-1459
2271,1944,-2702,6029,-1158,901,1204
2272,-7563,-6171,-7055,-1232,-1127,1171
2273,4990,-4050,7151,1696,-1258,-1561
2274,2427,7906,-2788,-581,1801,1162
2275,5320,-7866,4565,-945,365,1834
2276,-6562,-5933,5181,-1903,642,555
2277,-5388,-4028,2415,-1966,420,-1213
2278,2923,3573,1387,-1884,-403,866
2279,4861,-136,3167,-1130,877,-1487
2280,2704,1817,377,-1430,1719,920
2281,6406,3635,2868,-1201,700,-1576
2282,-2519,3641,6254,-558,470,1734
2283,6855,-3361,-2902,944,783,-1372
2284,-4858,6427,7852,-273,1118,-1812
2285,-5121,-2077,4130,602,-189,-809
2286,-4454,983,5662,-1784,1426,510
2287,4571,-4006,1434,-1546,-1608,924
2288,-3109,4567,1781,-849,-1080,104
2289,-6734,5289,7412,80,842,-1466
2290,-182,-3014,-282,903,379,-198
2291,7085,-2352,-7657,-1261,1275,-1900
2292,4651,2215,-2914,-1950,-691,1078
2293,1048,-4899,386,1399,955,-816
2294,-3753,-1193,7610,-1303,-1078,91
2295,1991,-2785,-2631,1660,1081,-995
2296,-4201,7988,-2495,-740,937,-756
2297,2066,5741,1765,-1680,-1889,1653
2298,2360,-7758,5713,-74,57,1791
2299,6439,3309,-1743,-1053,-1107,1972
2300,-6885,-1700,-3673,-1954,228,1035
2301,1381,-3771,-2543,-1969,-1373,-1005
2302,7243,6610,3039,-1145,-1372,1870
2303,-344,5402,7603,-1996,1998,1243
2304,2139,4816,-4256,1875,1208,829
2305,-5761,-4996,-5139,-268,1099,-1414
2306,4004,7941,870,-170,-1893,-1320
2307,5313,5733,6839,-1121,-1842,555
2308,5458,3259,-886,1701,-1526,1079
2309,-3340,2590,-2114,-1059,1544,679
2310,-140,-2505,4357,-532,-249,-508
2311,-3675,2192,-6003,586,-1314,-1535
2312,5524,4359,-182,-1843,-1988,23
2313,-4013,-2066,3868,535,-1328,1524
2314,7921,-710,1611,596,-819,-1860
2315,1418,6899,1016,-1455,-1442,-793
2316,-6296,-5995,6574,-1920,1613,-1003
2317,-4248,-7972,4200,-496,-1677,-167
2318,4786,-3793,3396,379,-770,60
2319,6708,-3387,-1497,-1944,212,-587
2320,-4282,-3017,-518,-523,-722,972
2321,3312,3306,4630,1654,-1030,912
2322,-3087,-2356,-2064,-1918,-850,-1176
2323,4087,-7884,-4504,-911,920,-1443
2324,-3623,-298,-4491,-203,-1934,-1428
2325,4083,76,-1926,1225,-1576,-1526
2326,177,-3981,-1872,-1805,-1217,1577
2327,5532,523,-4819,1062,181,-1411
2328,-3880,-7515,3301,-1972,1345,-779
2329,-2215,3432,6626,687,366,1433
2330,5533,-902,-1600,1216,-855,1768
2331,-6775,369,3623,1577,26,514
2332,-2646,-1583,4468,868,-373,1444
2333,3287,-3462,-5353,-536,-660,-522
2334,184,2537,7509,880,-1036,540
2335,-6274,-6393,-7821,-910,-42,-194
2336,6748,7807,69,1916,-1618,918
2337,4791,657,838,582,636,-788
2338,-358,7654,858,1395,1162,-1364
2339,-5999,228,4740,-598,-1684,-4
2340,2206,-6664,3091,-878,-692,1818
2341,-1207,5090,-7951,-786,203,1905
2342,2224,3883,2439,-408,421,-1692
2343,-66,2534,-4831,354,240,-1052
2344,1797,-660,3656,-1385,-317,-472
2345,7772,249,985,1712,-1873,1302
2346,5201,-3186,6457,-1246,-181,584
2347,-4859,-3662,3509,-28,1574,-1112
2348,-2320,-3680,7659,-62,-455,-1286
2349,-5448,2211,700,-214,-1821,-247
2350,-186,1106,4987,-411,-898,231
2351,5442,569,-5174,-1127,892,-683
2352,1738,-6452,542,1495,-1795,1843
2353,5041,5682,7997,-1277,-21,-1705
2354,-4162,-7384,875,1519,-710,-846
2355,-5402,-505,-4412,-406,-1359,1
2356,5811,1641,2741,221,-1167,474
2357,-4170,3865,7548,224,-1544,1636
2358,1939,-256,5254,-987,-1569,1393
2359,-937,-6106,-7409,1059,1794,-868
2360,5179,-3117,2845,1784,-1181,482
2361,2546,4362,1198,1050,-167,1244
2362,7864,-4430,-476,655,-1613,1243
2363,1856,-6972,-1337,1883,-1579,-955
2364,-6985,1194,-7562,-310,-870,234
2365,-7664,6474,-5568,1539,208,1504
2366,1270,4562,-2606,-1288,1179,336
2367,6406,112,-2165,1861,1826,-1894
2368,-381,-2545,-5847,-934,1127,1851
2369,6974,6856,7938,-462,1796,-628
2370,1610,1604,208,807,-875,1269
2371,-2291,-6803,-3312,-529,-1352,1385
2372,328,7524,-1514,824,-483,1463
2373,-7668,1595,5649,-755,563,-223
2374,-6033,-5254,-2215,-414,1288,183
2375,784,975,-6654,-1041,1672,-358
2376,-7368,-4161,-7549,560,1414,893
2377,6728,3619,6554,-194,169,-693
2378,-1798,-3034,-6274,685,591,46
2379,-6256,-6770,2283,1079,1860,-1560
2380,5109,6740,-7573,1162,-1267,-1629
2381,-7850,2456,2482,427,-1342,871
2382,-6606,-1204,7143,1542,940,28
2383,3880,1083,-7946,1862,-291,1922
2384,4634,-7865,-1409,-1545,76,33
2385,2118,4837,3999,-571,627,246
2386,6810,6436,-5792,946,-1781,1922
2387,-98,6926,4151,-1165,1394,1548
2388,5271,1117,2616,730,1422,1371
2389,2666,2872,460,-1161,137,-198
2390,-6479,-4534,-1007,-644,956,-1811
2391,-1608,4691,7808,-1478,-14,-1358
2392,3734,1288,7754,940,1214,-1906
2393,6913,143,5974,1767,80,-1036
2394,-3514,7586,7002,1841,506,250
2395,3320,1890,7493,-1090,-1617,429
2396,4643,-819,-2984,-66,-721,-577
2397,-2107,-6076,-827,-1037,145,379
2398,1104,-3349,206,-520,-459,-182
2399,-1901,-987,-5731,925,-839,1215
2400,851,-6267,-453,226,-1092,1176
2401,6065,-6285,-1532,-1314,1571,680
2402,6091,512,-6784,1923,342,477
2403,-3855,-5636,-3658,59,-777,-474
2404,-1440,4789,-1543,-1026,-1030,-1714
2405,-2315,6357,7087,1000,1588,-233
2406,140,3081,-2476,-1444,1416,1407
2407,-389,1078,7292,-1156,-360,1182
2408,4449,2824,-7323,1054,-839,1608
2409,3312,771,4297,-549,-1096,-663
2410,6502,-7766,-7947,-1129,-206,220
2411,6127,-2295,7715,-1893,-1015,-882
2412,-2016,3619,7547,-304,-1125,1386
2413,6080,3777,1412,-504,-143,-1097
2414,799,-4441,3170,482,-684,430
2415,596,985,6589,623,-729,405
2416,-3813,-2000,5928,1420,-540,-1251
2417,-475,7085,-5084,304,-373,-776
2418,5814,-6585,-1716,258,865,671
2419,-7309,4321,2072,-189,-1465,-1115
2420,-2731,4032,-2866,-342,-43,1244
2421,-495,7132,1786,-89,257,1074
2422,1686,-1284,-3997,-889,-1087,-1357
2423,-4579,-5227,4267,-15,1497,1032
2424,4012,-7789,-4610,472,-322,284
2425,4634,-5850,-1061,1116,-1236,-674
2426,-5287,-3147,952,-790,-1649,628
2427,-5760,-6898,-4375,1529,197,-554
2428,226,3588,6979,178,-1698,-1976
2429,-657,-4171,-1858,-351,1807,-1063
2430,5833,-4430,2874,1614,-848,1504
2431,-6595,3745,6689,-1909,1566,-356
2432,-2812,-5577,668,1130,-631,1706
2433,-6993,-7668,-80,467,953,173
2434,-6870,3464,-6837,934,-815,-1650
2435,-1451,1194,5,514,1341,-1870
2436,-2724,-5726,7214,-160,-202,1170
2437,-5386,7646,278,811,-967,-1820
2438,-7451,7429,2680,-24,-1677,-1765
2439,537,-1632,-7320,-552,767,-154
2440,2700,1115,-4569,-720,280,1533
2441,3104,-2801,3411,-1274,-237,1696
2442,479,-6543,-6824,-1544,1928,377
2443,7108,-2844,-4365,1603,458,-1135
2444,4232,-2583,5866,-1563,169,-226
2445,2478,-6808,-7454,1740,1261,-18
2446,7956,-2525,-4266,-129,1966,-129
2447,6517,657,5636,-1947,-1546,1680
2448,6712,7597,-7924,-1825,851,-707
2449,4654,-7168,6963,-1121,-505,1848
2450,1889,-5776,-3388,-644,1502,-631
2451,3618,-6778,5783,1281,-1248,-1546
2452,6315,-3461,-7143,948,387,1035
2453,-6687,-2652,662,-475,531,-1567
2454,4621,-7738,6427,1623,-85,772
2455,-7029,-4905,5326,269,1760,1888
2456,-4076,-6937,1033,1353,356,-935
2457,1380,1551,3981,564,-1784,-718
2458,6824,-742,5571,408,-1008,-558
2459,4569,-241,6708,1238,-1452,-1286
2460,-2322,6244,-2269,-595,-684,1056
2461,-7137,2517,-6672,124,-335,-652
2462,4510,-4546,-6791,1830,1513,-701
2463,-2014,276,-7102,-1067,-1711,-498
2464,5662,-5728,6159,-961,215,1900
2465,2229,7006,-6593,-1187,792,-1492
2466,-7071,-5641,-6022,1290,-1198,-749
2467,-1235,-1197,-7270,873,1863,-1887
2468,6388,5663,7243,-205,220,-1782
2469,-2117,-2006,1564,-384,553,184
2470,-27,2903,-1465,-239,-1271,896
2471,-6929,1334,5231,726,361,-495
2472,5824,-3434,7845,-1360,-1618,1656
2473,6935,-2670,-802,-1717,-474,374
2474,42,1753,-7266,1464,305,1744
2475,687,2450,1328,-437,72,-1862
2476,5332,-326,-2140,-682,-1040,-153
2477,-7046,-1192,7369,1195,948,141
2478,-6332,-1637,6532,243,531,-620
2479,-4611,-3871,-98,104,442,1417
2480,-6031,3574,7862,1944,-10,1150
2481,-1433,-5278,5517,-563,1275,1077
2482,1171,-7513,5792,473,-1274,1033
2483,-371,6666,4295,108,1292,1715
2484,37,1946,-1706,773,-993,1309
2485,-3244,6976,3452,1047,-1630,1780
2486,-5560,-4382,7249,-734,175,237
2487,6061,-1858,5981,208,1469,-230
2488,560,3793,-5822,-604,879,937
2489,-7685,-7051,-6930,1003,824,1728
2490,-6775,-314,7490,1369,1583,-409
2491,-4133,-6704,-1876,-638,1771,-163
2492,3988,3030,2289,718,1701,894
2493,5582,-3370,2375,1107,-1290,34
2494,892,-1754,6074,-1667,1280,-357
2495,-2552,-6665,129,1340,138,861
2496,6694,-3887,-499,1207,-1799,322
2497,-2497,-3505,-6340,-1989,-1586,1289
2498,-4958,-3745,3178,239,-1467,1284
2499,-5012,-7912,5942,1110,782,-1983
2500,5991,-7230,5191,-1122,-1963,216
2501,7500,2124,2570,-244,154,1903
2502,5833,-5060,-7671,1108,375,1477
2503,-2809,-4553,6757,1075,376,1562
2504,3529,-7546,3184,1163,395,-853
2505,-2902,4226,4366,1617,-987,497
2506,-4430,-6386,4258,-947,926,774
2507,-4174,375,5573,-1183,-136,-325
2508,3562,3584,660,1639,-1016,485
2509,7382,2451,-3795,1257,-988,-1585
2510,7394,-126,1367,-1665,356,-1594
2511,-6989,-6922,-6026,-1465,1601,-1229
2512,7576,-1833,-6928,-990,1004,1719
2513,-5221,5133,-3598,166,-35,223
2514,6017,-7614,-6810,515,1648,-1985
2515,-3301,5359,7905,-454,-1883,404
2516,6026,-4450,4153,312,225,-1956
2517,4424,-1214,-7118,-1799,1838,645
2518,4685,-7706,4626,-1423,1751,123
2519,6350,-6219,7179,441,-1261,827
2520,-3644,-6706,-3847,1960,-180,815
2521,506,-6712,-1568,81,-1939,-594
2522,-4418,-376,3412,-1942,1434,903
2523,-4897,1706,-7555,-1618,1979,-1972
2524,831,-6711,-2924,556,975,-949
2525,-5112,-4179,2342,1674,-116,-231
2526,2370,-7809,-4833,1044,954,1894
2527,-1825,5882,-6448,1504,1694,766
2528,6190,1806,-4116,-1270,-1627,-1015
2529,3934,-4617,2609,-1711,-594,-199
2530,781,7562,2676,-1117,-1079,972
2531,3161,1725,7440,-1651,-1016,1977
2532,1431,2519,-5554,121,-1859,-441
2533,4061,-1818,-5401,1370,1780,-1685
2534,2799,-4264,-4669,1614,-511,152
2535,3079,-713,-7190,1752,8,-1200
2536,-259,-6973,-1231,1773,1159,-1415
2537,1271,-2061,4519,-1168,-1000,-451
2538,-7257,2307,4753,-787,331,-14
2539,-7269,2520,2880,-639,-1318,1210
2540,-2601,-575,3452,697,460,1849
2541,-2881,1763,-164,-1607,948,-717
2542,6217,1951,1785,560,295,1908
2543,3092,2296,-2814,1404,-1521,1323
2544,-7681,4744,-479,-1501,1884,-1172
2545,3965,-4608,2377,-343,312,-1861
2546,-5157,1327,4658,-135,-441,-130
2547,-3478,3087,-4257,1502,-1530,346
2548,-1914,6061,2137,1373,-215,716
2549,-1408,-1283,-3560,-1863,-1679,300
2550,4621,-1480,3840,-1354,-1659,629
2551,-6852,5972,-2866,-250,1266,-684
2552,1944,3656,5832,-1884,-697,-1736
2553,-602,-558,271,149,-249,-1253
2554,4024,-2268,-2593,-431,-1170,-654
2555,2451,4970,3697,1895,-287,-871
2556,-617,1159,-307,132,1898,432
2557,-2918,2158,-5347,67,-306,-784
2558,3873,-6936,-839,-338,1609,750
2559,1153,6232,-6843,1327,-1135,-1907
2560,568,-4574,4272,-275,-493,92
2561,-1446,1416,1411,1784,264,15
2562,-2482,-7458,-7701,-740,246,1896
2563,1031,93,4654,-712,329,-265
2564,1519,7102,6590,-1492,-901,897
2565,-3890,3266,-1279,1708,-489,539
2566,2084,-5254,4090,1007,-1227,180
2567,1324,7241,4522,-754,-511,-1959
2568,-1295,-4664,3523,-768,-400,963
2569,-918,-1754,-7630,-963,-1287,1458
2570,7494,5744,-2587,442,427,541
2571,3963,-6128,-4866,150,-1848,-983
2572,-4797,-330,-1938,1210,-873,1568
2573,7438,-2410,-359,490,1464,1847
2574,3829,6590,1232,1208,-451,-460
2575,3281,5688,1079,-1157,-61,433
2576,-7018,1869,7830,-1904,-1596,415
2577,-6791,1494,-6594,-1044,-303,1046
2578,6400,-7949,-4577,-1012,323,-1498
2579,2234,-402,-2841,1477,-387,1361
2580,1797,2780,-4126,-1906,-1276,883
2581,-1061,415,4287,-1266,416,1651
2582,-793,7112,-3653,451,1752,-1885
2583,-4278,5735,897,-688,1062,144
2584,-5141,4386,3394,265,1877,-1821
2585,2921,-3037,5712,-1540,-1953,-303
2586,-4387,-7934,6292,-360,1907,-1348
2587,-6849,-3323,4515,-1342,-717,-970
2588,3120,7755,-2038,1812,614,1462
2589,5875,-4980,-7099,-1957,856,311
2590,-2582,7187,-2844,902,724,-1188
2591,-4740,1003,-6249,-1058,-400,-934
2592,3634,2401,4233,-1948,655,1370
2593,1499,-4413,4866,-1437,1865,1334
2594,-3141,3495,3744,-1752,-1457,1673
2595,3296,-7161,-6436,828,1599,1447
2596,1470,670,-6214,-78,-888,-1778
2597,-6871,-2267,4659,1120,-617,-1752
2598,-2902,-4702,-3065,606,-632,656
2599,350,3028,627,-1744,950,-1352
2600,4746,-1167,-5672,-1407,-602,-1418
2601,1273,2161,5048,-1936,-946,1709
2602,6250,3780,5630,-1577,412,1714
2603,6606,3696,-843,-1567,-910,-692
2604,-4782,4758,-1702,261,-304,-633
2605,7765,-5374,7650,87,-1637,839
2606,-6352,7166,5516,502,1281,-1008
2607,2716,2755,5591,-979,370,-174
2608,5140,1464,-5858,-582,-940,-569
2609,-7929,-7081,829,-688,845,839
2610,6744,5174,-1134,833,-1411,-344
2611,3025,-6972,-6409,918,1301,198
2612,-1171,-2545,5436,-1051,1220,-1640
2613,7632,-709,-4787,-1757,-784,-1735
2614,5915,-5542,7656,1013,-1800,1979
2615,2337,2709,-4970,-1746,-1981,-744
2616,585,-2620,4227,-696,-1167,1485
2617,-4648,2487,-3320,374,36,-1888
2618,-5655,-5929,-4863,-1229,-1210,-866
2619,1070,-7721,-6605,1528,-756,1478
2620,-5754,-6228,-2647,401,222,-1883
2621,-746,176,-6004,-385,-977,-434
2622,43,-2380,4297,332,302,1832
2623,449,-3948,5640,959,1998,-176
2624,1196,130,2478,-474,-1666,1236
2625,4990,7656,-794,-1877,1403,-181
2626,3063,2417,-1973,-604,-813,-469
2627,7626,-34,1777,-856,794,-1397
2628,2582,3183,7875,-1538,-113,1255
2629,777,-5373,3268,-544,-951,1918
2630,-7883,6754,-7967,219,1656,59
2631,2885,-1299,1311,-1148,-392,-1664
2632,6353,-7290,-3444,1056,-1455,-268
2633,-5550,-6943,-7915,-376,479,-1258
2634,-5567,6238,6931,499,-166,-151
2635,6372,-4089,6322,873,-496,1827
2636,1271,-2411,-3069,1518,1196,1698
2637,-688,-2581,-2565,-382,710,-301
2638,-4213,-4799,5701,1486,1840,1528
2639,4554,1915,3304,-187,-733,-745
2640,5488,6361,1870,840,1830,-1565
2641,-1345,5694,-6824,-1668,-1413,1643
2642,-1837,-1773,-6341,397,1999,-1606
2643,-5730,-4960,-2977,1340,314,-16
2644,-6161,-4137,1174,-577,76,507
2645,-2100,-5263,1439,-380,-1265,1379
2646,-3174,4141,246,214,-1756,1361
2647,-7428,2381,-5020,610,-328,-1771
2648,-7729,1536,6393,-1329,-557,700
2649,-5839,-270,4751,967,-383,1253
2650,4866,4751,-6276,1664,1087,775
2651,5005,4032,-676,-422,-1805,-1017
2652,6299,4572,5337,-540,673,696
2653,-3953,3556,-2915,-275,577,-1705
2654,-3663,-624,6094,-1487,879,-1736
2655,7181,-7965,7450,1974,682,-66
2656,-4372,1998,-3258,-1693,502,1722
2657,4023,4998,2361,-1061,89,-994
2658,-2968,6618,-592,-330,186,290
2659,3472,6410,-6846,93,1670,-1135
2660,2863,-4943,6344,-176,664,-1982
2661,-4858,-4111,1531,1886,-1396,728
2662,134,-4006,7877,-635,258,867
2663,3331,3899,7390,-1950,-444,-1336
2664,-2779,-7250,6757,519,1901,951
2665,6775,4252,-2881,-1977,692,-1429
2666,2494,-7828,-1956,-772,872,-425
2667,-7384,1746,-526,1096,1378,-1370
2668,-4702,5781,-2775,1116,59,-1482
2669,6244,3677,3657,-1310,-715,-1369
2670,-386,-1213,-5405,979,-321,61
2671,-502,-120,-6065,-1692,902,-947
2672,5213,-183,-2745,8,-841,-1947
2673,3751,7600,-3352,641,1745,598
2674,-4265,-7208,5701,-1968,1943,1598
2675,4400,5497,-2429,-1518,574,421
2676,-6277,-1137,2887,-1682,633,786
2677,4411,1876,-6941,-1907,-870,1287
2678,6385,7375,6937,-139,401,-1491
2679,2079,4703,-4711,281,-727,1332
2680,3805,-677,4279,405,1684,1127
2681,-7545,-2941,-5018,1585,601,-846
2682,-4461,-7212,-758,-226,624,1802
2683,7334,-805,942,167,-711,-1014
2684,1917,5689,621,-1767,1091,-189
2685,-1266,6156,-3409,-1598,-1601,418
2686,-1044,-4635,-2586,-639,321,831
2687,6459,-7405,5748,-1392,-175,10
2688,-2217,-319,2111,284,81,806
2689,-6524,-2737,-7789,-715,-750,833
2690,7252,5755,-7639,329,-554,925
2691,1101,-7826,-4173,-1543,885,1963
2692,5283,6248,-1570,-1075,-1398,567
2693,-4909,-2960,5946,1967,-318,-1915
2694,7438,7485,-7739,-196,-1085,-1592
2695,-4127,-3898,4774,1630,1955,-354
2696,2537,-1452,7523,-699,-347,1732
2697,2960,1120,-3132,-462,-1783,-1527
2698,7162,7581,1982,-592,-231,901
2699,5288,-6150,5644,1371,1748,-598
2700,309,-2112,-2197,-1394,-771,24
2701,4874,907,-6615,971,-458,995
2702,-5470,3007,-7583,619,-1118,-1902
2703,256,-2153,7602,1130,-1196,1110
2704,3614,-5577,-6115,1572,-329,378
2705,6351,-7844,5307,-1506,-1869,-328
2706,6199,-30,-5600,1959,426,-332
2707,-1364,-6929,-245,1989,1168,-1859
2708,4134,7957,4471,-834,-1278,377
2709,3480,3721,-805,-1472,854,1467
2710,2741,2202,1457,646,1884,292
2711,2146,2976,1322,-883,611,765
2712,-3764,2300,-312,-996,1968,226
2713,1083,4602,-6304,-1224,-1141,1684
2714,5702,-1656,-7981,-304,1046,-1656
2715,7657,5763,-6343,951,-1624,-1399
2716,-7390,5050,-3970,-224,-503,1754
2717,4799,6057,-2960,1139,-1710,-1419
2718,458,-3408,5755,-1466,603,941
2719,5518,-4569,3263,-206,1649,797
2720,-6451,6506,-3208,849,-922,-872
2721,5658,4756,3172,-789,1455,856
2722,2274,2310,-5817,-787,-587,-393
2723,4776,7567,7285,-761,-129,-1458
2724,1945,4602,6468,893,-1071,-533
2725,-4677,-6859,3884,737,-1131,-1235
2726,7907,2194,-4706,1892,-1768,863
2727,3079,5008,6100,190,339,687
2728,-7750,-1331,-3061,-1161,1202,-1504
2729,4217,4390,1297,-229,440,1537
2730,2857,-6727,-1475,-1631,-228,-213
2731,3023,4674,7720,-1428,-1902,1953
2732,1451,2700,1691,1477,-1581,-1318
2733,-2776,-6339,-2662,1993,-725,-412
2734,3997,7482,-7471,961,1579,947
2735,5717,7896,2744,1914,1031,-1202
2736,2580,1183,5446,-166,1989,-1902
2737,-1181,-5142,3142,202,-894,556
2738,384,-7234,-7723,-1115,-1910,624
2739,-2787,-7012,-7890,667,-1326,-1234
2740,-7029,5404,1242,-185,-1246,-1978
2741,794,3582,6294,-1313,-1614,-817
2742,-1620,260,1022,556,1053,-1478
2743,4279,-3785,-3858,-1765,1719,1692
2744,-5261,4948,-7927,1869,1447,-667
2745,3991,6774,-5551,-1527,-630,1404
2746,7976,7544,-5482,-151,-668,1252
2747,5617,-7631,-6900,485,-228,-242
2748,-7248,-6747,3103,1050,223,1839
2749,527,4893,3970,-242,523,-840
2750,7683,836,5509,1281,1621,-1838
2751,7132,3973,-2354,-1724,-610,1661
2752,-7025,6921,-3672,729,-604,-1284
2753,5643,-7951,3194,-557,-167,1070
2754,5145,-7265,23,122,-1344,-521
2755,5194,2307,-6081,-60,538,-54
2756,5307,-5181,4839,1111,713,-626
2757,-1443,-5148,4547,-144,1826,-1334
2758,7073,2802,7346,-1630,-858,-1864
2759,-496,-4837,-237,474,-1533,1472
2760,5255,-1607,-1736,-7,-308,1401
2761,-5154,-1563,2191,127,-1803,1085
2762,-7867,-5443,-5179,-144,920,-1470
2763,-460,-2011,-1242,1230,-1668,-201
2764,-4481,-4846,3467,-1437,56,-431
2765,-5936,-730,-3049,-1421,796,1339
2766,-581,-3708,-2886,-29,897,-24
2767,-767,1376,1291,-1964,760,-856
2768,5208,-2067,-5620,1808,1349,1148
2769,4352,6204,-4620,-871,-1143,-1169
2770,3903,192,-4102,884,1292,-601
2771,576,788,-6705,-637,1271,-1775
2772,-5983,1879,-6772,-169,-485,1063
2773,-5299,-2807,2721,-157,-1007,-1571
2774,5769,4514,243,-333,-1217,853
2775,6041,3876,2448,1002,-1948,1723
2776,-5651,-3443,4178,-1052,409,-1226
2777,3668,678,-2223,663,-1633,-175
2778,-7546,-5530,-1238,-127,1926,-1534
2779,3804,-7634,1751,1822,-188,-1503
2780,142,4850,-3089,-50,-555,-1437
2781,216,-1118,-7707,1388,1479,-715
2782,3247,-134,3839,-1130,-85,998
2783,2052,5455,-3475,1263,453,1851
2784,4932,-7582,7012,374,-77,-296
2785,4688,-401,-1272,-1663,1217,-1996
2786,4711,6486,-7171,-1632,1454,561
2787,-7555,-1999,1555,520,264,267
2788,-664,-1341,7038,-203,1120,-1264
2789,-5605,-3679,4376,-1590,1716,-1168
2790,1498,-3681,2842,1505,1483,-100
2791,778,6850,-4700,-1209,-873,1512
2792,-2815,3864,-3554,1353,1988,273
2793,5014,6411,-4961,-1842,-401,820
2794,4459,-987,-965,1186,1376,-1485
2795,5867,-1849,-1723,-1154,-50,-523
2796,6050,3755,-1887,-481,-1912,627
2797,-5041,5814,6389,-349,1526,-1791
2798,-5710,-2990,5440,1458,312,-834
2799,3137,7562,2759,1188,-1902,-1742
2800,6220,1241,-2313,913,-1368,1980
2801,2613,6412,5400,-1584,-884,1637
2802,3434,-4275,-3876,-676,-1305,638
2803,-5934,-7885,-3429,361,36,749
2804,-2693,-5549,-865,1886,-1651,-1402
2805,7540,-6430,-852,-1369,-1692,-467
2806,1888,-6119,-1790,-971,-1779,972
2807,2206,4558,-5925,1715,-1115,-462
2808,6353,150,-7570,-1315,-510,-1872
2809,1329,1505,-2153,1588,-1463,-1537
2810,7635,-5035,4170,236,1677,-855
2811,-648,7137,1407,1720,393,-1013
2812,-2415,7822,-1031,189,204,-1625
2813,-7149,621,-6022,692,559,-348
2814,-3287,5408,4671,1167,-293,-595
2815,3285,3606,5759,-1497,-1205,-754
2816,-1311,-7938,-6566,532,972,1797
2817,-2331,7589,5721,-1080,1236,1052
2818,6595,6014,-6008,-1679,-557,-1652
2819,6656,-148,6421,1910,1947,1368
2820,-3957,3421,152,866,-1472,-1634
2821,-2971,2147,-2676,-1981,1084,-36
2822,620,-145,3594,-449,-489,930
2823,5771,-6366,724,272,-959,-674
2824,-282,-6546,5889,434,256,68
2825,-3430,7953,-7740,-1170,-832,-1773
2826,5901,-2272,4449,1879,-534,-369
2827,-1351,-5757,-182,939,1369,909
2828,-3856,-4814,7150,-836,-1484,1371
2829,2803,-6045,-2489,-1095,1597,-1733
2830,-7508,3911,-4730,155,-31,870
2831,-5182,-3262,2253,-1407,261,1620
2832,-34,-4835,-442,2,-89,-1252
2833,-6472,-5556,4481,813,-233,-1597
2834,5883,-7559,3498,437,-529,-1288
2835,3717,4783,7032,384,1994,-1926
2836,3016,2065,5694,-1746,-1626,919
2837,-5447,-7940,6982,-109,-809,1882
2838,-7321,-2396,2645,-1882,1849,-649
2839,-1063,4171,-5693,-243,-1383,-338
2840,3505,440,271,1691,775,756
2841,-5033,-7412,5936,75,-157,-250
2842,-6645,5780,-3534,-1525,1246,-1828
2843,-9,3943,-138,-19,90,-1967
2844,-1327,-2614,-7086,-472,-1068,-1379
2845,-6948,729,-4378,211,554,1170
2846,6285,-6188,-6825,1711,341,933
2847,4489,-6465,6438,889,251,943
2848,-7702,-3880,-4597,1000,1201,-1190
2849,-2056,5965,-1050,-1686,994,-1112
2850,854,-1950,7794,163,-501,-1632
2851,148,-2219,6041,-1986,-985,-1368
2852,-5904,-1346,-6743,-664,1237,577
2853,1327,-6266,2240,1222,885,-384
2854,1456,7856,1557,-321,1775,-198
2855,-172,1101,-2994,1001,-165,1436
2856,-1557,-3773,3670,-1106,1320,1110
2857,4228,-1358,3452,-1954,1782,1691
2858,-7702,-4205,-3495,1097,-711,-1124
2859,6964,3601,2534,657,-654,428
2860,2688,245,3172,-1446,710,574
2861,496,3309,6849,893,-601,349
2862,-5077,-3864,-4008,-1004,-921,1922
2863,-282,-2438,-7372,-1272,1844,1367
2864,4213,614,7199,1882,344,927
2865,-4409,-6021,-5985,-1753,1599,-1161
2866,-263,3695,-4257,-47,-887,-829
2867,-3895,1664,-1498,-1861,1447,312
2868,3186,4612,-1658,-1547,-836,282
2869,-1830,-5020,6408,-166,-617,-1477
2870,-504,-1108,-1306,1322,1926,-1353
2871,-4030,-7301,-7411,383,-493,-721
2872,6149,-7883,-347,-827,1721,635
2873,3880,-7141,6178,-1849,266,-851
2874,-4580,-6317,6352,412,395,-8
2875,575,-1204,-3284,-1898,1912,-1948
2876,7643,6999,-4754,-719,1868,868
2877,5550,-7927,6852,1515,-517,-1951
2878,6687,6716,1741,-730,-1026,-1279
2879,-1149,-1158,-5060,-1654,1549,-1235
2880,3702,-2740,3976,-597,615,-1096
2881,-2580,-984,-5662,215,-457,-1170
2882,6721,-4519,6780,-560,1507,-1918
2883,-7180,-6922,-6280,1397,395,1068
2884,-4282,4796,4743,-1682,1253,1555
2885,3075,-7350,6881,-1171,1737,1526
2886,-4776,-4470,-2760,-1899,165,-1675
2887,413,6882,3959,-1123,-854,-118
2888,1923,2543,-1431,-613,1868,1753
2889,-3879,-2776,-5226,1872,-503,-933
2890,-3871,122,-3501,-205,-1559,-689
2891,-4042,-7135,-1255,-627,982,1598
2892,5854,3655,6716,1519,-553,282
2893,-1477,-1056,2887,-1433,792,1052
2894,6095,-6680,5566,500,1223,1859
2895,6242,5573,3057,1959,1847,-56
2896,-7522,-6605,5002,1094,-1848,128
2897,-226,-1124,4921,-1370,1526,1054
2898,-2887,-4523,1767,-1321,-1401,-1880
2899,2185,3514,4774,40,226,1471
2900,67,-7346,-7899,-1820,-998,-178
2901,-7541,-4472,1449,-1165,-1693,912
2902,0,3617,1746,-695,-305,-1324
2903,-1947,-2100,4780,-1038,-405,-1850
2904,-389,-2796,-1223,1313,-1277,1183
2905,-2628,-3562,6595,-266,-676,-689
2906,-3008,4578,6121,1661,166,-1829
2907,7653,-2333,-49,1409,-278,1473
2908,-5230,-6853,5270,-1986,713,868
2909,733,5753,-3450,-1634,1561,-321
2910,-2321,2950,-5740,1808,879,-422
2911,4737,-579,-4868,-1981,-773,-869
2912,2657,-5298,-1706,-1808,1433,422
2913,-646,4947,2383,343,-187,-102
2914,-4212,2829,-1117,1871,1365,403
2915,-7323,-101,-7892,101,116,-1341
2916,1829,-4412,-2564,-212,478,1417
2917,-4628,2035,-3211,-1139,1517,-384
2918,-6787,-164,-7336,884,415,599
2919,2665,-7068,-4405,117,180,-19
2920,4680,-58,-4321,-1768,-1527,1376
2921,5913,-1149,-1040,1844,1205,1473
2922,-7979,-6981,7307,-1261,-39,145
2923,-4289,3832,-3984,-1762,-589,-1224
2924,-824,-7922,1547,-1519,-1477,1900
2925,-6516,2705,-4510,1600,1809,-462
2926,2578,-1122,4070,-1776,328,1335
2927,6338,1638,2219,-306,-845,1592
2928,-2237,-7581,5064,642,-1096,-1054
2929,-7927,-1383,2286,-1054,1323,-1850
2930,-3923,-2202,-7103,819,1312,-1940
2931,705,7871,-1545,799,-1114,-766
2932,3728,7338,-261,-803,-1143,-325
2933,-5739,234,-1023,1492,1386,-124
2934,6432,-4915,-7265,-1223,532,-1882
2935,-2863,-6779,-3350,756,-810,1495
2936,6632,-1358,-5588,-790,-277,-1161
2937,-6283,-5053,-7210,-570,1395,1730
2938,-5639,-2626,2513,919,-414,-1340
2939,2189,-2689,5516,-88,-489,1156
2940,-2879,5427,-2462,-1094,-1571,-1266
2941,2995,3154,-6836,-859,-779,-1370
2942,7620,-4696,-7812,437,-1929,-349
2943,-1164,2146,-4314,761,-672,407
2944,4470,-7836,-5439,-766,1843,-1972
2945,7158,-1624,-7231,843,-499,513
2946,-5252,1777,317,1833,1653,-1418
2947,-2814,3264,-404,1846,-1252,-420
2948,-1315,-383,771,-586,290,-1191
2949,-1,-395,-2407,-783,1925,1218
2950,-5304,4614,5371,364,-1966,1833
2951,-5446,659,-109,-415,-82,398
2952,6808,-4655,-7703,-317,-481,1879
2953,2185,-2411,-1648,946,-406,821
2954,7708,-6747,1489,1128,599,-1024
2955,-3635,6731,-5750,-738,-1890,905
2956,3055,-3295,6972,800,1382,934
2957,-512,6525,-6957,77,-563,980
2958,-6585,-5283,906,947,1248,184
2959,4656,2962,3704,93,388,1650
2960,5425,-6217,-1154,1571,-1250,1357
2961,6582,2002,5972,537,-88,-1219
2962,7387,-6852,-6038,1095,-366,-966
2963,-7559,-6161,357,-1078,775,895
2964,-4634,6583,-4927,1406,-410,-1961
2965,5783,-3941,1795,-550,539,275
2966,6585,-2320,-5583,-165,-1278,-141
2967,1653,-3017,2562,167,912,38
2968,-632,-7297,2443,-125,-910,-379
2969,4794,3887,-4624,1868,-1249,-1560
2970,-5535,4222,2380,-1192,1072,1436
2971,-2677,356,-7491,732,-1811,1296
2972,-2282,-2695,-1159,1548,-983,1555
2973,-2870,1823,-7940,-851,-268,-1269
2974,-4914,5916,-7901,323,-1149,-1484
2975,1226,7915,-1219,457,-1519,-1446
2976,-1748,1503,-5633,-115,1749,84
2977,-3817,184,3307,1530,1370,-1848
2978,1794,5208,1804,487,1426,-51
2979,-2628,1383,-3514,414,-1517,1168
2980,-3436,2645,6015,700,131,-1965
2981,2395,-2620,-1658,-65,-253,1191
2982,-1851,-1555,-2359,590,-1206,987
2983,1979,-5018,-1722,1469,-1753,-1792
2984,-1539,-7253,-5650,1578,1943,1100
2985,6926,-5805,6044,-1175,1600,444
2986,174,4700,3416,737,1270,-155
2987,-6883,6680,3955,-938,642,1415
2988,2160,2269,-6540,1336,-1008,-1497
2989,-5387,5327,-2422,-935,1195,-1940
2990,-3495,-7032,-3433,-1448,-764,-1370
2991,1992,3510,2482,-942,-1266,-1064
2992,-7782,490,-2044,-303,975,486
2993,-6754,-3537,999,706,79,-1700
2994,4063,-6446,-1350,-1759,-254,154
2995,1420,-4369,-462,-1033,1831,-292
2996,7818,585,3938,-753,-923,877
2997,-2040,-2817,-2901,1112,1415,-1207
2998,4134,-4637,7253,-1482,-1490,1519
2999,4642,7439,-1750,-320,573,-701
3000,-1863,-919,1491,910,651,1840
3001,5469,-927,-5619,1144,-1685,115
3002,-4459,2808,-3908,1387,1119,-1748
3003,7842,1105,-4022,324,-1655,-1424
3004,-4038,3648,1921,476,1393,-1829
3005,-2821,6270,6118,-583,1396,-856
3006,-4329,4902,-2170,-1166,-490,1639
3007,-3849,-5252,-7145,-1461,-598,1411
3008,-4895,3290,-5642,1893,1663,-316
3009,-6267,6757,4687,-59,-150,352
3010,-4155,3706,171,1374,1152,-236
3011,-5726,7656,-1343,-1521,598,-919
3012,7142,4019,-6071,1989,66,1549
3013,-2823,-1604,-4390,-1367,1197,-186
3014,-7373,1826,2485,1379,803,-617
3015,-4493,5706,6292,-554,1940,538
3016,6214,-6225,-1978,1742,805,606
3017,-7892,-4200,5302,-113,-343,-678
3018,-4407,1617,3825,630,-1175,376
3019,7207,7021,-7532,1939,-382,319
3020,-3478,-352,-2023,-1296,-420,736
3021,-4370,-7704,2134,697,-416,1719
3022,-1676,-52,1177,-1043,-1224,1988
3023,5759,-6373,3423,598,1718,-1598
3024,5320,-4479,5375,-41,-1857,-849
3025,4242,1238,-39,626,-588,-1158
3026,6764,-899,-5897,148,-1004,-643
3027,2103,-7004,1882,-1679,-983,849
3028,2041,3053,2354,173,1632,159
3029,-7213,-616,1182,-902,-42,-324
3030,-1538,5798,-5860,1558,-1464,-1349
3031,-4773,1469,698,-1719,-1714,-684
3032,-1585,5059,4538,-1549,903,-812
3033,-5076,-5463,713,1501,1856,-729
3034,283,4367,-7239,362,-252,-1712
3035,737,-7466,6706,-814,85,1359
3036,-7091,-7584,4436,1734,-1897,-1848
3037,-5040,-2174,5214,954,1542,-1446
3038,5673,-6471,6737,-157,-1750,-422
3039,7223,-7793,-1212,662,796,1009
3040,3824,-7485,-1628,414,-1515,-1213
3041,-5086,5740,1154,1577,-1917,511
3042,-3016,-4873,-765,1662,-521,586
3043,7655,2415,-102,931,-319,995
3044,-6934,-2052,302,-486,-232,1895
3045,-2625,5866,2488,-2000,1822,-1128
3046,-6488,-228,-3274,355,1552,1889
3047,-6314,-7114,-1300,-669,-1092,989
3048,1997,-1494,2953,1921,1416,-329
3049,3068,-1747,4717,1427,172,1706
3050,6202,-2000,6451,1823,-232,-604
3051,1421,-3044,4557,-193,1637,-202
3052,1059,-7717,-408,-361,-97,1870
3053,4909,7037,4797,-737,-1033,1942
3054,5293,-7713,-6801,-1843,-633,1606
3055,-7411,-3048,-7309,1068,-427,-1569
3056,3799,-1330,5484,-342,214,-435
3057,3499,-5470,3986,460,1047,1373
3058,2379,4962,-5781,1017,-467,-277
3059,6882,-524,2096,1488,1756,1160
3060,4258,4833,476,1347,948,1569
3061,3915,6470,5635,110,198,-1597
3062,3764,1794,-4342,-85,-1014,1326
3063,7846,7113,6576,-400,1012,-1268
3064,-7894,-5798,-2181,1440,-1804,1227
3065,7570,-2942,-484,-1106,-1891,-519
3066,7440,3503,-5844,-545,-1061,1814
3067,6900,-2212,-553,1124,1246,1610
3068,1120,3028,-2079,1613,390,944
3069,3815,-2700,-645,446,-1186,1638
3070,-5230,-2113,7720,-1849,-1921,209
3071,-5428,2004,2263,-718,-1106,-1263
3072,5815,873,5584,436,144,-190
3073,-7728,-2956,7389,-136,-1593,-700
3074,-7885,-2631,2889,-1442,1391,-1674
3075,-5602,3600,-1524,1324,-597,-1458
3076,-7259,2774,-2211,513,290,1772
3077,5922,-4453,-1052,749,566,1451
3078,-4142,4087,4801,940,1970,1188
3079,7064,-7669,1824,1248,1493,-655
3080,-5851,6395,3609,1887,1889,-1536
3081,-4499,5340,-622,-1849,-1100,520
3082,7298,5133,6047,1143,-48,-310
3083,5578,-1467,-677,-1461,1630,1267
3084,5543,-2850,5440,834,557,-840
3085,2599,-3530,-2491,1620,-1837,42
3086,6931,-93,-6793,1223,-1496,-595
3087,4816,2111,3844,-820,-1266,-240
3088,-2260,915,-7506,84,1289,-321
3089,7322,7312,4113,1700,1332,-272
3090,-1242,2677,-4632,1373,-978,1772
3091,3663,2717,4056,-1267,345,1145
3092,3406,7619,-2212,844,1848,-1458
3093,7077,-71,1951,-1145,1881,879
3094,-7430,2224,6020,-1435,1852,910
3095,-5574,-4424,3992,821,-404,1468
3096,888,-6469,3737,-1650,-708,816
3097,-4009,2501,1018,-1716,-709,-989
3098,5045,-1267,1641,763,-1266,1718
3099,417,7033,7197,1550,988,534
3100,-38,-5411,-3749,449,-1127,759
3101,-2200,3695,7864,273,1166,1566
3102,2591,-3352,-4695,407,1549,426
3103,3253,-363,4614,608,-1275,-574
3104,5058,6439,7233,700,162,-1930
3105,6945,570,-6991,1706,1471,941
3106,2308,4598,517,124,-1226,-1157
3107,3928,5574,-6587,-658,-116,439
3108,-27,5840,-277,1982,1610,1937
3109,-3495,-845,4348,-204,-1135,1446
3110,3201,-5060,-4916,-927,1240,-95
3111,-7656,-1199,907,1958,1430,1349
3112,432,897,2863,1375,92,-1282
3113,-913,-6965,-6527,-977,-117,-463
3114,1849,-7372,-4184,1521,-522,1924
3115,2206,1050,-2849,1322,-1633,1022
3116,-4044,-2752,-3963,-336,-1344,1236
3117,-2026,4447,6088,1895,-960,-1106
3118,1634,6905,4735,-1979,1905,505
3119,4950,154,-5779,-165,-1880,1986
3120,-6332,-4936,-3481,333,-384,677
3121,-3587,-4582,2837,-1506,-1713,-337
3122,-6036,4833,-2847,-597,266,1627
3123,-4666,4849,-893,700,-409,1193
3124,2754,5713,5108,-1657,862,1393
3125,5785,3150,7393,-187,1090,626
3126,2028,5053,1744,-1159,-1550,-1856
3127,3568,-6203,-6088,-903,-36,-1470
3128,6081,-4108,-2483,1164,625,479
3129,2046,2702,7968,449,-251,533
3130,4019,-1592,1236,59,-21,-815
3131,5346,4685,2496,118,-611,-1556
3132,-7821,4800,-1246,1958,302,1800
3133,7149,-1246,-7659,-1858,141,1915
3134,3631,7622,2365,-12,310,80
3135,-355,-311,2417,-1985,1313,1787
3136,6898,-5171,-237,861,-1488,599
3137,6269,-818,4356,-1911,-709,462
3138,5135,-3435,-1865,626,1344,-1745
3139,-5437,-5236,6715,-1334,-1084,1983
3140,3991,7593,7182,-1813,-925,177
3141,7229,-5813,-7373,950,1807,1000
3142,-4104,-1769,6800,-1656,-592,1022
3143,-7620,45,415,1611,1166,626
3144,4845,-6954,2304,-1936,-748,-266
3145,-5814,6511,-1879,-640,-816,-1354
3146,3225,-538,3265,-1164,474,666
3147,-3497,-6204,2504,-713,-1856,363
3148,-5149,-1655,-459,1916,-1563,345
3149,-7666,-505,4381,-834,1779,-875
3150,-3430,-2674,-7594,1226,879,-1759
3151,4358,-4793,-2976,-66,-1237,1412
3152,-5080,-6049,1391,-465,-637,465
3153,-3293,3081,-6313,900,1690,1504
3154,-4127,-7214,-2269,-1962,227,-1334
3155,-1346,-7729,-2618,-325,1546,-430
3156,-2206,-558,-6613,1098,-1089,-12
3157,-4022,4192,-1819,853,489,-838
3158,3260,-2252,-138,1537,1513,636
3159,-1357,5553,1393,-16,775,-1031
3160,-7128,4895,-5297,1675,94,-311
3161,-5722,705,-2785,324,315,-1791
3162,6770,4500,-4277,1349,-94,-95
3163,-72,998,-1344,594,1176,1877
3164,-1526,-7457,7723,-820,-965,-1466
3165,843,6047,3739,1381,-614,-875
3166,-3674,-3075,-3514,-319,318,-1907
3167,2019,-3782,-6140,-1049,-559,-1046
3168,-2350,-6588,-3036,472,-835,-1995
3169,-1597,-1167,-3840,-1196,-109,1701
3170,2355,-7283,-7951,-96,-1287,581
3171,3523,3714,5429,918,-415,-1489
3172,3818,-2318,2011,86,1031,-1861
3173,7538,3103,-5962,-920,1473,-967
3174,425,5834,-7827,-1670,766,-1671
3175,6998,6245,5605,-1752,403,-3
3176,6684,3552,7382,-1788,748,-400
3177,5127,5038,-5724,-907,-739,1010
3178,3336,-7743,-1608,1634,-1413,823
3179,3839,-4917,-6399,108,-833,-1675
3180,4197,-7867,6560,1103,-1823,-588
3181,-4139,1583,-5177,680,277,1829
3182,7724,-5103,-1617,-482,1109,261
3183,-3466,-6748,7816,1720,-1524,-1659
3184,-6404,-4624,3787,-201,-1459,-662
3185,4561,-4531,4511,208,-274,-1042
3186,-6439,-4247,3926,1058,402,543
3187,-3005,6282,-6778,-1748,-1762,-1831
3188,3036,3565,-2642,-1940,-1091,62
3189,-4130,-3157,4975,1083,1359,393
3190,3572,-7694,5194,1699,-1382,1644
3191,-7313,2056,-7197,-97,1629,1058
3192,-7074,1714,5816,319,-1741,-489
3193,-3028,-7544,2206,866,1769,1722
3194,2442,4930,-664,1047,846,1998
3195,-7424,-2216,809,-1111,-1948,564
3196,3392,3545,5166,-245,1065,245
3197,2697,-6764,-4718,672,-317,221
3198,3240,-4934,-4610,400,-607,786
3199,833,3604,3234,1010,-589,125
3200,2259,-3628,-5826,737,1549,-915
3201,-2512,-811,-3181,1012,941,-1913
3202,1243,7715,567,-792,270,-1793
3203,4167,-3358,-6985,-1452,225,1776
3204,-4046,306,-274,1646,-31,-1850
3205,7209,3726,2359,2,-1145,-1232
3206,191,4537,5193,-517,476,494
3207,-675,-5262,-4911,-1986,-1075,1308
3208,-754,490,7927,-1097,-432,1572
3209,-7133,-2770,7329,-1081,-52,968
3210,-3167,-2963,7370,-1419,1641,1951
3211,2840,-3160,1504,976,-822,-1678
3212,-4545,-7643,5586,1743,-1209,1868
3213,2509,4605,7399,-1922,1516,-704
3214,-393,3787,-7202,109,1736,433
3215,-4778,3689,5700,-1146,657,-135
3216,-5074,6762,-4877,-954,-1798,-245
3217,-1074,-606,6874,714,-1934,-315
3218,3129,5623,170,-1001,-1581,638
3219,934,6929,6612,-181,996,1395
3220,-606,1664,-7939,-698,594,1147
3221,2728,1698,-1520,-369,-1348,-1648
3222,6593,-1352,5949,1259,-24,-1190
3223,-4992,-3529,-6246,1525,-1665,273
3224,-2020,6524,2592,-364,1485,1756
3225,-3271,5428,-360,1647,864,1790
3226,-6379,-7967,6707,-1078,35,-440
3227,1412,-4981,-5895,-404,180,-101
3228,818,-1468,3856,-1547,290,-444
3229,-2610,-6782,8,-1960,784,-329
3230,-3381,1773,-5615,454,-89,1924
3231,2223,-1831,7455,632,1515,-1179
3232,-5457,4221,-5831,544,1747,1589
3233,3542,-1352,4115,-72,1589,-939
3234,-4861,111,-6452,-1497,1881,-717
3235,3241,6886,4911,219,1708,1119
3236,6311,2441,494,983,-1775,190
3237,5792,7143,82,-92,780,566
3238,2856,-3570,-6712,1518,1684,232
3239,-1371,5908,6524,517,-1,1814
3240,-1787,2813,6036,1,-1701,1525
3241,-4921,-1429,438,-1564,-1800,1056
3242,-6439,-7701,3276,-803,874,-1111
3243,-7521,-3716,2578,1406,-296,103
3244,1668,-1518,-4030,19,-274,944
3245,-420,-1385,-5837,1526,1157,738
3246,5725,-501,408,-1831,1266,1817
3247,7713,-2959,6745,1882,-902,-24
3248,2520,-1551,-7214,-1690,-562,1852
3249,-1208,899,7749,1636,799,-703
3250,-3794,-7491,5017,1085,1187,66
3251,-913,3030,-2174,-1905,-1408,-1514
3252,-5168,-1227,-5656,-1589,8,1496
3253,-652,-5245,3670,-549,-1349,-1348
3254,5575,4569,1132,-960,1964,665
3255,-2487,-4146,5653,-1769,-377,-1885
3256,-2207,4400,-5374,-813,-819,-1456
3257,-3862,3761,6585,-1056,1370,1367
3258,-5649,5069,4875,371,519,-761
3259,4783,-2753,5383,-1436,937,-1430
3260,-5465,-509,685,-839,1468,441
3261,-7599,-1939,6103,103,-190,-1839
3262,6606,976,1243,245,1020,1762
3263,5275,1867,-1567,-1792,1947,-90
3264,-6397,1310,6664,-304,251,1049
3265,588,-3540,4510,-866,-445,1232
3266,-407,3263,5272,-792,-1721,-1810
3267,6862,-2053,7737,1234,-972,1184
3268,-928,-7908,-1349,-1756,726,-338
3269,-7617,-3259,-2,-299,-1845,1776
3270,7546,-2371,1341,1243,-1424,-1317
3271,4125,-1655,-6211,467,691,519
3272,131,-3774,3424,-413,-699,1223
3273,-7560,-7856,-5613,1574,169,-1293
3274,-3470,2278,7714,-1897,1889,565
3275,3816,-1634,171,666,924,-452
3276,7887,6794,-7323,1417,-1768,-39
3277,-2002,5404,-117,-703,717,528
3278,3872,4224,-1150,1007,1285,1127
3279,-4446,-5842,-7359,-1535,936,562
3280,4131,2450,1006,-736,-119,852
3281,6396,7198,1272,938,-593,1124
3282,-3332,-1332,7530,1458,640,243
3283,5285,734,-5116,817,1589,1064
3284,5707,3344,-1908,854,553,1803
3285,4505,4773,-2144,-564,1032,-365
3286,1783,-5412,4607,712,-773,-1048
3287,4665,1072,3858,1924,230,221
3288,-6005,-5797,-4790,-1640,308,899
3289,-4255,-2929,-1485,-306,1734,1189
3290,5084,6498,7524,-513,1918,327
3291,6801,2957,-2966,463,-276,-169
3292,1465,2251,608,1677,704,-1715
3293,-4315,-212,728,709,-960,-791
3294,370,3166,5339,-1255,-429,-894
3295,-6814,-301,-1687,-1944,1951,-1663
3296,-2468,6578,4434,-1560,936,1002
3297,6971,1026,2834,1721,-27,-242
3298,353,1480,3497,-1866,-1202,424
3299,-3585,4017,-4302,-792,-49,809
3300,-521,1605,-6487,84,455,-1560
3301,-2704,-6637,2920,-1165,-1781,-661
3302,6866,-5555,-6288,-600,426,1700
3303,2066,-1805,-1694,-1612,1768,817
3304,-675,6688,-5141,-778,-607,1213
3305,-3533,-3439,-2622,-1713,-743,605
3306,1191,5094,-3115,1611,-340,807
3307,3336,-1773,5903,-901,815,291
3308,-3403,-10,-7163,-845,-1231,-157
3309,6395,-396,-3271,1707,31,21
3310,336,633,-718,-1627,1301,-1864
3311,2725,6361,4008,-1784,-1973,-81
3312,7334,2419,-138,290,530,-1138
3313,2267,-85,-7954,-1843,-800,1874
3314,721,-3693,2982,1271,432,581
3315,6108,4141,4399,-423,-819,1339
3316,-860,4414,-4771,1967,719,1957
3317,-474,1893,4703,1717,487,-1544
3318,-1784,-5550,5592,-497,-1847,1399
3319,3886,-1237,-3036,573,43,-931
3320,137,-7977,200,-765,-37,1866
3321,-7219,28,7321,598,425,-1615
3322,5766,7374,-5504,-223,-1224,1942
3323,3810,-3291,1638,806,432,1287
3324,-648,4203,-3871,-576,-225,-976
3325,-7239,2052,1393,475,1759,-347
3326,6542,744,5081,-1552,-551,902
3327,-5699,-2928,6349,-587,-1170,-1439
3328,-2855,-6901,-2464,-527,796,-1482
3329,7599,-1712,4873,1052,-794,-1082
3330,-1629,-97,-2603,1332,-177,-42
3331,7527,7268,-5008,-808,1545,422
3332,123,-2608,6265,-1123,862,948
3333,3597,201,1251,727,756,1423
3334,5734,-3265,-3852,420,483,1649
3335,-6483,-521,3267,-634,-1326,-1900
3336,2726,-5163,-3551,-667,-982,1887
3337,5088,-2443,-5411,-273,-967,-418
3338,6264,7563,575,-891,1841,-1903
3339,5933,6803,6871,459,247,-953
3340,-7572,-5176,2841,-387,1418,-1662
3341,3859,-1537,-1214,1141,677,1034
3342,-2352,-7882,-4991,1681,-227,-1881
3343,-1895,6383,-5542,-510,189,-1828
3344,-4452,-3021,-5315,-1286,-314,1135
3345,-5172,-2945,6983,-322,-769,-1316
3346,3690,-1223,5594,-304,883,1987
3347,-2494,2947,5514,753,361,1452
3348,78,-1139,-144,965,565,-1202
3349,-403,-3612,6278,-1463,-1364,149
3350,1481,4409,5101,-1123,482,-904
3351,-6570,3864,-6400,6,48,-653
3352,-1509,2759,-1044,182,430,-293
3353,-4036,5485,-5848,1814,220,1845
3354,-2707,4834,1350,-1080,178,-64
3355,6585,-6170,90,-14,1010,-1548
3356,6588,7783,-4927,247,877,331
3357,434,-4212,-3456,-987,-499,-423
3358,3046,3504,-1047,-1984,260,1038
3359,3199,-1059,631,1047,-692,1036
3360,-7884,-6459,7790,1209,759,-268
3361,-2140,-506,6892,1616,-751,1824
3362,-2549,7310,3454,-1435,-1480,-118
3363,7796,7150,3777,-427,-1644,1669
3364,-7875,7987,5751,64,-634,-237
3365,-3533,6700,-163,-652,-1193,1079
3366,6708,-1588,2622,-1116,1796,277
3367,-1386,-5464,-3267,116,-388,-440
3368,-2812,5457,-6064,-1229,-966,574
3369,-3980,-666,4341,-723,-813,-991
3370,-2978,-7515,-2458,-903,-1731,1384
3371,6634,6377,-5671,153,-1090,-1903
