Sample,Ax,Ay,Az,Gx,Gy,Gz
0,-3432,-412,3997,-1956,1529,-346
1,-2796,-6047,-817,172,-1558,-1631
2,1036,1503,4931,1275,-163,418
3,-4625,-4117,5212,-422,-1254,-1183
4,-1233,2699,-963,1349,123,-1793
5,92,1735,5279,166,-279,-310
6,5840,-6528,5469,-489,1888,-1140
7,-1790,-4561,-2095,-328,-1170,-1391
8,-2958,-1386,-1923,-44,-420,1236
9,-4692,-330,-4672,-1388,1938,-723
10,6103,-1890,7036,-1964,-755,375
11,-4584,-7369,-4018,1298,1595,50
12,-4285,-2610,1691,-1651,-141,-474
13,667,-7123,7862,1208,72,-507
14,-7123,3848,-1586,1030,1974,1471
15,-1852,-1867,6208,1608,-1897,-688
16,-1213,6977,2513,-182,1130,1713
17,4668,5737,4840,357,1190,-1904
18,-1730,1648,4172,-1458,1937,804
19,-7866,-2903,-3921,-1067,181,1340
20,-4372,-3162,4657,-1327,962,390
21,3917,-6609,-7350,-1321,-1698,944
22,-7627,2917,-6789,875,-159,-268
23,-4004,-6886,339,-1438,795,668
24,-4268,395,-17,1920,1454,-1333
25,-1984,1110,3887,547,53,133
26,-2327,6230,5976,880,495,928
27,-518,-90,2289,-1251,-1686,1547
28,6132,4439,6226,1381,898,-1210
29,7026,1625,-4742,1458,1466,-776
30,2617,-2980,2364,1986,-821,-1999
31,5450,-665,-7752,593,-1526,-846
32,7172,1341,2432,25,1457,962
33,-3731,2462,5500,686,-603,-426
34,2269,6354,5905,-1669,406,-1920
35,-5190,55,-4595,-950,-345,313
36,-3449,-4965,5697,895,331,774
37,5334,3996,7771,77,270,-1125
38,3767,-2252,5340,762,990,1439
39,1691,-6067,431,1988,-1919,1469
40,1852,-4047,-4956,-1178,1167,477
41,-6432,-3351,2593,1028,541,1886
42,-5120,3457,-2105,-377,218,-1039
43,-5719,6787,6686,218,-1766,-1690
44,2106,-3054,-707,-1634,-350,207
45,7949,1074,-1874,1162,-1726,-1730
46,-6466,-1040,-7298,-970,-1775,30
47,-1372,-2059,7531,-151,581,-96
48,4482,299,-5048,507,687,1836
49,-853,7617,-6521,-1133,-434,-787
50,-6006,-6135,-5852,1356,-1533,1140
51,-5732,4996,-1060,-1447,-716,-24
52,-5106,-7104,-1469,-747,682,184
53,2208,-5983,6914,1213,372,1266
54,7294,-3461,-6054,-455,-1335,950
55,385,-1546,7676,-1516,-1602,-1414
56,3824,-6789,5333,-403,-1807,642
57,5961,5852,2003,1181,1196,1714
58,-3411,-5749,4928,-1253,-206,666
59,-7800,3350,-5950,1385,491,-1548
60,7167,3637,7688,1998,1525,282
61,6996,3080,6447,279,-1431,-1832
62,762,-5394,6703,1175,728,1778
63,3853,5084,1585,1920,243,-1057
64,2267,7523,6706,955,1752,710
65,-5337,807,-5516,1122,-923,1537
66,4854,4204,-5584,-1662,-255,591
67,404,5622,7964,1020,-1646,905
68,2448,-7377,2348,173,1375,-1130
69,4701,4938,-6857,-578,1059,-1139
70,-6247,7346,-7244,1308,1071,1222
71,6780,-3001,-3919,519,-981,-285
72,-3148,5097,1873,1205,-1496,-1277
73,4806,-4156,7213,52,240,77
74,4185,-132,-7941,-858,-1914,-1591
75,5729,-7755,4247,436,1586,645
76,-7463,-733,4207,517,748,-955
77,-7538,-6100,7037,-1969,1522,-1839
78,6977,5131,-3273,-1742,1274,1843
79,-3956,3557,6976,821,686,564
80,-1593,-6116,1754,-280,1402,1940
81,4605,4110,6010,1268,112,455
82,3591,2222,92,-306,-1097,-1657
83,196,7244,-5220,-1695,1693,-1255
84,6935,3710,1475,609,-1325,-528
85,-6788,4923,4006,-1032,-167,152
86,-1156,-2213,-2571,-1198,-359,553
87,-3561,7331,-674,-581,-1042,-217
88,263,4774,-533,412,1936,1911
89,-2456,2240,-7617,-1767,234,-452
90,5071,-3185,-4282,-1586,1851,186
91,-6069,6587,703,1249,1418,-140
92,583,4361,-3409,628,1520,1928
93,7774,5721,222,1204,-1787,1910
94,-5045,6908,-2607,1242,-594,380
95,48,-4766,-293,-240,-352,-1267
96,-6986,7108,6043,-1762,-1977,-1946
97,-7401,4589,-7691,-1611,-1758,1836
98,-5530,2061,3202,994,-14,50
99,463,-7047,7160,996,1016,1227
100,-537,-7598,6962,-1923,799,-936
101,840,-1096,2652,1467,712,-1306
102,6141,-5104,-2851,-86,-1656,670
103,5755,-5365,-1262,-1249,1811,-668
104,6534,-6445,1579,-704,-1065,1879
105,-1940,4804,-2673,-1914,1045,-116
106,932,-4501,1228,-292,217,-446
107,-3889,4000,-5388,-152,1507,-141
108,-2819,-7837,55,1932,901,-1370
109,-4589,-4892,-6172,1424,-503,617
110,6011,214,-4307,-1808,-783,-1773
111,-2792,2414,-373,19,-95,1667
112,-3989,4773,2856,-249,-1337,1162
113,-4334,7794,-4804,399,-1974,-1150
114,573,4855,-760,-1385,-1190,-945
115,7566,-7513,-2577,-726,1207,200
116,3674,6632,5555,335,237,599
117,597,-143,-5424,-45,433,8
118,-1043,-5883,5560,1737,-1157,1859
119,-1752,4570,4696,994,1856,-89
120,3427,3144,384,-1360,1119,211
121,1798,-2506,724,-1945,-1549,-1060
122,-5008,-6481,-6821,1779,1519,1771
123,-1214,-7030,4584,1273,1168,89
124,344,5863,4606,1003,-750,-84
125,-3197,-2426,4589,1824,1104,-1665
126,-5887,-1013,-3130,-1293,1425,1005
127,1069,-2913,3675,1653,585,687
128,7658,-902,5569,988,1498,-1142
129,4584,5230,5822,1975,1758,647
130,-1579,7656,-1142,799,31,1811
131,-2991,1974,848,446,-1510,-1460
132,5401,6120,6010,-1431,1147,927
133,521,7519,4440,-100,32,-1039
134,-2331,2310,4267,1050,-206,285
135,-6483,-515,-5185,1754,-485,1247
136,1103,5439,-6493,643,-1488,646
137,4628,4211,4184,-1178,1419,66
138,1744,-5042,-1282,1469,-1570,-1888
139,1185,1170,5151,1794,588,-468
140,-3779,4123,7344,-110,-498,211
141,-890,-6485,3588,-1776,-1756,356
142,5792,1741,-6710,-1343,363,369
143,2549,7220,962,-1792,959,-452
144,3391,-3299,-3224,703,-1606,1426
145,3288,-2131,2473,4,599,-1545
146,3703,-3147,-4701,1007,1835,1128
147,-7612,-2581,4074,1008,-1147,-1880
148,7150,-2189,5661,842,-1290,790
149,6163,1839,7990,-468,1241,606
150,-6794,-7586,-3838,709,-131,-855
151,3823,88,806,1920,-1838,-491
152,-1697,-7866,-7638,1358,587,886
153,-3710,-6352,-5665,1554,-229,-1165
154,-956,-1934,5301,-295,16,-1399
155,5440,2374,-2437,-1639,-1445,196
156,-2684,671,6380,-1644,54,1682
157,1236,6308,-5763,1533,-131,-1250
158,-7700,-2386,-1977,1323,1136,795
159,-4812,4994,-4740,-1800,-1844,470
160,3709,-2595,5981,-1383,655,-1494
161,-1634,7416,-907,1377,1636,643
162,-3534,1110,-6611,1711,-854,-521
163,-7056,-7108,-1709,-211,943,-1174
164,-6036,4556,-4935,333,-165,-1915
165,7723,-5416,1422,552,-910,766
166,-16,433,-1909,-1070,-205,1870
167,5806,-6824,3195,539,894,30
168,-3504,3458,-6215,549,-850,-1523
169,7922,2424,-6771,1336,-1337,-274
170,-2164,1297,-2829,1907,-1888,-835
171,-6751,5556,5652,1449,-1258,-1712
172,6226,4168,3900,1166,-1028,1550
173,1091,-235,-6281,476,-1156,-402
174,7491,6059,3548,847,-420,-1636
175,3369,3577,1964,-1682,-571,-911
176,6984,-3538,-4804,-1464,-843,298
177,634,6621,624,-650,-52,-248
178,-3686,-1254,-3839,-869,1648,-1156
179,-3080,1023,-5017,-1824,96,-1782
180,-7451,-1985,3426,252,985,-1846
181,7924,2047,-920,-530,-1939,-72
182,-551,1386,-7184,-1868,-518,1863
183,-7021,1707,5291,1015,1764,1280
184,-4645,3011,-3210,788,398,-1049
185,-4166,-2629,1616,-1653,330,-1841
186,6582,-7090,153,105,1572,455
187,876,-4869,-7427,1929,1147,1791
188,5367,6545,-6946,1381,691,402
189,-3311,-1349,-4368,-208,-463,-452
190,-7408,1012,-7517,-1772,1894,1223
191,-7786,4808,-1103,370,1468,576
192,6081,5832,6686,1792,1338,-1725
193,2320,4283,6995,-585,-1562,-1125
194,3426,5583,-7,1051,-1769,876
195,3410,6000,-332,1373,-1896,-1238
196,-2979,-4221,-5969,1696,-985,-1718
197,4770,-3256,-7537,880,-1271,1154
198,2913,150,7683,1268,-895,-1094
199,-4110,3552,-3916,1435,-102,-1300
200,4301,-5137,-2540,-1637,1115,946
201,2054,-7229,359,755,387,-301
202,6455,-6861,483,1872,1375,1261
203,6780,3190,6271,-1294,1291,732
204,5726,5576,7890,20,466,1185
205,1888,-2147,5332,-1380,801,353
206,-6143,-5669,4604,-1080,450,-60
207,-2936,-2828,-1347,-1053,-945,822
208,344,-6547,5241,-232,1040,-147
209,1889,6565,-7916,-1276,577,-966
210,-7752,-2679,-6029,438,283,-886
211,-5587,-7734,6122,-1512,473,-125
212,2758,6694,-3146,771,337,951
213,-5680,-740,126,-1220,-796,1947
214,-1351,2560,5258,1512,-319,-1720
215,1850,7501,-5308,1645,1623,553
216,-1467,6023,2913,1447,1203,-942
217,-7063,4768,-6746,1078,1342,-684
218,1905,-7971,7187,-1876,895,-864
219,-2300,-6301,243,1844,-1956,926
220,-4854,3913,3677,-481,-58,-1132
221,-4342,4757,-3515,19,1339,-1488
222,-306,211,-2112,958,1244,605
223,-3221,-3768,-4374,856,1488,918
224,-6180,3233,-1587,365,-1591,-384
225,-6121,-4581,272,349,854,1124
226,6830,1660,7168,-1451,-1302,-974
227,-7844,-7838,4929,1947,1951,1335
228,1139,4920,6672,516,-1331,-1912
229,3050,3800,-1041,-1640,1905,558
230,4609,-4580,786,325,248,1434
231,-2748,-6477,-6690,1868,-684,-1433
232,7479,-5327,-4646,-159,-1136,-1973
233,-3550,1378,-7688,-1410,896,1687
234,5234,1047,1312,-1429,1439,1478
235,-3696,2909,-1033,-46,-1367,828
236,6502,3152,3078,-415,1415,1902
237,-5852,7996,-3366,538,809,-1152
238,6514,6763,6196,-1656,1680,1879
239,1666,-6884,5338,-1878,-777,-988
240,-971,-1421,-5738,626,91,587
241,-55,-5134,97,531,1899,348
242,4403,-2931,3538,400,1214,696
243,5080,-3087,-2090,963,1775,1234
244,-7586,2564,7447,579,1570,-463
245,2172,4696,-405,627,-607,-1532
246,4283,-7391,3244,1347,862,-796
247,-5053,5776,-3464,1375,-861,-1541
248,-2988,3657,-5623,296,1735,-1302
249,1405,-7317,-1911,-1157,-1048,1908
250,-5788,-2202,-4143,1680,-241,-69
251,-4576,-5705,-4497,-1033,1383,1909
252,-2188,-7822,7576,614,-1000,-433
253,-70,7954,6918,1072,-143,68
254,2206,7275,-4535,532,-1695,-1792
255,-7297,2559,5655,-35,-1305,1571
256,2429,-4561,-7081,-1660,18,1224
257,-2212,133,5339,1830,526,188
258,1582,-1622,-7901,397,294,1721
259,6853,-3356,6791,-691,301,1484
260,-1010,7898,5698,-830,1547,1912
261,6191,4811,3832,815,-287,1917
262,-2891,7237,-2675,853,1608,1974
263,6797,5728,-6587,-770,825,1401
264,-1192,-7117,-6038,193,-793,-1620
265,-2359,-190,2967,908,1307,-1086
266,6799,7733,-7546,540,1373,456
267,-2439,-462,7029,1376,1613,173
268,4127,815,-7306,1001,932,-1080
269,-1629,-854,-53,-1225,-373,-1742
270,144,-7428,-1001,1717,610,-1255
271,-7780,-6052,7460,-1306,1772,-20
272,-4269,1967,-7821,1757,1642,-1235
273,2061,98,66,-1344,-183,1770
274,-921,-2,2559,-1321,1108,730
275,-5100,7119,-1476,-847,1623,-1900
276,5908,6376,-5751,-1248,-1955,-322
277,-4111,-3574,-1241,-1806,619,-58
278,-2950,-6466,3387,-1439,-1247,903
279,2597,3794,1364,-1580,-1944,-106
280,-6109,-786,-2258,298,-1044,731
281,-6069,-4081,5082,521,1237,-617
282,3163,-3428,-7677,-285,-231,763
283,-6050,-3000,7946,-931,1123,-44
284,-7879,6886,-5478,788,959,-1582
285,-3595,7232,-1914,-754,-1522,-903
286,-1371,7619,7544,1442,1676,1321
287,4328,4411,2422,-1107,1240,-1127
288,7928,-1473,-7857,1561,-1907,-1818
289,-2409,-3075,3291,321,1903,776
290,-1602,7578,-469,1692,-1934,696
291,6126,-5980,3799,255,-1594,-669
292,6594,-1142,7446,1054,-695,-443
293,-3911,5597,952,169,786,254
294,5958,-1435,-6923,-1603,224,1463
295,-2854,2483,-7162,-850,1769,963
296,363,-3224,-768,-1477,-902,638
297,1212,-6896,4807,1938,1815,-58
298,2743,1754,7792,617,-320,-189
299,2201,6420,-7541,-1384,-310,-1613
300,-6854,-4721,90,1098,-1923,1576
301,-6048,2815,7372,-1187,505,1362
302,-3740,6519,6269,1157,74,486
303,4152,-7764,3725,1610,-1013,-854
304,-5225,-5841,-4232,-1884,-942,1449
305,2143,-7255,-2835,1581,1607,367
306,6062,-768,-5565,-858,-531,-702
307,-5503,-58,-6024,-1684,-1564,-21
308,-1942,-2225,-7344,-1285,-1695,409
309,-3995,994,-3794,-656,197,-71
310,-7257,-2239,-7477,-846,-1889,1602
311,3291,-917,-7187,850,-1938,9
312,4333,-6939,-1923,-1271,-225,-1619
313,3564,-7285,-7254,889,-1854,-1189
314,7365,2589,2885,312,-1728,-767
315,-4279,-3778,-3943,563,820,-875
316,6131,3168,-2827,-559,1207,-830
317,-1233,-3678,3951,-1173,-1496,-420
318,2835,4806,-7702,951,-23,-1878
319,185,-7782,-3915,982,1552,-1557
320,-4153,5864,3738,-318,1208,1495
321,-5094,-4224,-4341,-607,1652,1254
322,-2155,-7472,-6875,1540,-592,-232
323,6461,-1774,-3221,1349,266,415
324,-7552,7053,1601,493,1057,-1597
325,1473,-5308,-2828,-1770,1898,270
326,6407,1883,-2256,-77,988,-752
327,-926,-2245,-3898,1976,437,849
328,-244,1828,7725,1413,-529,1848
329,7308,1407,6547,338,312,751
330,75,-6579,4208,961,622,1181
331,-3601,4477,4529,707,826,1113
332,804,-1821,1625,-1534,-847,301
333,-4133,-1831,6106,-539,1319,-1117
334,-160,-2804,-3634,540,-1280,-608
335,-942,742,-633,806,227,1563
336,-5047,4800,-3930,552,-253,1319
337,2520,-3706,-1402,-1414,1764,1761
338,-1072,929,-2986,460,1718,1342
339,-5461,4585,5983,838,-1857,-282
340,1386,3626,6626,1142,-882,-1098
341,-6052,-1419,-3784,1420,179,-1541
342,-3724,-2634,5389,-450,-628,-154
343,3503,640,-3874,849,-628,-1189
344,-5135,2556,940,-363,-150,-1298
345,5831,6493,-4436,1828,-86,-375
346,-3631,1703,-6316,1236,-90,-820
347,-2885,1702,3447,-893,-1949,1558
348,-6484,-2757,406,322,1542,-1503
349,1309,-7391,2773,-926,-758,1097
350,-4005,7929,5616,-1968,-504,56
351,-6317,-6243,140,-1006,-1901,1649
352,6492,-3695,5757,-1693,1195,1473
353,-5798,-2544,-7698,1385,-1517,-1425
354,3534,-6735,-5297,-803,-1309,352
355,5576,-2394,135,1524,201,602
356,4599,-3097,3870,1761,-1763,-1463
357,-515,5227,6123,-159,605,-825
358,-911,7752,-5388,206,1782,-900
359,-3917,3931,-3512,312,-1255,-432
360,-696,6740,2658,-433,-60,1760
361,6142,7121,5788,792,749,1418
362,-4756,7557,-2103,874,525,892
363,6333,4775,4200,511,1366,1137
364,-223,6595,6319,334,181,-390
365,-3892,-1647,5596,455,-398,-422
366,-2810,-1930,2970,971,227,-756
367,4162,-1242,-3875,-1577,1064,703
368,4405,3172,5498,-350,-793,-390
369,-1653,-539,4456,-1832,303,1878
370,-2230,-2339,1395,1473,-771,-1762
371,-4742,7233,1093,103,-1692,5
372,-7843,4412,-6126,-21,503,-1061
373,-1611,1055,20,-1126,1580,-486
374,-4713,1038,5143,-645,-1558,-750
375,-4037,-4724,4450,507,-1415,1013
376,3865,-7494,3759,-879,617,1112
377,-5174,-4040,-6825,-439,-916,614
378,-914,-6652,7914,-1097,-353,1385
379,93,4876,6636,218,-1192,-27
380,-6089,-7091,1895,193,-371,-1222
381,-2231,-7728,-4191,-1618,1753,828
382,-5572,1311,-6416,-1262,44,-1028
383,-2394,-5836,5397,1939,11,-1115
384,-957,3064,-239,390,841,-1290
385,-4404,-683,5182,-1391,1922,1460
386,-511,3711,-1246,1470,-196,954
387,-3754,-2266,7444,-188,-1148,-1283
388,4039,-1397,3925,-854,-353,1470
389,2655,439,-7572,1600,-1821,1006
390,-2292,7634,-805,1099,49,589
391,2495,6049,-3100,1671,-1407,-485
392,-1655,-5787,7864,395,1358,-1113
393,3862,-5612,6044,-1580,1960,924
394,-2395,3918,2742,708,1825,-41
395,2919,-1463,-5662,-968,1673,116
396,3722,-6362,-3443,-657,-697,1464
397,5358,3748,-4684,1437,-1124,-1069
398,5481,-7502,-6438,1629,-924,-1363
399,-1962,-7064,-3634,-424,-1661,426
400,5586,-2890,3376,1204,1890,1362
401,-868,-6602,-2929,-230,1505,1003
402,-3533,2051,-4871,808,-976,595
403,-2118,770,-7464,-279,-1784,1905
404,-962,-4500,2128,-83,-1937,-963
405,-4751,2719,-7178,122,-1951,1399
406,5425,-3238,1580,91,118,1253
407,-7077,-4461,6325,-1318,70,-1271
408,-5935,5544,-3336,705,-300,159
409,7995,-5243,-1778,304,1424,-606
410,6364,5743,5517,-1337,-1963,927
411,2985,-395,-5650,16,-1314,-71
412,-7892,1498,-4536,-1159,-730,-832
413,5833,116,-5197,-1152,-834,-501
414,-5840,-1979,7422,1505,1555,1795
415,-2496,-5021,662,797,-1269,98
416,279,-90,-4168,1812,1344,1562
417,6416,7115,4965,997,-15,-1933
418,-2671,3620,7083,-789,-212,1012
419,2691,7138,-1009,992,-555,-53
420,-5109,-4773,6548,1314,-676,1815
421,-1825,3246,-7439,1510,1820,-1964
422,6937,-74,-6966,233,319,-977
423,2266,481,4045,786,-1260,1223
424,-120,-2760,4586,185,-1168,22
425,-2301,-6696,4243,-191,-141,-1371
426,-2618,1735,2261,-1761,1055,1624
427,688,6996,-7208,-1836,451,0
428,-3345,4852,4637,769,1297,836
429,-2493,7582,3159,-626,-964,-1651
430,1164,3351,-4968,913,206,-1986
431,7954,4409,1510,-219,784,1197
432,1052,350,-3579,-1975,-723,-1744
433,-3457,631,1447,1079,1958,404
434,-6981,-6617,-27,89,-1704,-758
435,2304,1535,4888,261,1731,-227
436,-1733,-7797,6859,952,877,-1460
437,7188,7228,-4003,470,-389,-743
438,4872,6750,-7103,861,1537,926
439,7674,-1299,-1117,-913,-1492,-408
440,-3737,-839,-5647,1309,1734,262
441,1960,-7810,3230,1494,563,189
442,7652,7142,-3484,219,-506,-1251
443,3012,-5926,-4653,-542,767,-297
444,4529,7864,5498,426,-1150,399
445,1630,-4241,2634,377,-885,-1783
446,-5387,-5087,7178,0,-38,-181
447,-6280,6208,-1591,1161,606,1670
448,1233,-1807,383,911,-781,-529
449,435,-529,6579,-1323,-100,-678
450,6966,2793,-4819,1765,843,847
451,-5487,231,4232,465,53,294
452,-3045,1483,-7430,-166,766,-1380
453,-4897,2977,702,-987,950,-1244
454,5986,-3372,4472,1310,-966,-1498
455,4256,-2416,437,-771,-1097,1877
456,-1858,-2618,7026,1445,62,1082
457,3098,3856,408,-940,-1024,1089
458,5158,-2540,-1178,-1397,863,-1365
459,-4542,6372,-5051,317,-1629,1708
460,5421,-1921,4217,436,1478,-1757
461,-5139,4657,6828,-1771,-1212,-582
462,2900,-202,-63,-861,151,-529
463,6395,-1155,3247,1548,1129,24
464,-3481,-5558,-2373,-1007,-224,614
465,-2946,3677,-320,-623,277,-436
466,3131,4849,-254,-667,-1336,-932
467,1339,300,-6181,-1551,1553,513
468,-7346,5820,5033,-1276,-1730,473
469,2982,-506,7262,-1104,-1491,-1726
470,6975,-498,3169,947,419,382
471,242,-6854,6453,-503,680,1376
472,7341,-6013,2577,-64,26,-1766
473,-2534,-5418,6949,-1170,-105,-327
474,-6387,-494,7296,-1465,1944,561
475,37,-5373,7637,574,1983,81
476,6074,3028,-4659,-231,234,-1791
477,5668,4221,7640,1447,1668,542
478,4442,5224,-5560,174,360,1793
479,-1268,-2960,4255,-456,-1403,-880
480,6210,2330,436,1134,-1476,-1352
481,6655,2016,-3682,-964,-1724,-1535
482,-2251,-1044,-4237,-1414,1562,343
483,-6157,7515,-7312,-1729,1854,135
484,-5996,-5228,-7621,1782,439,44
485,5078,5141,-3503,-1824,246,1030
486,1934,-2374,4160,618,91,567
487,6416,-5588,-794,-1531,-967,-1084
488,845,5055,6643,1838,-1028,-880
489,-7162,7915,4608,-375,328,1287
490,-662,7683,-5681,904,-1701,37
491,-3434,521,-856,-1799,-368,592
492,1953,4423,126,916,-671,-202
493,-663,-2972,-7256,-1179,-1943,1623
494,-2728,-1639,7367,-292,-1090,342
495,4284,-7162,-2257,964,-207,1212
496,1348,-4232,554,-139,595,-1985
497,6876,-1764,-3052,1929,1543,-10
498,6700,-3500,3759,282,238,-699
499,2057,-7033,1752,679,-477,-231
500,-3910,4088,6934,453,143,-1684
501,-2959,4402,-6290,-950,-512,333
502,-3514,4606,4157,1741,-1818,-311
503,-802,4725,5207,-132,1544,209
504,7256,-3508,-4528,-658,-1054,1946
505,403,-2993,-6596,-403,-1338,-573
506,-1514,-1560,3828,191,997,135
507,769,-7316,6459,1443,1917,-1411
508,1722,-6607,2302,1088,1290,-246
509,-409,6155,-7580,697,-1462,1804
510,4410,46,-3297,1615,-1448,-1210
511,6826,7489,6524,-245,654,1195
512,7756,-1078,3491,339,-1669,-175
513,-6670,4517,-4920,-939,-1800,1926
514,-6497,952,4473,437,870,1237
515,-6773,2644,7947,-578,627,148
516,-1286,3176,-4120,-1418,155,-1478
517,-5219,-770,4754,1238,652,-1499
518,-5187,211,7202,-1845,1377,470
519,-4608,6591,2546,273,1067,1351
520,-556,2868,-7021,-147,1958,888
521,7312,4571,-203,-478,-977,-1657
522,5642,-2225,-5314,-1099,1127,-330
523,-6123,3355,472,807,-1290,1166
524,694,-459,7628,150,-408,955
525,-6157,-5494,6595,-1113,1236,-450
526,2669,-6947,3453,-1201,-606,452
527,7264,-6002,-471,-866,-1170,145
528,6484,-3927,6357,946,-1397,-1204
529,3347,7080,5593,1699,1199,900
530,-101,150,-4446,-1105,-1245,-1235
531,611,-1374,6706,1052,1056,-803
532,6841,-5164,4267,96,408,1265
533,3315,3103,6985,606,1671,-173
534,6242,4398,4729,-374,-1606,868
535,-4517,-1235,6906,37,-1516,-1314
536,7703,4844,-3913,-1037,1125,378
537,-2578,2683,-5394,822,-1742,143
538,-1816,-2958,-6754,747,-915,-1831
539,6329,228,6115,476,1560,1230
540,-4123,7471,2419,1531,-1533,-1922
541,-3630,-6621,-135,760,1848,-1685
542,-630,-2762,-1372,496,-239,1189
543,473,-2309,-1640,1217,1222,-1844
544,-6219,-5064,-539,-223,1034,-1054
545,4508,933,7091,1649,987,-537
546,-7642,605,-241,1282,258,-682
547,7295,3664,572,-554,-1282,1345
548,7912,-3413,6489,-845,831,721
549,-1924,3933,-4760,-448,430,1600
550,-33,-2212,1523,-229,-1191,678
551,-1985,-566,-6751,-1273,-1221,-1032
552,-5754,-5370,4744,-1342,-1269,-534
553,4787,-3011,4054,606,695,-667
554,6904,-4711,-4616,-288,1794,-1613
555,-3939,-7637,-6061,782,-458,317
556,2177,450,6594,1020,-674,541
557,-3252,-6269,3181,1484,787,246
558,-3515,-896,-5407,-963,1481,-994
559,-1905,-1726,2086,6,-237,-842
560,3117,7490,-2010,1834,819,-47
561,7879,6801,-5225,-1491,1435,-252
562,2512,-7165,2488,197,-1541,4
563,-2111,-7867,-7029,438,1867,1153
564,-875,-5270,-4346,1948,570,948
565,-1913,6847,6674,-1338,32,1339
566,-3942,-4317,1753,-1309,-24,1979
567,-310,6041,4948,-849,-264,-1718
568,-2298,-5158,-5884,-229,1212,-548
569,5471,-3554,-6404,-665,208,-184
570,-1284,7352,-6760,1506,-197,974
571,3154,1773,400,-525,982,-992
572,-7007,-3945,1472,-829,820,1438
573,-7713,819,4012,-151,542,-229
574,-7645,-3253,1957,51,1668,675
575,747,-5563,-988,988,-1541,113
576,-3904,-4449,400,-373,-832,647
577,4535,2105,4168,-418,1130,-1429
578,2681,-5001,-5377,-245,-1693,-1824
579,-327,-6525,628,515,-1497,-491
580,2130,1586,-3475,-597,1737,-1924
581,3804,4287,-3019,-1431,-427,98
582,4029,-1601,3774,-1585,-1055,-624
583,4445,4946,2807,-752,-859,1355
584,4531,-5081,6262,-834,-1020,-1451
585,3963,-957,-5999,349,-1123,-246
586,4240,4777,2033,-738,-1941,1263
587,-413,978,-659,1862,-943,1259
588,6351,4431,4074,312,800,-107
589,-6808,-1629,-5373,-1239,-1997,1665
590,5720,-1395,4604,-305,-337,-1379
591,4586,4988,-6486,1304,-832,-616
592,-4368,4735,5232,1155,-312,512
593,-3254,-6232,-7176,1390,139,-646
594,2116,-2416,-5411,-1238,-1874,-250
595,-6501,6509,4837,-1693,658,123
596,1225,-1634,-3141,-1154,-327,138
597,2676,-3816,-1420,-56,-1085,1815
598,7047,5877,717,1296,-1338,1625
599,-955,-1079,-3685,-1121,-1033,-42
600,-3028,-1118,1701,1073,254,1525
601,-7454,-4416,4153,-1589,-1516,396
602,-3123,1635,-5424,-174,952,-1835
603,5123,-5016,393,-1808,316,-1824
604,7987,6231,-4304,-1134,-1532,-679
605,7813,5401,-2109,-675,-1979,54
606,5005,-3120,3598,1277,-1186,-990
607,-5370,-6661,3686,72,1839,451
608,7443,2529,7288,-1878,-1210,1016
609,2861,-3525,6308,454,-1931,1538
610,-628,5105,3789,-1662,-64,-1895
611,4537,-7809,-7615,420,-1587,1715
612,-3562,-2210,5021,-766,-353,-1096
613,-1269,-203,-1668,221,-904,-1826
614,5128,-4567,-3212,1649,254,1510
615,-4968,-4492,-6017,43,-266,1922
616,-5522,1031,-3980,-434,-40,573
617,2341,2118,-4792,-1463,972,1955
618,557,-7301,-1958,-1506,-1351,127
619,3363,287,4536,449,-1624,-551
620,4155,-6379,-7425,1874,-810,-139
621,-624,-7327,6899,1540,1896,598
622,7952,-6,-2720,-168,-1656,-1962
623,147,1589,5707,947,1772,1166
624,2025,-4798,693,-1645,-1475,924
625,5155,2219,-6696,781,-1124,-1893
626,-6817,2937,-7350,-719,-446,-1930
627,5495,-6954,1996,442,-1403,695
628,5903,5927,-2373,1479,-1806,-531
629,2984,4329,-7161,-980,1464,1601
630,-448,3112,-5553,-1500,-1088,800
631,-1782,-2562,2839,1552,1067,1745
632,4045,-5217,-1792,11,-1371,-267
633,-6033,-7541,1721,-1057,-1466,-106
634,3528,-3099,727,1006,-557,-464
635,-7457,7016,-5758,-112,-94,397
636,-5686,1554,-2434,1300,-1831,1681
637,-191,-7234,4651,-1867,1985,-1467
638,5916,-2063,-941,-444,677,-1342
639,1448,6340,3284,-1643,-1955,-1326
640,3415,-1922,-4081,1301,267,814
641,3498,-7264,-5690,-500,-650,-951
642,-2830,4717,-4527,-982,-623,1775
643,-4792,-5994,-5224,196,-1246,1641
644,4319,5563,-5191,1837,95,585
645,7951,-1875,-7918,-1415,479,967
646,-108,4303,-6289,-996,-1265,-289
647,-2475,2178,-954,1876,909,457
648,1412,-4868,-542,-1032,-844,-1066
649,-7767,-248,-183,-947,1501,-1228
650,230,-7900,3684,-145,1443,-579
651,-1508,2021,-1820,660,1906,-989
652,3854,7255,4405,1230,-605,729
653,-2759,348,4606,1946,299,1261
654,6819,5475,5063,-1459,1925,-328
655,-3711,6329,-3162,1987,793,1330
656,-1708,2742,-3179,1416,-105,-1586
657,-5658,-6240,2043,1039,-257,-310
658,4797,2919,7813,-1365,621,-324
659,-2691,-5110,2898,520,-685,-287
660,4336,6016,2000,227,-792,356
661,-979,5690,2671,-1809,-967,472
662,-776,1054,-571,1484,1764,-1522
663,299,6357,-4282,1142,1091,1900
664,7844,2798,-2080,-437,937,-1581
665,4426,-5479,5288,188,1933,-394
666,-2965,-6959,-2144,1030,1722,91
667,-3925,1370,5851,-353,-1718,1462
668,-7489,-5357,5735,1495,-1605,567
669,524,-2878,2282,422,-1926,380
670,-3786,7003,3001,936,-145,-1721
671,-6828,-1472,7112,157,-1267,-1358
672,-4068,5208,-2446,-1062,718,-513
673,-993,668,-2945,1329,-673,280
674,-662,-1469,-5101,-249,-1883,1511
675,1996,1570,-4273,616,973,-1537
676,-1954,-5114,-1286,-1746,1579,440
677,-6095,3132,-6779,-174,610,-1555
678,1294,-6476,2680,1272,-644,-1756
679,-3843,-139,1423,-1105,576,1421
680,1825,-724,6602,895,-1278,487
681,6541,-6252,-1521,1020,1279,1064
682,-2843,723,-1150,1463,-1218,1052
683,3096,2521,-3293,-1912,405,1264
684,6147,1555,3243,-1630,1083,256
685,-1266,-514,-2426,-888,1428,1525
686,-2086,5468,-6357,-367,54,-1622
687,-4439,1445,4735,-1318,1396,52
688,7499,-5192,4869,1804,-47,448
689,7706,555,193,-734,-2000,-1191
690,1266,-6211,6513,-1583,-1968,-185
691,188,-6175,-506,-1089,-511,-797
692,-5370,4018,3814,1634,645,693
693,-756,-855,6635,-1869,-1683,-362
694,-3246,6150,-3367,-862,-719,-351
695,2057,-1067,-1598,-803,-1930,743
696,-5909,4195,-7880,-1224,-794,513
697,4056,-3997,-5216,1979,-1536,-730
698,-5914,1730,-7329,1172,-430,1295
699,-5437,-4394,4741,1751,-1455,348
700,-3904,-3961,-4089,933,1095,-685
701,6085,4768,583,-1696,-444,-1069
702,2437,-4960,-3813,961,-1871,1255
703,5110,5711,-317,1064,-544,-1742
704,2640,-573,-3285,656,-1221,1368
705,185,-3415,-3687,-1160,160,1755
706,-7423,-4457,-7551,-1194,1105,-727
707,4075,6801,2764,-586,1785,1974
708,-3005,7946,7405,200,-881,-372
709,-5377,-6577,1185,888,-1404,-974
710,1293,-1728,-2831,1133,1514,-312
711,-7574,-6529,4893,-1330,814,-1605
712,3694,-6629,4381,-1860,276,-744
713,184,477,-6155,1490,1308,-1011
714,3092,209,-7553,557,-501,-1136
715,-6290,1988,6601,-1999,-1658,1647
716,-3764,-5184,5016,-1595,1647,1966
717,-5640,4510,3527,929,934,-200
718,-7933,7362,7200,1709,-1331,-15
719,-3785,-5859,364,-193,-1967,898
720,2601,6578,6878,-1744,-1946,1387
721,3959,-6086,-4037,-373,-594,-493
722,4274,5592,4494,-296,-726,-1565
723,4475,5479,5886,-894,1711,1791
724,9,-3625,-6853,-487,-935,1636
725,2314,3828,7761,-1656,-1436,1330
726,1247,7575,1745,1174,-513,-758
727,-1237,2919,-1155,-487,1526,-650
728,-2056,-1652,396,-108,-1415,1721
729,2050,4692,4270,1373,-331,1611
730,3852,6297,-5278,-1231,-1999,1413
731,1549,-1211,-760,-989,1405,-779
732,3112,5268,5791,-1789,-1379,-726
733,758,7662,3949,-300,-1232,-1411
734,6564,-2049,-1232,1950,826,-709
735,-2112,-849,2722,618,-163,1224
736,-647,1178,-4985,-919,482,768
737,-7760,-7687,3486,-910,-1524,374
738,6337,7866,-6293,654,-307,-240
739,1397,6669,-6979,86,-767,-1430
740,-65,1387,3585,1685,1883,1376
741,1520,5400,5525,1236,511,-1121
742,4213,-6093,5523,320,-1687,614
743,-214,-1347,889,1732,-12,581
744,3441,5929,2778,1747,-616,1261
745,243,4565,-2419,1823,-1645,1556
746,7970,-6219,-7121,1094,146,383
747,6773,-2793,-3712,-3,-1760,-1744
748,2473,-4326,-7943,-1382,1632,-1905
749,869,1368,-6663,1896,-605,1311
750,-5301,-6454,-2932,-332,1569,350
751,-3330,4341,-1505,839,-200,-869
752,-7068,-725,2884,524,-982,-953
753,-6654,-5703,-1594,-582,140,-937
754,7933,2371,7095,-948,-118,-954
755,207,2365,-1207,-1726,397,1779
756,5452,-4538,-6688,-1926,-763,1090
757,-1115,-5253,1303,-15,1252,-834
758,-1008,3625,-4572,-530,792,-1488
759,4468,7022,-7367,-13,-35,-1981
760,132,1838,-2419,929,45,-1069
761,-1012,-6492,-590,-805,643,1783
762,-1998,1439,-2967,-866,1635,432
763,-3917,-3,3690,-1252,-604,1534
764,-2097,-4903,6742,1779,1013,-172
765,7293,-4433,6505,1815,1244,-1101
766,-1876,-3386,-2410,392,768,1822
767,-5488,-1850,-5462,1055,-1953,-1446
768,-3407,-5683,-1826,1683,178,-713
769,6877,5209,5680,1998,-440,1474
770,-16,-414,172,1034,976,-1888
771,7053,-7350,-1499,-1929,-942,698
772,-1345,-6196,-7638,-482,-1527,-1043
773,-6700,4102,-3633,-1530,1427,441
774,3844,6834,7560,1023,-847,157
775,1644,553,-4819,-337,10,-1629
776,5277,-3427,-6332,-1891,-1454,-1496
777,662,-4237,-1270,-724,88,592
778,3921,6169,-6363,-1594,-1971,-357
779,2466,-6964,4548,-415,-905,1027
780,6019,3331,-1201,1984,-645,-679
781,-672,4309,-5202,521,-419,1226
782,-3907,-6274,-2173,251,424,-1791
783,1738,5209,-5356,728,930,-438
784,-5363,-6289,5581,1678,-147,1420
785,-4826,-5510,2026,-1688,431,-109
786,-3262,5151,386,-1896,-1435,1811
787,7519,1271,5377,1066,189,-1858
788,7295,5010,28,1961,-320,809
789,-1750,-5653,3265,-1962,-1495,-601
790,-6419,1407,478,-1638,-997,-853
791,-1850,4777,345,1698,-1236,1802
792,1562,-5126,5749,-489,595,1115
793,-461,-5682,3055,-1910,1754,634
794,-6288,6104,3900,-343,1289,619
795,-3093,-2717,-1019,1699,1795,1215
796,7688,924,-3935,-1271,-783,242
797,3908,-4097,6283,1730,-1351,1863
798,6771,-7701,1949,-69,1560,469
799,-6993,4552,6242,95,1646,692
800,3659,-7686,-2476,1126,-1359,1937
801,-7024,-2385,7256,-955,172,-1697
802,-2438,3978,-895,-849,1980,1048
803,-7292,7621,-287,-185,-1253,-1665
804,3814,4442,-2135,1092,1359,-1601
805,7468,-6553,7882,-1896,-1808,-1898
806,-2280,597,-562,-24,-1211,-1378
807,-5377,7199,-445,943,910,-1735
808,84,4644,-4163,-1992,-1570,-385
809,-4530,3299,-1262,-755,264,-306
810,-5835,-7169,-5662,1909,-1286,-1274
811,884,7371,-3933,1097,1359,-296
812,6424,3982,-5884,1070,-937,-992
813,5461,4967,-5285,-1215,-1575,-720
814,4663,6933,2957,-884,1232,-552
815,-7005,6075,-4380,-872,-1076,-190
816,1317,-1629,-5919,1706,-756,-1829
817,-5702,-7306,7924,-1511,-82,-168
818,4549,-7228,-7848,153,-1490,870
819,3409,6659,5381,-1372,577,1242
820,944,2389,2900,1098,-903,1134
821,-1891,4004,-7561,307,547,-226
822,5731,7844,-7306,1148,-764,89
823,-2595,3519,-6650,135,-525,1860
824,-5982,-2598,-3495,1261,761,-371
825,5181,-3469,7085,-1070,-863,-627
826,6835,4424,5796,750,-1605,-491
827,-6931,5644,5277,-1021,-1852,-1650
828,-3546,5753,4523,-1443,-157,969
829,-5322,2239,7397,1634,-1850,-1667
830,-844,-403,2163,-507,-63,265
831,-215,-4574,-5785,-614,-946,-1400
832,-5464,5169,-3256,1312,-1226,959
833,395,7473,3806,-587,-517,779
834,-3040,-5033,6023,-1365,31,701
835,-5407,-7645,-6522,1391,1182,1252
836,-2195,3168,7785,957,-482,-504
837,1055,5598,3021,46,-1610,-179
838,-7239,4472,2791,1630,-40,1014
839,-6874,-3431,6940,293,-1746,690
840,959,-7000,7839,-481,-1243,1134
841,5249,-7306,-6862,1904,233,-196
842,-4105,-1003,-1653,-1894,1088,-919
843,-6553,1003,2841,1061,-756,-1136
844,5104,-4766,2436,1950,8,590
845,3200,6097,-69,-1650,-357,-1849
846,7068,-7103,-3668,419,-1302,-1869
847,5490,3102,671,330,654,1366
848,-3981,-4494,41,1395,542,924
849,-3360,-2861,6980,-1745,-1402,1566
850,7159,4160,-4198,-541,1760,-1612
851,-2538,1438,-5563,-1918,-1413,-101
852,965,-2675,1759,849,1126,-1289
853,7868,3327,-5480,1812,1645,755
854,-919,-5897,7728,1107,-1837,487
855,2831,6579,4268,668,-917,-1374
856,3851,7032,3795,1294,-1643,-1092
857,5817,-2970,-4292,1754,-57,-290
858,-2308,-135,5650,-1976,1684,-234
859,7139,-3734,-4546,-40,-1483,-495
860,6418,-3703,3800,818,-1987,400
861,-3358,4917,-3730,-979,1448,283
862,-3138,6785,-5527,1938,698,-533
863,381,-1566,-1338,-1895,994,-1824
864,-1054,-2027,-883,778,-1551,-1651
865,-6889,2340,-362,-349,1533,-1232
866,635,1997,-2255,-1717,-1865,-490
867,1077,-3099,2250,453,-1458,-1048
868,3989,7238,-7981,914,701,-382
869,876,1167,7682,1149,704,-1918
870,6972,5334,-6204,901,583,271
871,4398,-4763,-7331,-1826,764,-178
872,2813,-1484,-2285,-822,-1432,1448
873,-6260,-3175,-2413,720,1156,-518
874,5636,-5074,-2327,1111,1164,-533
875,5511,569,-6484,1326,-1548,808
876,-865,4740,-7049,-559,583,-672
877,2636,-5344,2161,1833,-867,-1215
878,-4949,3803,-2112,163,188,65
879,-851,7875,5777,-1042,5,-1875
880,6676,-6853,-1344,302,-1419,-1355
881,-6289,-2526,3073,-225,690,-570
882,-3500,776,7820,-162,-1374,-83
883,-5459,576,-992,-1429,1339,-900
884,3175,2978,-399,345,-1044,-1975
885,6131,7126,-5071,-1893,-1825,148
886,-371,-3980,-1969,422,526,1569
887,4040,1556,7623,-1066,687,1803
888,-4988,-2042,3989,112,1881,919
889,-827,-7806,240,-975,-955,-529
890,7373,-2043,-3432,1003,154,883
891,1861,7240,-2782,-580,-706,-742
892,6446,5911,5370,-602,-933,-1812
893,1386,6443,7924,1695,-655,-776
894,-6668,-5063,-6353,359,534,-1077
895,-6148,-7821,-4046,436,-930,1091
896,2315,-1717,1763,-789,1183,1590
897,3577,-2520,-4109,-1323,1240,1637
898,3766,3866,-1363,667,-1258,-1132
899,-4970,-2268,3485,-1042,580,1213
900,3047,5780,7408,-1951,1889,-293
901,-4608,-7729,6961,-30,-492,945
902,-246,-924,-3966,-327,-1668,276
903,2580,-6124,-7377,1485,-839,1871
904,3433,-4050,-6314,631,619,1650
905,-5315,1372,5596,-1460,1046,1765
906,545,-4393,-978,-1130,1117,1519
907,-4737,1708,-2838,1409,1415,-101
908,-1925,3095,-6757,-1145,484,-1781
909,-1282,-5814,-5376,540,-1315,-908
910,-3939,485,5215,18,-1050,-831
911,-6741,6526,-5402,-905,-832,-341
912,-890,4227,-350,-1163,716,429
913,7709,7382,-7347,-241,58,-483
914,1967,-631,-4117,830,1110,1057
915,552,-5613,7013,1964,1609,-787
916,-4211,7069,6805,-798,-534,-232
917,2660,-430,1148,1514,-152,-1067
918,1908,-1385,-2011,-1769,-1982,-1212
919,3656,-5484,-5721,1656,-147,-1697
920,-5289,-5220,1599,1194,1708,1179
921,5361,6412,795,1945,-355,-450
922,3251,-7884,-3945,-1449,1702,707
923,-2589,4070,-43,-1020,1018,471
924,6888,-70,41,-1649,1406,559
925,4095,3997,-430,-1796,1513,-1289
926,923,-5516,396,-413,996,360
927,4108,620,-6626,1100,-1070,1486
928,-2889,-6881,3110,692,-1011,517
929,-4445,-5634,4581,1091,1669,29
930,4653,3712,1209,-1459,1564,-1798
931,-2099,2318,1073,1528,253,583
932,5717,-296,4822,107,50,-1989
933,-3204,-7427,2484,749,1337,-1845
934,6180,-4884,-2519,1297,-1208,-398
935,1715,-5193,273,1207,-1558,-846
936,2531,-6042,-5670,615,237,721
937,3191,-6186,-6181,-768,-1171,928
938,7902,-3597,4841,-656,1419,347
939,6570,-1152,2835,-1286,383,-866
940,7713,-2426,-4909,1196,753,245
941,-4831,-6817,4624,415,-964,-1767
942,-7917,4074,-3271,1687,1752,60
943,-5429,-258,-2146,1796,-67,-85
944,3335,1780,-6817,-666,-1750,-479
945,3516,-4425,6667,242,-1619,-428
946,3608,-5580,4368,1084,-1129,-1348
947,4473,2640,-6981,1204,-818,1791
948,-7996,5310,1473,308,-1477,-290
949,4826,-3263,1409,-1657,1705,-1823
950,628,-4243,1728,-1530,414,-1280
951,6903,-2016,4559,1275,-1331,420
952,7756,1535,7728,-971,-736,1700
953,-7697,-712,-797,-85,-255,-1604
954,4423,-5641,-2008,594,1932,-607
955,2732,6475,-7261,-638,-1845,-1128
956,5178,2586,822,1379,190,1826
957,-499,7045,-1754,-1284,1468,267
958,2106,3496,3770,1268,1535,53
959,7667,2300,-394,701,846,58
960,-3232,5991,-7731,-480,720,168
961,-5241,-5677,-7472,1892,641,1330
962,7663,-568,4285,-1192,-1258,305
963,-6635,3668,1293,-1633,1088,287
964,-4716,4577,7543,-347,889,-1989
965,915,-6916,6209,1632,848,-1530
966,4113,-5380,4193,402,178,-352
967,899,-801,-4928,1460,1024,-862
968,1570,-4985,-1563,-191,-219,1457
969,4991,7863,-2157,-1960,-1591,812
970,65,531,-1143,-722,48,-491
971,5683,-558,-3288,-1782,96,604
972,923,3181,1413,-117,-1298,178
973,4643,4756,-4995,69,-1041,-1752
974,4458,6888,4170,1003,802,1151
975,5405,-7270,-3410,-667,-1243,907
976,5913,-1358,-2388,-559,-1363,1368
977,3910,1526,-2450,757,556,394
978,-4081,-3715,-3470,-659,477,1737
979,-5513,5362,6396,-1861,961,-1090
980,-5652,-7978,6773,1285,823,-1316
981,-2040,-7174,7489,1105,949,-1416
982,1519,6189,7126,477,-1328,-1253
983,6167,3049,4979,861,532,-1643
984,5548,-1915,-6642,-1758,1624,80
985,-5101,2227,-4216,-463,1392,365
986,-7971,129,1377,1497,335,941
987,2396,105,-3884,-545,1156,-820
988,6102,-555,-3383,-1615,-173,-502
989,-4681,854,-6607,-281,-1996,-1735
990,3799,5849,1482,653,1328,-1514
991,68,2206,2045,-311,-962,71
992,-3102,7285,606,-1723,-212,-609
993,-2424,-2108,-5955,1353,-850,1358
994,3991,6202,6168,742,1491,-1972
995,-6269,1224,1865,-1662,996,-1945
996,-403,7161,-3370,-746,1069,1628
997,3391,-5544,-4275,1134,-891,1046
998,5980,3347,-3841,1414,-979,1083
999,-3324,-3545,-4646,356,1577,1572
1000,-4870,5139,-2799,1921,1439,-22
1001,7541,-7325,-6897,-1625,-24,1763
1002,1405,-5018,-4931,-707,-584,648
1003,3985,8,3143,305,561,-976
1004,4077,-5160,700,-370,1550,394
1005,-3555,-6149,6690,-1920,-549,1568
1006,1181,7100,-7486,-1392,1867,144
1007,-392,-3263,5361,-205,-1847,-44
1008,7200,3159,-7348,305,-1164,288
1009,-1133,225,-5512,-1697,0,-274
1010,-3894,-2869,-310,-1661,-1464,144
1011,7317,-5670,-5213,1453,1114,186
1012,6478,-5929,-3464,1874,-1622,556
1013,5414,-654,-3527,1331,1230,1905
1014,-1502,-6818,-6775,603,-582,960
1015,-5540,2575,3473,1107,1061,-528
1016,-7003,2053,541,-1241,-693,-1048
1017,-1402,6661,-147,766,1102,-6
1018,-6191,6564,-392,1345,-1580,-663
1019,1216,-2300,-6447,-1476,949,1182
1020,5575,-5732,1716,-1640,-58,-867
1021,1065,5515,1662,918,573,-721
1022,6533,1764,6535,-671,1003,325
1023,7968,4198,-246,-269,54,175
1024,4106,7554,-5928,1726,1743,-23
1025,3611,4517,-5161,-867,940,184
1026,2796,-1367,7185,-833,-1610,-532
1027,-6881,-3547,-5245,1562,-1274,-623
1028,1783,1552,2911,-868,-1408,68
1029,-5895,2429,4721,875,-930,-627
1030,-6263,-2583,-3333,1258,-972,1803
1031,-6611,3209,-1586,743,1938,-612
1032,-4947,-5325,6007,1996,-1163,1264
1033,-3777,3592,-4152,-723,1270,1817
1034,7398,-1026,-3841,676,823,195
1035,-3068,4102,6889,-1890,21,-1548
1036,-7926,-5798,-5302,-1180,-1134,-1173
1037,1235,-6779,6359,-916,899,-993
1038,5669,7455,7918,-428,-883,1674
1039,-6840,6442,7197,1910,-1393,-381
1040,331,-4939,-4574,156,-1777,-1162
1041,1659,-1325,-6118,1721,-930,578
1042,-678,-5449,-2367,-1811,417,-1663
1043,314,6731,6743,-1832,1914,-1713
1044,5882,-7381,2315,-1208,1069,-40
1045,-4029,-130,-3412,-1385,-774,818
1046,-5989,-6751,-5875,109,-1987,-613
1047,3578,2194,-1044,1733,-1533,-1965
1048,-4530,-4277,-4543,-1748,-1645,-686
1049,-5893,2613,-4768,-828,1671,-69
1050,-4946,491,-2990,1013,-293,484
1051,160,-6877,7747,10,808,881
1052,-5311,-3496,-3886,-986,1524,866
1053,-513,1900,7112,-1653,1222,1151
1054,-5218,2718,-2470,-1715,1666,-1785
1055,1068,-1363,2137,379,-1299,-969
1056,5189,-2632,7301,1244,-278,-1497
1057,-3987,-3874,1075,-98,693,1705
1058,1898,1974,6337,-1303,-760,-541
1059,-2558,-1936,1140,-1700,1485,1034
1060,4012,-7306,3378,-641,1453,195
1061,1416,-4774,7140,1277,-838,-1006
1062,-6905,-1233,-6012,-1395,-961,335
1063,3395,-3463,3476,304,-1241,-1961
1064,-3137,-5441,5043,-1308,-1960,601
1065,-7666,-7812,-5702,1444,-407,-989
1066,-102,-2471,3632,1170,-1839,-727
1067,-6612,-6544,6038,1516,1524,1060
1068,-4541,-7035,-2250,567,1024,1859
1069,4256,-2478,-6228,1617,-3,-473
1070,4093,5821,-4253,970,-107,-299
1071,2554,898,-6809,1108,-352,1507
1072,3565,-5765,-5121,1257,9,-1009
1073,5393,2653,-5714,-143,-1026,-546
1074,1569,5203,-3258,674,-1421,1941
1075,-2654,-5507,-7747,-1867,-544,1310
1076,771,-4581,-3332,-863,-466,-1864
1077,-2473,3927,-7891,1877,-252,1155
1078,36,6153,5907,1371,534,-564
1079,7196,-2193,-6880,-1516,366,-1775
1080,-3669,-1617,967,-809,-1154,-1170
1081,6338,-377,1254,1778,873,-764
1082,1327,1343,2372,1396,771,378
1083,3365,-3404,-3894,-1961,1355,-485
1084,-6222,3787,-613,901,320,-1583
1085,589,2065,-1925,-194,-556,-253
1086,2383,4902,7929,-675,69,1837
1087,-6160,4736,-6760,1326,228,180
1088,-1370,5814,-5698,1731,-180,887
1089,-5233,347,3094,667,497,1477
1090,-6754,1658,5111,1104,893,920
1091,4368,-2819,6656,-1807,-927,1433
1092,5245,-4955,-3636,-47,-15,1528
1093,-1075,1163,-4216,-535,-1991,-1647
1094,-7032,2006,-4391,-1192,-1163,204
1095,-7005,-7281,-4836,-1771,1086,1265
1096,-778,2988,-3517,-216,149,1326
1097,-2910,-7171,-5523,-1271,-188,283
1098,-6526,4088,-3463,1948,571,-275
1099,-6749,6337,4672,1331,593,808
1100,-4684,2107,-2929,815,-70,-166
1101,-1493,-3856,7291,-1018,1805,-9
1102,5873,-3118,764,727,-752,710
1103,4469,1431,-4575,1097,1906,-833
1104,3842,-88,1187,-37,392,-1249
1105,-6743,-6681,2948,91,-636,580
1106,4635,3354,3140,-1614,-587,-610
1107,7800,-4727,-4204,-1424,438,-594
1108,7665,3592,3977,1025,429,1607
1109,3348,-7689,-6181,1711,-268,-612
1110,-6626,-4443,2849,304,-1263,-942
1111,2992,370,4107,-94,1520,1330
1112,-7785,7118,6302,-1343,-354,-109
1113,-6602,3060,6908,1211,1813,-268
1114,6221,741,-2780,1426,1564,874
1115,-732,1113,-5606,580,208,-487
1116,3874,-6322,7404,-1570,-905,1092
1117,-6507,-5836,-6795,-21,-1530,579
1118,-988,6921,-5002,1234,-665,1553
1119,-2228,2117,-6755,-1873,-568,268
1120,3941,-6908,1476,673,313,-940
1121,6969,7266,3182,-1629,-1905,-1626
1122,3140,-2748,5051,-35,1462,482
1123,-978,1558,4344,-1192,-1393,-993
1124,-2182,1112,6920,298,-1315,-1144
1125,-6586,-24,5381,647,-1949,592
1126,3532,5850,7813,1849,-1978,-1477
1127,-4232,-1493,-432,1420,265,-1604
1128,-5544,-7773,5582,-1480,-1497,1619
1129,-5686,-786,6247,704,335,-527
1130,3286,1600,-5241,-913,739,18
1131,5742,4665,-7646,1162,788,-1691
1132,3931,7108,2178,1317,333,1569
1133,2701,-1343,-4734,-687,-105,990
1134,5121,7784,-3016,-1554,386,1065
1135,-1768,5173,7867,1441,1784,-112
1136,1403,4592,-5861,1181,149,1248
1137,5727,-5897,6665,868,-247,-1790
1138,-3770,-7707,-1519,-364,-1456,1330
1139,-3146,-1377,-2665,1805,237,327
1140,334,6350,84,111,-1226,-23
1141,-2301,-4723,-2631,395,-205,-1144
1142,158,6944,4525,-139,-1170,1103
1143,5976,-4938,-3218,-1573,196,-611
1144,1479,-5217,-405,-993,-546,156
1145,3329,136,857,273,1284,-1737
1146,-7895,834,5332,-776,699,336
1147,640,4148,5365,-921,1663,171
1148,5887,1361,-4610,1982,-1895,765
1149,-7023,7909,3151,-1226,-746,-1410
1150,-5994,3606,5079,-1559,896,-646
1151,-7853,-5812,5823,1545,60,0
1152,-7707,-4605,-6719,-415,1611,482
1153,-586,-4763,4928,982,1448,321
1154,-6960,713,-5702,478,924,939
1155,-1852,-7374,3359,1970,965,-1856
1156,-223,-3443,4225,-1140,-394,1953
1157,4891,-2592,-4328,-1007,-25,331
1158,1790,-4648,-3905,-355,-967,1068
1159,141,5783,3852,4,1534,-1554
1160,3707,7687,2350,-351,-94,765
1161,6405,-6293,3141,-494,-1068,1545
1162,-5607,3225,4766,113,862,1440
1163,6360,4916,4427,-1344,-228,-93
1164,439,-7828,4287,-1494,805,-130
1165,-5513,-3878,-2629,-222,-1419,503
1166,-4068,-7940,2498,1979,1403,-658
1167,-1917,-3146,1511,-782,-1355,473
1168,-765,1970,-4780,904,-1858,-1774
1169,-2662,-354,-4739,963,-377,-722
1170,-2759,-4649,1922,207,191,-1617
1171,5501,-1132,-2615,-511,-466,1008
1172,7400,-251,1589,-1535,-907,1751
1173,-6231,5348,-1967,-1712,-941,924
1174,90,-3493,-5614,-994,-655,1199
1175,5844,-643,-7961,1052,1691,-1731
1176,-5352,-5669,-25,-411,1010,-601
1177,-4803,1806,-1655,1498,764,-1908
1178,-6256,63,6043,1631,1795,493
1179,6750,-6206,-5945,-1169,1075,1566
1180,5295,2865,-6207,558,-12,-1331
1181,-4176,-7557,2596,1945,-393,1139
1182,-2116,1977,-6553,204,868,1873
1183,-5390,-4724,3762,1607,-92,-658
1184,459,-2824,-2229,1200,1274,-640
1185,7503,-2167,-2459,468,-240,-352
1186,6582,-3847,-7534,639,1755,1733
1187,-3645,-1950,4004,683,-1411,-399
1188,7905,-4195,-180,-1151,1142,1744
1189,2009,5873,-4131,1083,-1913,-1782
1190,7305,3876,626,1964,580,558
1191,-1621,2099,-1355,1407,794,-382
1192,-3106,-1924,-6584,527,328,-1035
1193,4112,1983,832,599,-672,-1093
1194,-3605,1708,-5618,1180,-856,-1047
1195,323,-6296,-3773,-1615,-1179,-167
1196,-6082,6641,7245,319,-621,-444
1197,6322,2820,-5821,454,210,1383
1198,1099,7746,6724,1481,-1610,-925
1199,1670,2849,4476,-1538,-1529,1725
1200,-82,6890,6132,-1914,-177,836
1201,7228,-7719,-7523,47,-578,-1405
1202,-529,-4544,-6553,-376,989,-1159
1203,-2731,-5221,6467,1585,-1756,997
1204,-1102,-7178,2949,-1759,-1011,-635
1205,1679,-1308,-1709,1066,-1002,-632
1206,3519,3546,3183,-658,-209,1517
1207,5331,-7835,-386,-1079,1458,-1867
1208,-2089,4133,7661,575,-1286,1105
1209,-6293,-4929,5200,740,518,-1426
1210,212,-5495,7004,-1736,357,221
1211,2459,5158,-3436,-1668,1624,-1239
1212,-2537,7088,-7563,1725,-1100,1642
1213,2512,-1725,-4867,-733,-1057,14
1214,5609,4313,-7074,-1349,-509,820
1215,-2392,6578,-5551,-1972,-1997,904
1216,-126,-4790,-3208,1104,1298,1473
1217,-7264,-7930,5881,182,-1506,-1118
1218,-7882,7899,1001,338,1269,-1854
1219,1311,6545,7610,-200,-682,955
1220,6409,4828,2630,-389,357,1164
1221,-7852,771,1817,-1775,-1768,914
1222,-7898,4468,-7925,-1995,-1613,-1383
1223,-4691,-6210,4240,861,-1186,893
1224,-5691,6563,3307,1175,1142,1263
1225,-7644,341,-767,863,1008,-1328
1226,3281,5011,-3428,1725,653,-1245
1227,5555,-3094,-77,-384,1886,0
1228,-4976,3,4141,573,-1447,680
1229,6932,-406,6108,1832,-129,710
1230,35,-2701,-5508,654,924,-1104
1231,-3405,-2325,4285,1475,1632,-342
1232,3871,-1559,789,-1103,-1974,-734
1233,3680,-5508,-3002,-831,-840,-1524
1234,-5640,-617,3957,-1309,1105,-1127
1235,5966,4945,-5046,1711,-1260,396
1236,892,-3154,2870,-1475,-964,82
1237,7160,-7415,-4811,-973,-456,-439
1238,284,6094,-7668,1186,407,758
1239,190,697,-2755,-1479,88,-332
1240,7041,5210,-3115,380,1281,-1902
1241,-6196,-1920,7941,-634,-915,-983
1242,-7119,-464,2269,-964,-198,1801
1243,-7040,-902,2625,-1419,-1864,-1806
1244,-5737,5117,-6933,-114,1317,-744
1245,7373,-3034,3665,-687,512,343
1246,-2357,-3038,-269,46,1158,-350
1247,-6580,574,4059,-1923,1730,1403
1248,-4349,-5077,-6369,1213,-550,1827
1249,-6920,2189,7977,-1997,-997,1859
1250,-1356,-4697,-6280,-1563,80,776
1251,-5573,-6149,6177,-1201,-291,-40
1252,5207,-112,-3776,1275,-1321,663
1253,4470,-805,172,353,1622,-229
1254,7790,-800,-2056,1387,1725,1849
1255,4968,6212,4636,1261,277,-652
1256,-7194,-4998,3953,1172,218,-1951
1257,4438,6842,1845,-1104,-1894,430
1258,-1951,-1929,-269,-1937,-1080,670
1259,6385,6810,5284,-895,-1699,-790
1260,-7194,-2949,-818,-783,-718,-581
1261,-6295,-2383,-4241,280,-1127,-1657
1262,7486,-4040,-3898,181,403,231
1263,1898,418,-5036,1054,-760,692
1264,-378,6719,4107,500,48,1571
1265,4714,6847,7084,-161,1405,318
1266,-3949,770,-2946,1174,-593,1330
1267,2802,-3647,-3519,-1901,292,1508
1268,5232,-6726,-2317,-110,1808,-720
1269,5231,-296,-2138,-1880,1942,1211
1270,-5985,5477,-1354,398,5,1146
1271,485,4151,893,-1144,1356,-1797
1272,-5006,7845,-6505,-1597,575,308
1273,895,466,-3980,1149,-93,49
1274,-3135,1808,-5011,1667,1743,-585
1275,-2103,-3880,-6752,-156,-333,596
1276,-4336,3439,7120,-1219,1424,1910
1277,-6044,-2889,5826,1867,-1458,1286
1278,-1173,-5234,81,1608,857,-738
1279,7309,1866,-7196,-277,-1137,-1046
1280,-195,1737,-4274,1227,-1624,-584
1281,-5875,6539,6874,-227,1151,1453
1282,2132,3962,-3929,137,-27,-171
1283,-6623,7386,-7510,1352,1379,-954
1284,2180,1368,7082,-107,-825,-392
1285,3035,-6758,-3994,711,-215,-780
1286,4547,-5666,1324,-1481,-1079,-294
1287,-6943,-5368,-2135,-218,-446,-1569
1288,-1532,7343,-4946,-379,-1513,-1915
1289,-7656,4883,-2817,-1118,1134,1970
1290,3434,-915,-1986,191,-158,-83
1291,-6511,2558,-2958,5,1696,1848
1292,7686,-413,-6289,530,390,-592
1293,-7599,-2314,-4181,-729,-1869,1846
1294,-3650,5429,-2268,293,-1960,1035
1295,7033,2965,7345,965,-743,659
1296,3224,-7646,-1932,-1503,-1361,-574
1297,4184,-1105,1312,698,138,-1154
1298,5494,1533,5830,-1189,222,870
1299,-3503,-5024,-2004,-382,-1693,952
1300,3121,-4283,-7717,-1886,-171,-799
1301,7863,3800,7890,1631,1143,499
1302,3720,-3439,-6427,-4,-1192,1639
1303,-4354,-6323,-2579,387,507,-622
1304,-6911,-7704,4600,-1702,-1721,1651
1305,-4770,-6886,-1059,73,-718,124
1306,-4205,-1032,-5591,528,-1838,-1527
1307,785,-3841,-3564,510,1685,-880
1308,7513,-2167,1039,1915,-141,-1269
1309,3737,1781,7202,607,-1975,-376
1310,-4161,6081,-1298,299,1149,-582
1311,-2551,-924,3319,980,246,-866
1312,-6925,4403,-2922,-349,-879,642
1313,-701,-5402,-3657,184,1957,1050
1314,2718,-7693,-7172,1846,-11,-442
1315,-5877,-5326,3180,-1429,1504,-794
1316,86,-4756,-7326,-614,541,1294
1317,5312,1029,1101,315,1471,-1764
1318,6662,-5934,-3733,-1685,-1593,-482
1319,-345,-5621,7265,949,-1745,1745
1320,7562,6956,891,38,917,-1816
1321,-3343,1705,-7843,1533,-1671,-1764
1322,6676,-5759,4718,1103,1764,567
1323,7964,-4921,5532,-1263,1417,685
1324,2898,-7287,-2591,-1053,991,-1460
1325,-3438,-4807,3313,1122,-342,-698
1326,7202,-4998,-2992,-1889,1729,-938
1327,6221,-7806,1360,-1718,214,-192
1328,-3510,-5516,-6717,-127,1446,-1539
1329,6994,5884,1474,-1636,1593,1843
1330,-2205,1281,4878,-1500,-404,-228
1331,4836,7793,-1583,-1869,1236,-539
1332,862,-6503,6123,-398,-1587,95
1333,-2160,-4034,6696,1826,1047,-1680
1334,3358,-3449,-7536,621,638,1389
1335,-6843,7710,-3900,-1500,-808,847
1336,1519,-7378,1137,-787,1323,-101
1337,7673,7626,1660,-1336,-1950,-62
1338,7654,-5757,-5861,1645,-1502,-1796
1339,-7310,2509,-6116,-1566,1814,-262
1340,-2172,5370,5057,-1987,-763,1362
1341,7633,7329,-1451,1291,-1155,1919
1342,3959,5229,6445,289,-1735,1775
1343,5739,-7017,658,1376,-1245,1936
1344,667,-4247,-2572,206,429,-1665
1345,-4064,5442,-1200,-45,456,133
1346,6653,2624,3075,-1321,-243,-255
1347,-6456,7974,1149,1507,662,-696
1348,638,1940,7786,-898,-1726,149
1349,-3997,4058,-3166,-640,513,-1648
1350,-2463,7615,-2149,-1151,-1278,1315
1351,-5800,3305,-897,1377,-1597,-462
1352,-7944,-4579,5056,-671,-238,-1199
1353,1770,-6005,-4592,-513,339,214
1354,-6050,-2639,-1159,-1686,1808,-645
1355,-5016,4507,-6955,938,1215,-1150
1356,-1131,-4618,4430,-1022,89,1529
1357,6612,-6543,4569,-303,1906,1888
1358,-3346,5812,-1707,1460,-1337,-614
1359,1776,3369,935,900,1646,1611
1360,-7844,-6831,1594,492,-591,146
1361,6149,-3996,7828,285,-449,921
1362,6552,-4300,6496,-394,-974,1097
1363,6143,-3132,3193,89,85,1285
1364,5681,1387,4226,1925,-755,657
1365,1043,1177,6775,1390,-348,763
1366,-6589,6232,-1124,-630,-267,233
1367,4560,-3565,-3420,-368,1612,1421
1368,6890,-1558,6518,435,-419,1381
1369,6395,2617,-7382,1268,-286,265
1370,-7657,-4399,3912,438,-46,-1299
1371,5579,-7555,1417,-223,994,2
1372,-2258,5349,4746,-1544,1508,1826
1373,830,3727,-1302,442,-1348,1861
1374,-1253,3299,4946,-767,-871,-399
1375,489,600,3859,-131,640,-417
1376,6499,3950,6051,1949,-34,-517
1377,3211,3203,-3533,-159,530,-1712
1378,-1044,-2105,2100,419,1592,358
1379,-2465,6671,4348,-1990,1262,-1441
1380,4864,-3298,-7063,1774,-44,-1962
1381,2548,1321,5040,1593,1624,1897
1382,7798,-4525,5511,-95,1337,443
1383,1396,3306,4047,1344,1840,-1467
1384,5713,4710,920,-843,-100,47
1385,4448,-5831,-7778,-1424,1122,-1617
1386,5402,5859,1351,1234,-1457,-1857
1387,-7174,3568,-7021,889,169,-1486
1388,-7289,-6568,-3342,-1394,926,-424
1389,1624,-1778,-3767,1599,-1062,-1628
1390,-1651,-7546,-4356,-751,370,-1749
1391,-2074,-875,5553,366,1381,-1246
1392,-3044,-917,-5779,1637,1691,1122
1393,-3055,-2412,1550,-1213,637,-465
1394,991,-7770,-196,-1664,-975,592
1395,-2525,3078,-7726,-1526,1173,-564
1396,6057,1713,-3171,1071,1774,1459
1397,-1808,-4661,1992,1012,-1106,-244
1398,5846,-5531,5099,653,1713,1757
1399,-3338,-5077,7218,1825,-1060,1629
