Sample,Ax,Ay,Az,Gx,Gy,Gz
0,-6717,-1110,-632,1281,1507,-1950
1,708,6628,-7078,797,189,-257
2,699,-37,-4054,-258,-251,-1186
3,-2969,2459,-6359,1280,-810,-1764
4,4716,1867,7507,160,597,-197
5,-3111,4173,-6617,841,-1931,-426
6,5747,5536,-363,94,-792,-1129
7,7627,-715,-3928,-973,-533,1765
8,7547,-7122,6188,1794,1236,-1741
9,-830,2393,-648,-1451,1184,880
10,359,5977,5758,150,226,712
11,-4579,4748,1592,1654,-284,-188
12,2520,3502,-7544,-1706,275,-362
13,-4980,-7489,6513,782,-1281,-822
14,-4290,5253,-515,1906,-1375,1935
15,-6313,-833,3646,-1458,139,-1521
16,-4127,-5345,2431,1010,1498,621
17,-6456,-6624,1177,80,-1526,-482
18,1326,-1167,-3643,-259,-1353,-742
19,-2425,-6557,7767,1583,463,-1494
20,-4995,-1166,-7923,-1268,1334,293
21,2503,-290,1385,-78,1286,272
22,-4070,838,-26,-1708,785,1195
23,1937,-2705,3818,-133,-1413,423
24,2720,-1149,-7027,725,-907,1047
25,-561,-2510,-3975,-964,476,-1116
26,-5852,-6295,998,1079,-1634,1109
27,-1224,-1499,2685,-115,-1891,1480
28,6110,-5087,-6981,837,-1570,-1266
29,-4376,4661,-6171,-1058,1026,1998
30,4931,-5599,-1636,315,1483,-658
31,-4992,459,666,1841,-1510,-1937
32,7038,2187,2192,-266,-799,-940
33,5473,-4790,157,-1316,-257,-1032
34,-2595,-4955,-2941,-653,1501,-613
35,7244,6702,1079,-881,-1829,942
36,144,-4486,1346,-366,-1263,-114
37,7700,7900,1745,-209,-1287,-1078
38,-7978,-6909,34,1724,-1898,1426
39,-2647,115,-1083,589,421,656
40,4089,-5245,4223,410,1107,-1929
41,-3169,-4458,7570,-1876,-1628,331
42,-2572,6023,-4347,-1132,1691,-1197
43,-1186,-3266,1051,545,1680,260
44,-3134,5634,1100,-710,631,1989
45,-1617,2690,-3902,345,1329,911
46,6824,6228,2895,888,-933,-310
47,1259,-4332,2950,631,663,852
48,-4817,4664,-7595,1771,1121,1278
49,6321,-7112,-3049,1223,767,1415
50,-1847,-2533,7522,438,183,277
51,-2723,3197,4094,-1341,-1329,1198
52,-3224,-7474,5219,-1210,796,484
53,-612,-7865,-2808,-1688,1954,-334
54,253,7470,4259,517,-155,-239
55,6642,-1787,-2330,1117,-1414,-1503
56,6439,-6414,2727,1641,151,-621
57,1410,-1518,4390,1278,-857,1432
58,2612,3668,613,-408,1240,-334
59,-314,7673,-7125,1662,-1318,-189
60,-16,-4118,1218,-768,792,-1557
61,-2093,7294,1305,-1536,-1623,1721
62,-4961,5871,-3132,-663,-166,1144
63,-1572,6423,1658,-311,-1505,-590
64,6164,-7904,-6738,384,-1432,1625
65,-5962,446,-6110,-559,-1138,-1789
66,979,7987,193,618,257,1802
67,598,2412,-5307,391,1547,1308
68,-1659,-218,3258,-1029,-1778,480
69,-6710,4815,882,-241,-1360,1847
70,-2024,133,5525,-615,-1904,-1397
71,-6696,-5029,-5847,-407,-1783,1628
72,3977,2663,-6956,831,550,705
73,7404,335,7105,27,-502,-186
74,-402,5407,-4762,-1174,1119,-285
75,-917,-7996,6761,1252,-10,-480
76,-7171,1836,2701,-1306,742,413
77,759,-5798,-5171,1881,-686,-292
78,2890,-5890,-3723,1936,-656,-65
79,6345,2195,4576,812,-54,-1317
80,-779,332,-4684,-1445,1002,995
81,1219,1434,2302,-1899,1506,1187
82,-2357,-4182,3757,1858,-1010,1324
83,-6069,-3402,130,-242,-23,-882
84,-3916,-6336,7552,971,1130,375
85,7256,-6768,-1845,714,1453,1472
86,-6825,-5912,1014,1184,-1708,-1974
87,-6577,-1223,-3579,-126,1032,296
88,2227,5465,1147,1166,80,741
89,-3300,4669,-6386,407,-327,-1463
90,-3134,3051,-1768,-553,-1577,-218
91,6336,5442,1658,1612,-932,-1625
92,7194,-5641,2981,387,307,-1977
93,1645,6191,-5304,-137,-237,-467
94,-5221,6795,6625,1427,842,1687
95,-7728,-1884,-3101,-251,-1893,579
96,-6969,-1035,-1679,1221,-1711,-1127
97,-251,7736,5052,1844,163,1747
98,1513,3892,-5865,979,409,-255
99,-6301,-6303,7526,-1684,-1968,1343
100,3258,499,-1952,-379,-385,-1069
101,7901,-255,7765,-78,719,-534
102,-1531,6320,-4472,623,-376,970
103,3436,-7287,568,-1316,-1969,-704
104,2141,-2036,-377,-230,1726,-1245
105,3077,-4254,-2382,1535,-120,-1825
106,4804,-6370,-4396,153,1366,-349
107,-4784,-6036,-4625,-676,-884,-1652
108,4881,-5987,5632,-242,-1159,893
109,-2999,-1194,6313,-1356,-400,1185
110,-3387,2923,5740,-1980,74,-1260
111,6961,-4044,7543,-178,-1187,1343
112,6355,-1233,-1258,-5,-1506,1732
113,-3217,7633,6594,-1867,1780,-1422
114,6257,-1142,2488,846,-1567,595
115,7820,-2414,4040,1452,-125,-691
116,1718,7758,-2410,-1947,-1975,1074
117,-7556,-4932,-5122,1245,-1998,1880
118,4852,-2145,5464,1283,690,1567
119,-5454,1906,6004,-789,1158,230
120,15,-5946,-2891,-417,-1593,-629
121,5744,6512,6865,1817,269,1699
122,-6829,2560,-7352,444,-1791,371
123,-2462,1706,1882,576,-1514,-454
124,1014,4940,1533,1301,-896,-1842
125,5801,691,-5316,-491,-414,-81
126,2874,-4062,1693,530,-457,-1892
127,4608,217,5869,1387,1483,-1645
128,-1509,-6218,3755,-1875,-629,800
129,-7381,-1258,321,1895,-877,79
130,5740,2919,-3112,-846,310,1954
131,-4617,-4781,-7253,-1442,-1572,292
132,2214,3550,-820,752,332,481
133,-1349,2865,-7194,340,-1964,-300
134,2337,2296,7767,775,1286,494
135,4898,6962,7581,-1034,-1447,-1008
136,1152,-6733,-7156,-448,173,1342
137,4892,4564,-1158,1870,-473,8
138,-4035,-5561,4321,17,-200,-1042
139,-7692,6008,3250,-1625,-566,-123
140,7933,-4425,4452,96,1050,494
141,3503,282,-2306,-1214,-822,-1364
142,5386,-3593,3286,1694,-445,-53
143,-4637,7480,-817,1023,-260,925
144,6584,759,2878,269,-1198,488
145,2327,5224,2761,-1982,-1837,967
146,-855,6830,-3416,770,-1900,144
147,-3750,-6908,-2130,-1564,-774,1086
148,-504,-1462,-5048,706,1089,1635
149,5683,-3184,-196,-1049,-208,-1084
150,-495,-6060,-7507,1705,333,-817
151,5779,-2499,3460,381,372,-1127
152,-4216,-4765,1750,423,377,337
153,-7689,5440,6007,780,-1637,-950
154,7250,5541,-589,-517,-1922,1733
155,-7804,-5212,2237,456,-1715,-172
156,-6514,5993,-2450,-504,1553,6
157,-1760,-2337,6554,439,697,10
158,-1260,7315,318,1516,-340,-1386
159,5631,-5520,-576,-1701,-1886,-1046
160,-5072,5800,1307,-1763,1767,1132
161,-3992,2213,5355,1485,-1586,-979
162,4996,-2476,-3985,1868,-1433,-1956
163,4365,-1101,-1309,-492,-800,-1819
164,3186,-6601,-192,1175,1839,-1865
165,7477,0,4401,813,35,-1428
166,-1249,-4056,-3053,-1432,383,-492
167,-7890,-6419,4727,1795,724,1103
168,-6107,545,-142,9,-1913,1376
169,7621,-6310,-7285,747,-1170,-1963
170,3880,-7078,2789,-649,-845,602
171,511,2040,1651,21,1068,360
172,-6646,-1172,-4770,-1031,641,856
173,3150,-1451,-4944,-66,1614,-1124
174,4376,5964,-83,849,-1519,1819
175,-698,3509,4485,-524,827,1386
176,-2348,-5761,2059,657,-41,1178
177,3043,6931,4582,1786,1669,394
178,-3998,1091,5894,-964,271,1631
179,-2310,1530,7150,884,-634,814
180,-5880,-64,5251,1956,-1085,1888
181,7217,6330,-5042,-657,-541,858
182,-255,4925,6823,-1240,1462,-1254
183,-423,1510,3042,-1729,1204,560
184,-3479,3463,-3308,-340,-1319,921
185,-7138,5860,-6489,219,615,1552
186,-7042,-337,-2482,1195,551,608
187,-6585,-1296,-7441,-1115,-529,-1544
188,-3722,4402,-6641,542,-1918,1354
189,4207,-4733,-5323,-721,-953,-1149
190,-1354,7237,7978,-1244,1721,390
191,2995,6318,-5683,1266,-134,564
192,-5700,-2783,4671,-222,-377,-939
193,-2937,6140,-3796,-1308,513,-1464
194,-3690,-102,7521,-1575,1634,420
195,4721,4564,4138,407,-1776,-1146
196,5141,-2402,-2648,528,-1220,-517
197,-5048,-5452,-4641,503,-735,1798
198,2458,6336,602,-854,-1112,1975
199,919,7249,-3925,-1019,-1248,846
200,-271,4599,-7402,592,-1486,1187
201,-6726,-2608,4972,113,1531,1441
202,-3737,5402,6483,-795,-1846,-1885
203,-4682,-4772,-3959,459,1416,274
204,5305,2448,3267,1158,-1036,1153
205,6746,-5732,5962,953,1282,1579
206,636,2268,-5931,545,310,2
207,923,3586,-4549,689,-679,-780
208,2985,5885,5571,-1082,-371,-1348
209,5404,-6399,-1287,-30,1001,108
210,-2233,-6963,-6549,886,2,-847
211,2185,5615,4455,1729,1837,-1177
212,-9,4136,-7646,-1011,575,-734
213,-4901,1574,-1306,-466,-286,-1717
214,6931,84,5170,-268,-1640,-550
215,-348,5703,-6744,-817,350,495
216,4362,2945,1791,-282,1537,62
217,-3123,6283,-680,-42,-340,-945
218,2831,-1034,3144,1255,422,1075
219,5957,-4933,-4125,217,317,116
220,5563,-6954,-6502,9,-1561,912
221,6132,-3233,-330,1104,-1412,-1274
222,-3625,-4580,-581,-1536,1771,583
223,3162,7209,3510,602,-408,393
224,3976,-7814,2273,-579,382,1058
225,-3667,5131,-2216,-504,-1010,1042
226,2165,2785,-2098,-1451,966,-153
227,-6819,-4895,-1804,917,-807,489
228,-1014,5715,7687,943,246,-1044
229,3374,7339,-2126,1478,-1805,911
230,1181,-6402,524,1688,749,-823
231,7781,1163,6294,741,-215,-674
232,-5476,-3644,6677,-893,1441,-1407
233,3343,-5766,-5828,1044,286,-454
234,981,573,-3815,-627,1057,647
235,-6853,2064,7157,-397,-1074,576
236,-7217,-6801,139,-981,-1815,940
237,1425,-6491,-931,-967,-1958,1130
238,-3372,2585,-7816,-168,1380,764
239,4801,-1619,-6950,-1090,-772,-1572
240,3578,3976,463,896,-1177,1469
241,-5938,-103,4702,-838,-1346,1176
242,-6111,-2409,-3767,-721,969,646
243,-137,5119,-2083,794,1745,951
244,-4072,-4561,2525,-1114,1013,557
245,-1221,-1507,7595,1008,1266,1690
246,2457,3150,439,1902,-1773,-1966
247,-663,3070,5166,447,381,1492
248,171,870,-2140,-692,-1946,-1341
249,4026,7796,3475,1296,-1608,1017
250,6184,2093,-6983,1692,357,-67
251,-4556,-1095,-6657,1545,-1836,-191
252,7419,-7585,-5357,-1895,-716,1007
253,-4509,2815,3719,541,-569,-944
254,-3842,-4853,-6718,-247,244,675
255,-3602,5312,297,90,-971,887
256,4454,7551,878,-704,-657,-1342
257,2783,-1561,-3099,770,1477,-652
258,7767,-5445,-7394,-1076,-1654,-720
259,3386,-3668,2138,1652,-94,896
260,-5232,5903,600,914,-1014,-207
261,4451,-1893,7258,1584,1357,-647
262,-7406,7013,4946,-1126,1314,-1624
263,873,5800,7281,-1511,179,1291
264,1637,3661,-2368,-841,228,-1294
265,2273,-1387,-5005,-516,-1674,1124
266,7363,-3143,-1162,397,333,-1972
267,-1551,-7992,-1503,1269,144,914
268,-3223,2654,-569,-144,-714,-1725
269,5453,4845,-5063,-434,1558,1038
270,-5844,-1146,-7193,135,-229,-348
271,4293,4006,-2095,136,-1716,-1320
272,4554,7478,-672,-361,-1207,886
273,-5193,5199,-2176,-314,-1885,221
274,-2572,-6240,7012,747,1431,-833
275,7112,-1583,1271,-1455,-847,-1688
276,-154,3101,-5772,-1477,-539,561
277,-5204,5167,2738,-1908,-910,-1785
278,-1424,293,-4766,1753,623,573
279,-4177,-5719,-6133,-1050,-1733,78
280,1744,5112,-4289,1904,-1035,596
281,-6743,4827,6943,-1600,-1407,-1241
282,-7174,3511,3656,-52,1961,-1028
283,-5315,-6006,4407,-810,-695,1587
284,4148,5275,3655,-817,-824,1346
285,1484,5404,-5354,918,34,-1131
286,-7033,-4735,-6850,395,-1204,-1119
287,4180,-3716,607,1155,166,1912
288,4181,1932,-5761,275,1086,-399
289,2592,-566,-1403,-854,1186,-282
290,-2880,-2787,-473,-742,701,-710
291,2487,518,-1470,1246,197,-1890
292,-576,-1739,-7272,1536,883,-1274
293,5081,777,612,-986,-640,-426
294,-2385,-2676,-5474,-1163,-441,-1768
295,-3162,4056,-4207,-1319,664,1173
296,-5607,2095,1342,133,-74,1702
297,-1560,654,7725,73,-857,-227
298,-3244,-7321,1643,-1597,813,1214
299,-6088,-314,-5916,1563,-1516,1161
300,91,-6436,-7591,283,-1462,1554
301,7696,7282,5115,-252,1633,1508
302,2758,-3799,-7432,1977,-490,763
303,-6740,5806,-3056,-195,1337,1239
304,-3921,2761,-2114,1791,389,1478
305,1004,6799,7782,-1237,1302,47
306,-4842,-6948,5058,946,-1572,1735
307,-1688,1089,375,-961,175,416
308,5831,-1274,815,1198,-1770,-1840
309,1567,-2441,586,1488,521,1273
310,442,-3810,6520,921,1009,-1328
311,-4291,7674,-3887,1759,1393,-1223
312,-5238,-7479,-7891,1260,-1246,-808
313,-3014,-7187,4416,-852,515,1766
314,6107,3440,2314,-193,-1344,-1209
315,-4679,-6982,-5894,1598,-1978,1569
316,-1191,-2857,20,1238,522,687
317,3051,-7301,-4607,-461,-1273,711
318,-5013,2309,5848,418,-1802,5
319,1721,-3444,-3450,-1587,-1054,-903
320,-997,-553,-5090,426,-1603,-724
321,-6844,4428,-4178,1038,1162,758
322,-4678,5304,-6895,303,69,-229
323,2088,372,-3793,-1707,476,-1289
324,7228,-86,-339,426,-1444,431
325,4088,4618,7191,-318,455,1175
326,1800,6550,920,-918,388,-1909
327,-3349,-3138,-4273,-1822,-1035,1011
328,7829,-4300,-5704,881,-358,-1968
329,5509,1982,7227,-1527,1014,-233
330,-5761,7893,-2425,-465,1947,-1345
331,-3429,2381,-1529,796,-525,188
332,-4427,3694,5914,379,-239,1258
333,3623,-6004,-4459,-622,1928,63
334,4167,-2041,-7227,1252,1821,-1881
335,1035,5526,2953,-617,-1775,674
336,925,-5220,-6777,-893,36,-1079
337,7362,-2743,4335,1784,-31,-1101
338,6891,2313,4899,-514,-1860,503
339,6870,-3860,6472,-1128,-1889,-986
340,7563,3828,235,-1344,-1798,870
341,7129,-5127,-7508,865,-1248,-1689
342,5929,7796,822,1138,-314,1429
343,-3026,-7545,-6756,-1881,1527,-550
344,7476,-5725,931,-1189,1899,-1527
345,-1454,-4839,-2780,-1130,-476,-1305
346,-4374,-5461,-1787,1834,-1129,1218
347,-6144,-210,-1504,-1018,-1722,1171
348,2338,-5733,-7633,-1113,735,-245
349,-7656,5446,4493,-1034,-25,-1281
350,-5984,-7640,-155,385,-1936,-770
351,7901,-8,1947,-1839,-1653,-945
352,-3211,2542,7238,-878,-120,-801
353,-4815,-1151,5422,1720,-677,-558
354,5372,7179,-5045,1506,780,-514
355,2778,1060,-5267,1051,-1835,-961
356,26,1777,5188,1544,886,638
357,-2473,-1438,6976,1767,-245,-767
358,6414,4122,3013,1984,-1194,-1318
359,-1128,4950,4281,217,1831,-1145
360,7016,7578,-1859,-634,1972,-486
361,7534,4122,3744,-1821,-201,98
362,4026,5179,-1545,187,-709,1972
363,-5954,-5493,-1939,-161,-450,-1365
364,-1499,4887,6199,-1954,737,150
365,-4210,-6031,884,4,-1265,-787
366,4706,4647,2875,-777,830,1248
367,-532,6613,-1664,-925,329,291
368,6007,-7081,-280,-1313,1103,173
369,-6114,5043,5447,863,189,-20
370,4271,-1390,-1848,-348,1773,-1509
371,6390,6404,-2872,1323,-596,-1451
372,5830,-2711,-7670,-542,721,-1644
373,-2139,4670,-4393,1472,-189,-368
374,2210,-6351,5243,1057,-380,-1932
375,-3559,6368,1248,-1569,1462,-229
376,-6545,3375,-5248,-1473,1252,-1224
377,6728,5976,-5020,-423,1873,573
378,1408,-5841,892,479,361,909
379,3644,-6851,804,230,1031,1435
380,7291,-5062,-4813,1597,-1240,383
381,2233,-3447,625,326,-1573,1807
382,4180,-148,5988,1323,-1905,-509
383,4531,-2916,-7155,1928,1425,385
384,1728,-6676,-5870,332,-1455,-766
385,-5123,6484,-6822,503,85,-1696
386,-3201,-6167,7817,-1146,984,1907
387,-4612,-5290,1255,-1915,1571,1635
388,-7099,-1154,-5413,1708,-89,-814
389,6043,-7455,5276,1346,-895,1218
390,465,-6029,-5036,-1281,-1483,-181
391,1280,82,-438,-1395,806,1736
392,-5729,-6456,-977,1609,208,579
393,-4286,6312,-2364,-1833,759,1129
394,3522,-1893,6150,-1975,1339,-536
395,-7472,6443,3453,-1480,-1673,769
396,965,6632,-2521,912,446,-1139
397,-6791,-227,4015,1983,113,-1464
398,-4208,166,-6591,-299,970,-934
399,147,-1845,409,-609,-64,-1673
400,1273,-4912,-1858,-1550,191,-1712
401,-2289,-498,5084,-1967,1125,1633
402,-558,-2439,7051,1782,-787,128
403,6977,-3317,4518,-16,1057,1587
404,4869,926,-7455,508,1823,395
405,987,-5504,-2208,-739,-1452,1829
406,-3783,951,-561,295,772,89
407,3787,-970,-4527,1862,-1370,235
408,1253,6725,176,-241,858,223
409,-815,4359,782,-550,-1891,1723
410,-4079,4130,-4856,1091,363,-745
411,-1205,5633,6310,-1786,1795,-1947
412,7002,-2016,-6257,-1977,-695,-293
413,-4086,4684,1936,-61,-1369,929
414,-3374,-5329,-6076,1927,-600,1936
415,6926,4943,2486,-1365,636,-1007
416,-6728,6503,5788,-692,-1927,582
417,2567,7154,6482,1509,1092,350
418,-234,-7614,3774,287,-390,-943
419,2160,-2768,3801,985,-1743,1099
420,1112,-157,3810,1673,1895,-1092
421,196,7125,4424,-616,-117,-647
422,4193,-1857,7544,173,1448,-402
423,-4730,2236,-2498,-601,70,1797
424,-3153,5411,-81,-237,1423,-915
425,-251,3757,52,417,1965,-1903
426,4232,920,6064,-1171,1243,1995
427,3273,-2540,4651,1594,-848,-1913
428,7785,-2054,-5324,926,1970,1239
429,-1110,5514,-644,19,1459,1070
430,-7276,-6209,-4355,954,997,-14
431,-6420,4453,-4077,1799,-413,46
432,-595,4451,-7894,-543,14,474
433,-4001,2404,-475,-1751,1744,-1411
434,3637,3968,-1221,940,-1752,-1864
435,5023,-4830,7676,351,680,445
436,6914,-6501,-4436,1752,899,1583
437,-6021,1525,5530,-1526,-1406,-764
438,1483,6540,1352,-1715,1346,-1968
439,-4669,-2239,-3410,-1178,1428,1152
440,-1480,5825,-4401,-1907,1488,828
441,-4826,338,1825,-1561,846,-1244
442,6381,-4392,1489,-99,-807,-1402
443,2827,-6459,-6612,1835,700,-1528
444,1153,-1462,1272,-940,210,1948
445,3648,1074,6312,-1748,-828,-1147
446,-6541,5418,-1306,-107,245,-1971
447,5045,4554,844,6,-617,193
448,-1341,-5700,6090,1711,1094,-1579
449,-4367,-5390,3968,-1157,548,682
450,3131,343,5801,44,990,-1544
451,7520,-4879,5630,-1845,1134,1519
452,-1490,-5620,-2650,1280,1403,125
453,-4196,2242,-4637,-1263,-1909,187
454,5317,-3926,-7256,-1174,-1731,-15
455,7676,2067,-3930,363,-810,647
456,5664,3548,2969,1871,-1334,-270
457,-4964,-7092,1788,610,-1579,-937
458,5215,7469,6877,993,-1399,-443
459,2525,1164,-1333,-1030,508,-231
460,-1213,-4402,6847,-1527,-109,-1185
461,7015,-3184,-1695,286,1378,-683
462,3969,6784,6987,1981,555,-964
463,-347,4915,-3295,-48,-1425,1955
464,1674,-4008,4398,-1955,1976,-1725
465,-6915,-416,4513,-726,-131,-1421
466,-4042,7341,7718,546,-1896,256
467,5227,5873,1934,-2,-659,-643
468,-956,2546,-4138,500,225,-1162
469,4459,-5784,2024,626,419,-1247
470,4853,154,6820,-329,-1528,740
471,-7692,6158,2339,1034,857,-390
472,-4052,7555,-1829,1570,-1445,243
473,-7485,-2556,7540,92,1496,-439
474,-5698,1417,5341,1410,188,718
475,7136,5951,-7193,1347,191,816
476,5204,4944,-5676,48,-546,372
477,597,-2713,7239,-1157,-1174,1067
478,7828,-4639,3517,-250,657,1969
479,2078,-4916,-2578,-1665,1320,-1343
480,4763,-7487,109,726,213,-477
481,-6228,7471,2514,1703,761,-1986
482,-1182,-2849,-4864,-1228,601,102
483,2870,4956,-3157,288,801,-486
484,879,1393,-3885,-1927,581,-249
485,7000,-5125,671,-88,-1465,959
486,6680,-2923,6763,-849,-149,1520
487,4331,4750,6159,255,-193,-664
488,6610,-6644,3481,-1007,1190,305
489,-55,-3267,2181,1022,1297,631
490,-5937,1644,6196,-1356,1985,154
491,1083,-56,5448,1526,1091,1392
492,-359,815,1582,1254,-1553,-1864
493,-3923,5987,4272,-1607,-1164,-1839
494,-1095,1238,7021,1880,1016,348
495,5008,6089,-1669,-198,-559,-1887
496,6540,4778,-3064,1755,1034,-1154
497,-6248,-2476,-1316,192,-1281,1829
498,-3460,2603,2779,-1444,-1521,-201
499,-7392,2504,756,-1423,-1204,-179
500,1411,-3449,-7531,8,-1918,-820
501,6468,6773,2336,346,527,-51
502,-4039,-6032,765,1431,1681,-1185
503,2778,-2938,-783,265,153,504
504,3348,4594,-1599,-31,609,1457
505,-6292,1150,7338,1687,-968,1555
506,-4250,6673,3552,999,33,1111
507,2842,4557,-5110,162,1009,1774
508,-664,-1952,1290,-568,-1366,-1342
509,7261,3546,2045,-1491,-1167,1664
510,4006,5342,469,1282,1224,1422
511,-3725,3288,436,-912,-1771,-1150
512,408,-4360,-5668,-252,-691,864
513,4944,-584,-1869,-435,1461,-1071
514,-6349,-7294,6257,-609,1436,-574
515,-150,2611,1733,-914,362,1344
516,395,506,-1492,640,0,-106
517,1069,-5937,337,1392,1263,-1643
518,-6795,7162,-593,-1193,-1804,1013
519,-7524,5680,-3047,-832,-471,1622
520,-6854,-2517,2332,307,-422,-1809
521,-1627,-5192,-6772,691,-893,887
522,-2126,-2771,-6818,-675,-1000,-779
523,-5903,295,-7044,573,450,1273
524,-6881,2103,-512,157,1199,-838
525,5991,-6167,2181,1078,1958,-226
526,3747,7718,-2929,150,1757,-1998
527,-5472,-6202,-6434,-662,-1671,572
528,-4639,2258,-81,-277,-710,-39
529,1317,-3712,-6088,-293,-1079,-219
530,-5541,-7995,163,-1515,1478,1488
531,-1286,3518,-6448,1990,479,-1942
532,4733,2705,4732,-218,-1526,-239
533,7046,5359,4233,-1458,-664,298
534,-5235,2343,-7816,964,-328,1833
535,237,936,6957,279,1312,156
536,-11,3714,-5318,-1163,1378,1456
537,-3447,-3064,325,1444,1950,92
538,-27,1686,6887,1021,-1589,771
539,4489,-2667,4660,-1530,-212,1089
540,1307,-6968,5910,-1972,-1053,1443
541,2514,98,1608,554,-659,-880
542,-1102,4470,-5710,1312,1533,-1171
543,3748,3524,-3573,-1655,1033,788
544,-6064,6988,6128,1579,721,1899
545,-1546,3789,3311,780,-1229,-1702
546,6491,1488,3878,450,444,553
547,1551,-122,-4436,-113,1615,-1576
548,-6266,2729,-5819,-1780,-1123,298
549,1628,-1182,5463,92,1544,-774
550,3630,4896,1572,1945,-1167,-453
551,2066,-1942,-2778,827,345,89
552,5234,1524,3840,-910,187,754
553,6745,-6877,-4150,1284,-254,-600
554,-23,-668,5846,1987,-1634,674
555,-6971,1217,5724,1354,-269,-939
556,4683,-6518,-2211,740,629,-620
557,-2493,4698,-6068,-486,-1697,-190
558,-2515,-2422,-6142,-1175,1067,955
559,6629,-917,-7820,1936,-1643,1050
560,-153,-5475,1562,1326,-1385,830
561,4378,-3582,-5659,696,1997,1538
562,-422,1113,6118,1114,-1472,73
563,-3983,1723,-1491,713,-1961,1553
564,-6100,-2201,2001,-1726,724,-1084
565,-3909,34,88,-400,-748,597
566,7986,3840,-2613,595,728,1100
567,-5274,6127,4238,-1692,-515,1793
568,1178,-6507,7060,1519,-733,782
569,-1431,7675,-2911,-1852,-1865,-1340
570,7129,-3253,3037,-2,-614,-1596
571,-2641,7641,3563,-917,-307,-666
572,6785,4611,-1179,1200,1779,1976
573,7319,-2828,-3571,-1965,1453,335
574,-4610,-2115,-836,-1454,479,1114
575,6645,-3014,5867,1216,1813,913
576,1986,2914,-175,-1947,-1389,358
577,7577,123,7012,1037,-1708,1557
578,3239,-447,-1821,-1840,990,1329
579,-7134,-4003,-4773,1618,-1529,-851
580,-7358,2491,5656,-1662,1606,1706
581,3896,-1163,-2005,1373,337,710
582,2850,3806,-7141,113,857,-1255
583,-2010,-7192,-3507,-674,-1659,-763
584,7996,2673,3785,1338,1112,1778
585,-4949,6139,1687,1267,453,414
586,7773,7002,3353,1615,24,-852
587,-3468,-4067,976,-276,-1946,-608
588,-7354,4281,-6682,1362,-511,832
589,2184,-6822,-6785,-52,-614,151
590,4488,-5971,-1430,711,496,588
591,124,6824,3652,1248,1510,-53
592,4260,4121,4071,-1310,678,674
593,6687,-3692,-4284,542,738,124
594,-4655,5694,3035,-1178,-1416,-1849
595,3486,-2525,-1812,-491,1625,-1699
596,-7247,1836,7542,-439,1900,702
597,-283,-7329,6711,779,1403,1561
598,802,6762,-1508,-934,476,1904
599,-1713,4099,6704,1723,-1240,1404
600,2091,-7645,-5325,1803,1596,-1364
601,5084,5650,1437,1381,274,167
602,5509,-5843,-79,-1660,1434,-1740
603,6457,-333,-4049,224,-1313,1427
604,-657,-687,-5130,-210,153,932
605,-3737,-2292,5842,1127,837,-1545
606,207,4313,2794,1842,1639,1882
607,2740,-5342,6022,-723,-927,-1013
608,6696,-7857,-7377,-1334,1016,-1302
609,-7368,-3364,7117,-202,1527,-1265
610,1929,-7560,6882,1884,-1373,807
611,2370,-1660,4709,852,-1749,-888
612,-5079,-3899,7859,-1865,407,1622
613,-2929,5883,4762,-1988,1608,-1629
614,-7838,6611,6855,3,-1841,576
615,-2035,-3737,1812,1736,531,1130
616,-4874,6785,-4678,713,1665,-583
617,-4671,-5518,-150,-809,-976,232
618,7269,-6062,-4966,-595,711,-543
619,-7684,6463,887,305,-847,-27
620,7535,-5657,-6772,1041,390,-264
621,776,1829,5426,-855,1351,-1567
622,6652,-3526,1074,1001,-95,-93
623,-951,-3197,-7344,1531,-909,-26
624,7732,-7870,-5063,-1568,-1112,-634
625,-4810,3175,4595,-988,516,832
626,-7076,-7867,2506,-1497,-466,178
627,-7910,4466,-2950,220,790,-497
628,-1854,-7620,7667,507,-961,-158
629,-5097,2521,-6878,403,-171,1728
630,5059,-3594,2521,-1561,-555,-1092
631,241,-7347,6830,389,1936,506
632,2216,5503,7066,1695,-1008,269
633,-3788,441,3479,585,1266,901
634,1352,6273,-5258,486,1846,-1221
635,4980,-1456,5030,1371,-1068,992
636,-2370,-212,-1206,-1112,1105,203
637,7727,7945,-7624,-222,1966,766
638,754,5702,-6437,-165,-1558,-1406
639,4808,-4970,-634,1009,-1068,-758
640,-1541,5721,6866,1595,-296,-1400
641,-3213,-4668,1638,-212,-389,11
642,-2104,7563,-1771,918,-1191,987
643,-2125,-7009,-1033,504,-1149,1121
644,-3888,-7011,-6188,256,-1254,-1092
645,-1429,3762,3242,-934,1775,-710
646,-6027,7092,-7504,-460,-1718,1624
647,-5679,590,-5723,-122,448,121
648,7541,4617,5402,-160,581,843
649,1866,-261,3020,-685,1164,7
650,-5168,-1999,5938,1705,-1692,263
651,1920,5737,131,790,1942,-1168
652,7361,-7391,-7739,-1658,1278,1614
653,-2357,1992,-1646,-1116,-1202,1188
654,-111,918,4806,-334,-1336,219
655,-6239,-3862,2801,1484,-552,548
656,-2375,5910,-7855,-1107,310,-372
657,-1733,2321,-137,-445,-17,34
658,-4037,-1911,5858,-1240,-1782,-97
659,-6145,-1620,-2105,-1578,1155,-140
660,-4163,6338,-2156,1934,-55,-690
661,578,6473,1650,-863,623,-1300
662,-107,7960,4819,-1121,-594,927
663,-1123,4763,-4529,818,1497,1199
664,2066,-1393,-5158,-630,1350,1743
665,6014,-7068,5526,-281,1116,-1794
666,5354,-3499,7316,1160,-834,125
667,6310,113,7238,-1053,-1807,781
668,5039,4708,2913,-1471,-1111,-1412
669,-5234,293,-6579,674,-1110,-848
670,7921,4433,5677,-1465,-59,-1825
671,-542,-4509,4394,957,-1936,-1928
672,-686,-516,74,-378,26,1336
673,-7408,1595,-7973,792,37,1632
674,1433,7248,1203,-1513,-1324,1366
675,1682,-5038,-7193,748,-1043,-1238
676,-5474,-1278,-6070,-1760,-1872,610
677,5729,4705,-55,-1856,-851,681
678,-4797,2713,-5965,842,-1551,1425
679,5891,-1538,3156,795,1730,-581
680,-5383,6311,85,-572,-1683,1178
681,-127,3904,-7179,146,-731,813
682,2653,-1424,-7208,212,1678,-86
683,-4042,879,5288,-1540,-1551,1415
684,-7630,6311,-4543,-1464,-1719,-1982
685,3277,2787,-6994,64,916,-1409
686,-1362,6777,2630,-1621,-1465,1924
687,-72,6741,-7525,444,412,231
688,-4193,-6998,649,-1656,1161,-396
689,4025,-7648,-7911,-1572,-2,-517
690,2399,-1481,-2388,-1068,1363,-807
691,4458,4279,-3333,162,-36,936
692,-4598,6430,-981,-64,832,276
693,-758,6978,6120,730,188,1276
694,-6234,731,-6755,-138,1891,-586
695,3162,-399,-2754,-550,-456,74
696,-148,2491,7425,-1369,1753,1657
697,-7531,-2940,5698,1393,1648,-1536
698,1134,6574,-4081,-645,-389,-1821
699,4353,2994,-2618,1277,-767,-1376
700,169,-3745,-7540,-1096,201,-844
701,4015,3181,2038,1651,61,1769
702,-5353,-6359,7194,423,-1541,-1461
703,-3433,-3373,2473,-1926,-590,-665
704,-3775,1543,1395,-1426,1979,-389
705,3466,-4441,-2757,1029,1980,-1303
706,-5798,4633,1499,339,-647,1697
707,1392,6357,7526,-154,107,-1161
708,-892,-6525,2593,1027,534,-785
709,1223,-6793,6001,-1100,94,-499
710,5089,6426,-2276,1381,1692,-1327
711,-5392,-3808,-4456,1235,1204,1917
712,-660,-345,-5039,-1292,1220,-538
713,-1927,-2562,5498,1138,-937,-625
714,6373,-8,4862,-1305,510,817
715,6245,7654,-750,-1528,1112,728
716,-2627,7372,6909,-1397,591,-1155
717,-1009,3437,-1922,-1209,-1610,1529
718,-7663,-61,-3338,274,1828,185
719,3019,-7657,-544,-966,-1473,-813
720,-6135,2039,-3652,2,805,-808
721,5938,2260,734,956,-762,10
722,1059,3916,-7477,1388,13,1699
723,4085,7250,270,-1804,649,536
724,-2436,1001,7925,730,-1151,-172
725,5710,3598,-4542,1155,-207,1081
726,-6233,-4932,-6831,-419,223,-927
727,-7214,6730,5078,1621,-773,-372
728,-1570,-924,7527,1828,315,873
729,-1692,65,-5215,788,1120,-1164
730,-2757,-2682,5229,139,62,595
731,1628,-215,-6043,1947,-282,-1339
732,2732,161,-4379,-1033,-12,-386
733,6742,3541,6128,-793,1283,1672
734,-2952,5023,147,-1173,1833,-1530
735,-907,4006,-7938,-73,-1884,1502
736,1551,1254,-2829,1600,924,304
737,-7131,-7530,-6241,904,-1299,-311
738,-1924,-1781,-7862,753,102,1392
739,5863,7389,-4406,1945,-355,1798
740,-510,5446,-445,1890,-1157,-937
741,6153,-6478,-4685,608,-1291,1119
742,-7097,1753,-4143,1484,498,990
743,2153,-5655,1866,1645,-256,-814
744,-6794,4145,-5794,-1260,-1768,-147
745,5633,-1472,3275,-247,728,262
746,7212,594,5195,-701,851,1947
747,-396,-4519,-462,-1614,-1719,969
748,-6023,-6725,-1510,-505,423,1496
749,5065,7269,-1224,1844,1730,1242
750,-3861,-3022,2571,80,1905,538
751,4272,-3796,601,881,-950,1990
752,7292,3459,1646,-120,1435,1952
753,449,-4780,4517,-612,642,-805
754,-3567,-7328,-2652,309,1872,477
755,-6202,-7950,-5217,-706,860,-47
756,-4667,7600,-2232,-118,1393,-1308
757,-1018,-368,-1917,-1046,1779,706
758,-2260,5546,-1023,216,488,1535
759,3349,6235,-5042,-1076,-1686,-1647
760,7894,-6120,-7772,-1044,-1602,552
761,-4061,-228,-1809,-362,-1611,302
762,-7981,4690,5963,-1392,160,-784
763,-4875,-6224,-4404,381,-1073,1336
764,-5608,-2252,881,1624,-1615,-1319
765,2580,2948,-6728,-555,1491,-1719
766,431,5851,3193,469,-1478,699
767,5850,-2490,-7922,-804,-34,-1808
768,-6550,1508,-2434,-139,-1454,326
769,4167,-966,-7319,1793,441,-1676
770,-7853,-2303,7125,1147,318,1774
771,-4216,3612,7215,226,1151,1129
772,5979,-728,-3016,-1236,-233,-1517
773,-6853,5366,-2639,1877,-1805,-6
774,-5320,-2750,-3377,182,-806,-1917
775,338,-2564,-6003,1296,1138,245
776,1971,6568,4607,1509,-1881,40
777,-2093,-3195,-1938,-1676,1519,-1299
778,1019,6464,4621,1350,1101,-542
779,2626,-7396,7130,-47,1965,1610
780,4972,-6428,7258,1050,1524,-337
781,-767,422,-2759,697,538,1324
782,5093,4510,-1220,1530,1839,1131
783,-3462,5067,-3333,263,-1087,-1633
784,7642,5590,-3546,1209,-1853,-726
785,4505,2544,-6349,409,-682,-85
786,4988,-3241,-7293,1086,-774,-780
787,-1366,-166,-5472,927,1149,-1463
788,-7036,3935,-467,1232,-185,-1178
789,7482,2522,5747,-834,-948,-532
790,580,6917,957,1837,1915,-63
791,5688,2373,4659,1480,1200,-1487
792,-6325,-2262,694,202,-721,1277
793,-1854,2807,-2189,1995,1278,-367
794,4323,-4788,7815,1278,741,1410
795,1810,392,-7145,-556,-1852,1070
796,-702,-655,1346,-608,-53,-482
797,5389,-2563,-2171,-774,1522,-1243
798,-6592,912,-952,1499,-1348,-1859
799,2742,-784,-845,-1118,1820,-1476
800,7799,-4328,3980,1820,640,-1524
801,1912,-7990,763,-1457,-438,1478
802,1380,4938,-3407,-415,-884,-592
803,-3647,5859,-1002,-1852,1883,911
804,-6910,-589,5412,-1550,929,737
805,3287,4464,-4351,-772,803,359
806,-41,6399,2146,-1632,637,369
807,-5566,161,-4329,1740,1788,-808
808,-5757,1010,4535,-1779,1189,1649
809,-2560,6709,-7438,311,-461,1244
810,-634,-6087,3611,1750,-409,-1588
811,-6943,7415,-5654,-1276,-1194,1607
812,-2672,1543,-4388,1838,-469,1693
813,-5372,-954,-4267,-634,-5,418
814,-3637,493,5583,1575,-1482,-1864
815,4780,-7619,1070,-349,-1904,418
816,6944,-4598,4137,787,580,-141
817,-1070,2993,6090,-699,-1079,-1118
818,-6917,-3355,-1932,-586,-1218,358
819,-7575,2161,-2978,955,148,-1116
820,-673,-7493,7473,1374,-326,-358
821,-7822,5191,4998,-1835,-1123,1629
822,2557,-2987,236,-1305,1960,731
823,-1440,2785,6038,-1699,-247,585
824,7492,6977,-4305,-31,-1746,1456
825,-4900,2281,-1238,723,-597,256
826,4907,4678,-6635,-629,-69,-691
827,7501,7365,-7586,-1967,120,115
828,-2732,-7200,-1635,1506,-1860,-1267
829,-317,6372,1093,-1762,115,546
830,-6484,-1952,2649,-1812,102,1019
831,5145,-7041,3726,-119,1797,729
832,-5726,3990,7157,-1870,639,437
833,-2455,-7504,2690,1006,-633,-122
834,-6273,484,-1805,1591,1995,-209
835,2191,443,-4134,1455,1499,1313
836,-6214,940,-3017,1621,249,-1412
837,-1287,-7499,6011,-606,80,146
838,7630,6227,6528,-256,146,-1068
839,2776,-5691,1658,403,545,-569
840,6965,-1349,128,-998,-1527,-613
841,-7095,-5332,-3277,-1728,1332,-1601
842,-315,3633,911,-395,-1578,211
843,-880,-1624,-3321,-1262,-1160,906
844,6079,-7221,3999,-1325,1846,495
845,6156,-5180,-4707,-765,190,-1298
846,-502,-4785,-2746,-1290,319,1490
847,-3318,-4294,174,-1128,-1469,186
848,-1661,5216,-3021,1660,714,-522
849,-5825,-2458,3390,-1019,-726,1385
850,656,2246,-6204,877,-409,-1655
851,-7648,-2397,-3717,1525,-1609,190
852,-1449,6484,2222,-14,1410,-366
853,-6959,-2035,4348,-1543,-702,-1823
854,-3504,7229,642,1127,974,-79
855,3000,170,4965,939,1789,-1174
856,-3184,-2226,4182,1250,-524,-720
857,1223,-7845,-4637,1431,1002,-1464
858,-4786,1477,-2470,-1080,231,1042
859,-5476,6180,617,905,-501,1077
860,-766,-522,401,-399,1403,893
861,4532,-7030,-3909,-1317,-782,-304
862,2450,1708,6122,749,-325,691
863,-7034,4045,4420,1423,966,-1537
864,-6274,2684,2296,1162,1707,-1480
865,7264,2581,-7997,483,-1378,1971
866,1410,4970,685,1152,1274,1260
867,-6778,-6278,1464,-1371,-534,260
868,-7682,5656,-4808,-1634,-312,1155
869,3536,-4210,-3041,-855,1823,1733
870,5831,102,4963,749,-596,1000
871,-4863,6159,-7813,-978,1187,210
872,5927,1594,-4393,1851,-1998,1693
873,-5188,7757,1919,-1166,-984,-1036
874,6979,2901,256,606,-1692,1421
875,-5509,3225,-7665,1025,1300,606
876,3467,6507,1240,-924,-1483,-1827
877,-5558,2195,-6637,1567,-1576,1479
878,5462,160,34,346,988,-22
879,6775,-3651,-4330,-567,1135,-956
880,-386,1066,-928,-1026,-1209,1924
881,3217,-4672,7809,817,154,-749
882,7489,-2910,1523,-912,-1805,1283
883,-2515,-908,2784,-630,434,-561
884,4263,-3054,-531,-1077,-1661,-1690
885,-7185,2583,2421,1557,-938,95
886,-6111,-2411,5867,-1639,1601,734
887,2193,1895,-7660,157,1473,-1649
888,-7517,-6158,7611,-939,-1396,-63
889,-5263,567,2571,247,-791,-1130
890,-1987,1821,-3992,-174,622,-1740
891,-6750,4330,-3502,-654,-634,-1883
892,-5667,-6208,1397,-1195,-1428,1258
893,6547,436,7827,-544,-171,-701
894,-7702,-5925,1738,369,20,693
895,6032,-7086,6728,-1385,1325,-1166
896,3127,-6312,-4504,482,-1194,-1656
897,-4733,1682,-601,1070,-1338,-1422
898,3203,5200,-7735,1751,458,1026
899,-7885,-2960,7549,-1996,1684,1993
900,-4309,4498,-5012,-210,-1538,773
901,2721,3791,1883,-973,235,-1795
902,3401,-7998,-6844,1976,-720,700
903,2702,7027,-5550,-537,1677,868
904,-3052,4140,5148,-403,-791,-598
905,6343,-9,-7684,-347,1984,1659
906,-1991,-6438,3056,-706,-595,-893
907,1213,-6681,-2922,776,1642,-102
908,568,-99,-6405,-344,-814,-903
909,-6672,-3518,2428,1838,-567,-144
910,-7581,-4656,-7969,1849,-1735,428
911,-730,4706,-2681,222,1836,-1408
912,31,7711,752,-1771,1841,-1747
913,4628,7610,-5119,-1623,1733,1294
914,1193,6466,6067,210,1887,-163
915,-150,2849,-4891,-896,-1648,1589
916,-4118,-642,-2171,1220,1622,-693
917,-4969,-3379,-7966,-1630,23,-1962
918,-4942,7942,997,1893,320,704
919,5355,-1680,6613,-1238,-285,-1431
920,2761,4782,-4337,-1097,1859,-1523
921,-7606,5215,-5465,-867,-452,1939
922,7530,203,6876,1327,-1662,987
923,-472,3691,1191,-734,118,-1318
924,-387,-4276,-4141,1600,-1766,963
925,700,-7444,4350,-422,527,1968
926,-4923,2956,-650,-857,-1622,-1357
927,1254,-2615,-127,568,1951,-1345
928,2115,-315,-4416,116,1648,761
929,-4857,-5929,3400,1792,1858,905
930,1918,-3645,-2930,-1888,1841,-308
931,7429,-154,-5753,933,-1729,-47
932,1365,2260,-405,35,-1988,1087
933,2542,4748,-5333,1680,1657,186
934,6313,-3166,1631,1862,-345,677
935,3333,3509,-6298,-1422,-266,244
936,-4911,-660,-1058,-1005,1121,-1416
937,-834,-4175,2320,377,-1176,-1647
938,951,1369,708,1356,-938,1144
939,88,-5812,-5359,832,-807,1560
940,-6626,-340,-4072,1177,133,-1151
941,-6402,-6888,-6786,1363,1594,1552
942,5092,-7337,-5389,614,-941,1240
943,-4806,-7357,-5312,476,121,-923
944,-1422,-4448,-1512,-1292,-1627,-475
945,-7012,-4927,-4297,-1655,1216,290
946,-2822,-5943,3254,1128,1294,-1894
947,-6299,-4060,-6638,654,-1224,-754
948,3516,6592,-151,199,-863,1690
949,-7336,-6748,-3634,1284,1778,614
950,4333,3131,3869,-180,-998,-523
951,5553,-2214,-5820,-1308,-981,1468
952,2929,-3456,3096,-623,1116,-359
953,2056,-3382,-5616,139,-697,403
954,-1392,-2464,7476,1061,-1388,1648
955,-6163,1846,-3510,1872,-100,12
956,-4595,586,-4458,-1482,-534,-1933
957,-5133,-6874,986,286,-269,-1793
958,-215,-1779,-5496,1122,611,-165
959,2024,7645,-7878,991,1752,1686
960,7658,4448,-7430,1078,1253,-1071
961,2978,-2059,4836,1570,-722,1306
962,-4443,-5681,-4436,-702,-664,1551
963,-2755,4403,2106,1197,-1404,349
964,1845,-2240,-4727,-134,-1032,-1872
965,571,-2377,357,1005,1086,-365
966,-6187,-7055,414,1462,1631,-930
967,3457,6237,-3813,-124,101,377
968,-2655,-3513,6075,168,-32,-1621
969,2922,-4144,1839,253,-1168,726
970,1329,-2598,-1297,826,-610,-583
971,-4155,-7078,1923,1260,0,1309
972,6337,5773,4925,-545,1579,911
973,-1241,-2791,1428,-1262,55,-1478
974,858,6780,7969,-572,-632,456
975,-1645,-1528,657,-216,-284,857
976,-3080,-7999,2607,-572,-729,-654
977,-5552,6772,-5079,554,-1758,-21
978,-7565,6332,5383,835,1854,-713
979,-6876,-3115,5648,1727,1083,-615
980,-1705,4557,-686,-296,-816,-888
981,-5486,1574,-3122,-185,1729,1365
982,-1020,3586,1729,-175,-940,1196
983,-215,-5822,-6342,-963,1112,-1458
984,-349,2315,2278,1775,-184,-602
985,-3280,-5856,-2284,-132,507,76
986,-6286,4563,-2884,1001,-439,-1422
987,850,4342,-3967,-967,-67,-957
988,-3345,-6420,6228,1014,514,-661
989,202,-5121,3950,-1624,1793,1692
990,-3350,6549,6650,-1666,-1247,-1291
991,4407,5160,1694,1598,-1687,-1297
992,4843,-7888,-5883,-874,1931,831
993,-563,-2510,7735,1474,1017,1013
994,-884,1921,3365,86,-608,1123
995,-4373,-5496,-2021,1560,-1361,-800
996,796,-4604,3085,285,-1127,-1856
997,-5941,-434,724,183,910,-1113
998,2374,6023,6448,976,1089,1893
999,1505,1340,3055,773,-391,-1349
1000,1103,-3405,5847,-69,1871,1517
1001,-1434,1036,-2539,1646,357,611
1002,-3634,-4027,-6882,-101,762,1825
1003,7124,6531,6238,535,-1791,-1062
1004,2303,-660,7957,-944,1152,-1554
1005,-3113,-7530,474,1006,56,1594
1006,5018,5137,-5771,-1639,120,227
1007,1912,-7102,3364,1141,928,-1260
1008,-2280,-6764,-5132,1680,-693,-1350
1009,-5262,6638,1157,672,-1616,-1002
1010,-4141,-3569,6613,-1508,1293,1887
1011,-6252,-2577,-1056,983,68,-1346
1012,-2955,348,-588,-1790,-1962,775
1013,-2381,2666,-7412,1253,1772,-1807
1014,7790,4626,-279,-1928,-159,-278
1015,-1810,2785,-7300,204,1546,-297
1016,-6339,6508,6533,-334,1335,-169
1017,-1988,-1258,5278,-482,18,-626
1018,-6771,-469,421,785,-1574,-188
1019,7544,1652,-1580,1748,583,-1738
1020,6511,-6162,-5610,1774,-1140,-1002
1021,2242,-5874,-7503,-970,588,-1458
1022,-1550,-4784,-287,-1280,681,501
1023,2925,-2587,5984,1889,-121,-31
1024,-1177,-1284,-3058,1955,701,892
1025,-102,4695,4556,-550,-114,1027
1026,-7480,-4941,-5281,396,1812,90
1027,6495,1327,567,-564,348,1663
1028,3480,-1759,-3204,1364,1203,1195
1029,3039,4710,-7696,-19,-1072,-1359
1030,3971,1990,1104,-698,-441,533
1031,-4520,4985,-6733,-1141,-1083,-1323
1032,2405,-3127,-94,-1962,-1420,1630
1033,1594,6041,5011,1883,537,-1631
1034,5391,7535,-5142,-145,1946,1968
1035,893,3591,4158,1510,748,660
1036,166,-6047,3100,-1245,-64,-1477
1037,-7696,-417,-3561,1463,-1860,775
1038,-967,-1285,5321,4,855,467
1039,-1167,-3197,4687,283,275,-235
1040,-7496,-7938,-700,-605,1564,436
1041,-3470,-1917,5290,1404,-945,-1967
1042,-414,-638,-3896,10,1695,1757
1043,4434,-5055,2035,1340,44,-92
1044,166,-7716,-3034,1873,-1850,234
1045,5004,918,4090,-684,-144,1393
1046,2652,3933,-1377,836,-1889,1524
1047,-5040,4660,-3157,1291,690,-1153
1048,7282,-6814,-5321,1180,-1716,1455
1049,-3011,248,366,1282,314,1674
1050,-3813,-6388,6359,813,721,-545
1051,3664,6945,3376,-967,-490,1457
1052,6434,-6218,-4237,1015,-238,306
1053,7546,7277,-4392,1582,-1049,-196
1054,7871,7934,164,-1600,-1046,552
1055,2768,6823,-3319,-230,390,53
1056,896,-7426,-1550,-1422,-1327,-740
1057,3274,-3820,4159,1289,1556,-1522
1058,-2174,-853,-3004,265,226,-1451
1059,-3735,-7727,-3361,-160,-1124,-1908
1060,-7531,4482,6097,1776,-863,417
1061,1880,-7509,-5140,1307,-1585,-877
1062,3308,3098,5501,-1712,-1740,1496
1063,-7217,522,-415,781,-1066,-742
1064,-6958,6172,1528,1979,1496,-1431
1065,2658,5477,2095,-594,1981,1400
1066,998,5335,-5577,351,1734,-1933
1067,-171,26,-1028,1374,776,-1819
1068,6817,-4149,3587,1495,-1369,688
1069,7090,3060,3588,-685,510,523
1070,4707,195,3757,-801,-754,-1714
1071,-806,2313,-711,177,-119,-1083
1072,-3953,-5018,-51,-1839,-1764,-1632
1073,7002,2321,-4767,1157,773,1277
1074,1223,-2036,7455,-88,332,-1782
1075,25,6145,-1502,-950,1472,-1160
1076,6892,-5109,1051,-425,646,854
1077,-4569,-4726,-4769,-1241,-1311,-829
1078,6583,-6139,-4662,-330,1161,1287
1079,-4810,6581,-4342,111,280,-1909
1080,5454,7143,-1110,1852,-1811,804
1081,2752,5634,-7305,1067,-839,697
1082,6057,130,4010,90,-272,-1498
1083,-4186,-3666,-5753,650,1345,1948
1084,-6852,-3282,-7782,-1679,-759,412
1085,3777,3092,-4694,-1041,1432,-274
1086,-4225,-6758,6352,1842,247,-1112
1087,2197,-1346,-1805,1269,355,1608
1088,-2306,7380,3231,1910,-323,-1406
1089,1142,-3720,-5765,1857,249,1144
1090,1669,3172,361,-1288,-969,1707
1091,4947,666,-1536,-1705,1403,778
1092,-1498,-3604,-6066,-882,31,-1574
1093,-1473,-71,227,-959,-475,-913
1094,-4878,3447,6515,-1626,1614,-900
1095,-4480,3877,1832,1036,898,1641
1096,6882,-7000,7156,-1091,-880,1810
1097,7818,-1589,4624,1526,1607,39
1098,849,-246,-5291,1455,1168,-1279
1099,-5860,-1539,2745,-957,180,-785
1100,6909,-3932,-7363,-1288,-1967,361
1101,-7981,5900,-3848,-821,-823,1797
1102,-3390,847,1122,-1008,-170,-1425
1103,6024,7289,-2084,1830,-1523,-29
1104,1412,-4531,-5733,105,1665,-478
1105,817,4181,-2914,1217,-1221,-1285
1106,6502,6931,-1291,-1985,947,1470
1107,-1453,4279,6767,-1554,-170,603
1108,-7438,-1102,4620,-1248,1796,-274
1109,-3622,-3756,-4240,1717,-727,1847
1110,-4972,100,3201,-1614,166,-310
1111,6220,-2506,7270,1528,1856,1855
1112,-4143,-6803,-173,1807,1454,1494
1113,3588,-858,1477,-652,-1040,-985
1114,-321,-3463,-4002,-1535,-1374,-1810
1115,4567,6618,-2709,1400,-1490,185
1116,-6893,-6158,1903,16,-706,-1761
1117,3211,3499,4392,-966,-1848,-1877
1118,-142,-3449,6637,-1892,847,330
1119,-772,6768,-1772,-1004,934,-48
1120,-1282,-2539,2482,1450,-1959,1450
1121,-6952,7844,2154,-68,-373,1307
1122,4413,-1132,6813,-1055,1481,-1995
1123,-4220,7571,5634,-1573,-1152,-1628
1124,-5283,6419,-7394,136,1324,57
1125,-3820,-4122,-2945,725,-1888,1044
1126,-2374,-149,-5240,-870,-1071,-315
1127,-7609,-3103,6213,127,1644,1361
1128,-6190,-978,4948,14,-1319,487
1129,3535,-2095,4064,1347,216,-110
1130,2924,1007,-6196,834,892,-1006
1131,3423,-4925,-6182,1465,1809,690
1132,6753,6762,657,-412,-1759,269
1133,1152,-5754,1524,1053,1989,-433
1134,1090,-1610,5240,-1667,-1420,-730
1135,-6958,-3544,-4886,108,492,-1333
1136,634,-4599,564,-63,1535,-507
1137,5959,-6278,6384,1117,1803,-409
1138,-6088,-3815,-2080,1105,705,176
1139,-6773,-783,-4002,-773,-508,-1491
1140,-7758,7247,-6855,-247,554,358
1141,-7709,-1626,4033,1467,214,-1307
1142,-4783,-6776,-701,805,-1827,-1125
1143,-6152,6108,7989,832,125,-132
1144,-4754,1995,6194,1904,-757,-766
1145,1077,6951,-5347,-1305,-1943,582
1146,-7023,-210,-6192,27,1672,-154
1147,2986,-1374,3889,570,1740,110
1148,7722,-5029,-3284,713,1701,1507
1149,4868,6411,-5225,409,-1563,61
1150,-7350,-4110,-2785,1191,-796,158
1151,-2543,-2825,-7106,-778,869,803
1152,-766,-1905,1324,1180,-934,-1218
1153,-3736,1994,-2051,-1577,-1288,1637
1154,726,7210,-5232,549,383,-1651
1155,-5909,1059,-4374,1425,-1542,1611
1156,-7203,-2317,7133,-1535,684,84
1157,2781,457,-1760,1627,-1736,1825
1158,6710,1864,-5101,632,-1059,1259
1159,-2120,-5778,-4157,-518,1168,-980
1160,-3229,-392,5712,447,-1957,-883
1161,6439,-6954,-5119,1428,-1673,-1527
1162,-6347,1989,-5811,337,-494,760
1163,-4598,238,-6020,1701,426,-1132
1164,6695,336,2864,-68,1234,-1882
1165,7060,-2190,2660,1674,1862,1090
1166,-4455,7264,-5838,1841,1999,1188
1167,5157,5679,-1178,-56,666,-1049
1168,-1541,888,3574,-807,-1355,-1131
1169,885,6502,-1299,-465,1777,-1614
1170,5926,-2459,-5575,1098,527,-111
1171,202,-2679,2645,-1179,-1800,-1776
1172,-5335,6769,-7009,964,-1027,-259
1173,-7693,-1932,-3341,683,-1400,339
1174,-1097,7207,-4095,1940,138,69
1175,7325,-947,2011,1641,-1306,838
1176,-4893,-5183,-7068,-251,-1965,-1710
1177,1427,-7208,-1845,-853,751,1244
1178,176,3992,1043,999,1224,1986
1179,-5006,6016,6329,-1586,-1457,-923
1180,-1015,7767,-5245,1239,-623,490
1181,-5876,-2143,-2762,-1268,-593,1022
1182,-1713,-2975,4191,1693,-309,-1502
1183,4919,6208,-4044,1521,101,437
1184,640,-246,-1820,1627,-1816,-485
1185,-6132,-2425,4878,745,1617,1918
1186,466,-7142,2552,1443,1753,1319
1187,-6368,-7344,-4609,-29,1,-133
1188,-6040,-5033,3742,-45,-785,1666
1189,-4837,4183,4797,-865,1851,1730
1190,7229,6283,7898,469,1452,1976
1191,5296,4974,2618,-1726,1094,-1672
1192,6099,6917,-6974,-584,-158,1800
1193,169,5980,4791,1329,1850,-1
1194,-3467,-6497,-5429,-587,-1166,1737
1195,-5015,1582,1092,-1816,285,-1685
1196,1468,-1326,-3734,-1274,959,-318
1197,1266,2181,1601,1500,-20,-1550
1198,7078,1022,4356,1394,1148,-406
1199,-1732,-4130,-5254,1587,-959,-70
1200,-2630,3031,-753,138,-1210,311
1201,-2600,662,-3654,-1683,603,907
1202,6527,493,7334,-1044,-452,-419
1203,1167,-4893,-6267,-482,-1128,-482
1204,7134,-1101,852,838,332,1403
1205,5011,-1087,-5237,946,140,-1190
1206,534,-1457,-3031,1683,-1365,389
1207,3799,-6153,-1099,-1882,-1991,-1498
1208,7765,-1802,7715,1698,-1432,-695
1209,210,5565,-4252,-1091,-1502,-1703
1210,1456,4639,-930,288,1931,695
1211,-7109,5215,-3456,-1826,-951,392
1212,4607,4390,-1847,-1787,1020,-778
1213,-4909,5567,-886,-486,1372,-1468
1214,-2995,-4638,-3721,178,-681,-143
1215,7165,4483,7327,570,-809,-1990
1216,3585,-4907,-2272,804,-407,909
1217,5766,-6650,6026,-674,963,429
1218,-4389,-3605,-6932,-1650,1061,-1338
1219,-1099,-3587,-6925,-241,1402,1680
1220,-5056,2989,-3778,385,-1524,1288
1221,-1793,2423,3552,-151,-1348,160
1222,-4940,-4667,485,443,-1244,-524
1223,2866,837,-7554,-1929,-369,1431
1224,-1087,-2752,5616,-325,-1324,-1524
1225,3623,5969,7350,-1396,-689,-83
1226,-6311,4479,-5845,-1832,-1995,1480
1227,-5998,-3836,-4508,-1133,-245,-738
1228,-5798,7794,-2459,-1578,1514,-37
1229,2740,-2750,5125,624,855,-851
1230,-5073,-138,-1668,1090,910,529
1231,-6065,-5290,3322,62,-1594,-1146
1232,4856,-49,-730,-1133,-1945,-1102
1233,4163,-375,-7490,1470,-239,-1623
1234,50,2744,-155,-481,1034,-332
1235,-2065,3400,-3627,-1871,-857,1233
1236,-5734,-1469,2323,1022,1271,1081
1237,2750,4176,94,-1034,1128,-670
1238,-5014,-7722,-1746,1148,-1908,-1772
1239,3629,5134,-1244,-484,556,-59
1240,-1024,6803,-2488,757,-50,1390
1241,-3153,-4557,5153,-861,-836,-1854
1242,-406,24,1909,-507,1179,-45
1243,-4143,-5098,777,1849,1239,1567
1244,7676,6157,3580,1435,-1608,-1197
1245,-5328,-2039,-6223,-1061,-571,-68
1246,121,-485,-129,1707,903,-634
1247,-3951,3573,-7565,1944,-1360,-252
1248,1315,-4566,-3782,1864,1658,1103
1249,-2186,-6134,163,-176,-1047,-1549
1250,2230,-3574,-2878,-847,-972,-1038
1251,-4076,6180,755,-949,1316,133
1252,2201,3508,-437,854,1542,1839
1253,2164,6195,422,211,1317,1302
1254,-1001,994,6060,544,268,-1736
1255,1857,6357,1685,-1251,-876,-1521
1256,-1152,-7223,-4862,-1069,-1043,228
1257,1133,476,-1338,1451,-699,-1972
1258,935,4563,-4823,41,-1635,-419
1259,-2180,5923,6943,-73,-1116,-932
1260,-6050,-2845,4627,-169,-1021,506
1261,798,5193,-4972,1581,140,562
1262,-5884,6741,-4040,1647,1053,-1591
1263,-604,155,1554,-162,-12,19
1264,6707,2579,-7217,1501,-653,-583
1265,-4657,7293,-2715,-1382,-334,-1637
1266,7648,-3136,-4613,1007,1478,-1878
1267,314,-2272,2123,-1405,-1822,707
1268,730,-4490,-4276,529,550,1163
1269,-836,-3796,-7531,-1093,1905,1679
1270,-5277,-6750,-3080,367,-1179,1290
1271,4139,3688,-6445,-1396,1104,-27
1272,5674,6901,3180,1529,-1232,1395
1273,755,-1177,645,1192,-1980,1786
1274,1168,4129,1937,262,1389,1047
1275,3675,7876,264,443,1552,1513
1276,-7457,4996,5444,-1785,1029,1833
1277,-1200,-6049,-712,-1661,787,-334
1278,-7801,-323,-1267,-623,1556,332
1279,5427,3355,4442,-872,-1099,1635
1280,3417,-2585,1042,-1680,-352,-1584
1281,-7672,7979,3724,-430,-1777,468
1282,2000,-4298,5040,1108,188,-1633
1283,-5721,-5111,5992,488,1516,400
1284,5272,-7022,-5796,1113,1322,-796
1285,7973,6446,5837,1078,264,-73
1286,2613,2457,-5128,-1221,-1795,-1043
1287,5518,6019,2138,64,-13,-116
1288,-621,-1734,104,-695,-1882,268
1289,-1989,803,-3221,-112,-1908,1834
1290,-2793,1933,3787,514,1988,840
1291,1296,7277,-4448,618,1892,-1336
1292,462,4178,-5712,55,1263,-115
1293,6277,-282,855,843,1270,863
1294,6106,-5885,5964,1796,421,-361
1295,-1511,5097,-1329,-1252,-1982,1787
1296,6941,-5428,3395,939,1079,1095
1297,7732,-3863,-6763,-1047,913,288
1298,1482,-4193,6556,1025,-364,-511
1299,1574,-3655,5703,-1010,-513,-851
1300,-1408,2116,-7885,1164,-251,965
1301,2482,2047,-7032,1342,-570,1504
1302,1419,2764,-6560,1170,-1604,-271
1303,-994,-2920,-4175,-1125,736,292
1304,2390,1085,778,913,907,-1802
1305,7298,5964,540,-1724,-824,25
1306,4485,-5795,-6371,1868,683,-1571
1307,-3987,-6650,797,273,1141,1671
1308,2504,6254,-4062,990,1086,-971
1309,6445,4518,848,-1308,358,169
1310,3149,-4586,-2911,894,261,1788
1311,-6338,4397,-1358,1312,-1429,880
1312,1201,3976,5251,-1647,1203,-295
1313,5818,-2291,5708,630,-1986,182
1314,-3897,637,-881,-1207,-1295,-1286
1315,-7033,6895,4531,1901,1849,-1972
1316,-536,577,2669,-1211,1289,-1061
1317,-3767,-2120,-4734,-1223,-1793,-368
1318,6862,1408,-2977,-896,-1496,-518
1319,-1512,-2276,5474,-1243,921,-178
1320,2169,6788,-2160,27,1486,-59
1321,1268,-4182,6865,648,-1716,1210
1322,7806,1883,-7600,130,536,1964
1323,7988,7202,-5067,-1748,-795,1047
1324,-1200,-2967,-7017,-1142,-872,-186
1325,1173,-6327,-4093,1438,231,1989
1326,2246,-5159,-5972,-1570,1428,-301
1327,3837,-3659,-6870,-951,1347,1780
1328,4250,-5428,-3975,-1487,-407,634
1329,-2892,94,-592,1193,924,1144
1330,-1412,7141,-1659,-852,-1859,884
1331,-7050,4708,-2642,-121,-1682,-1057
1332,5246,4667,7692,1113,-607,-559
1333,1147,-485,5925,-426,263,-1524
1334,4495,-367,3557,297,633,-965
1335,-7378,2082,3305,89,-792,1105
1336,4304,-93,-7555,904,1988,-501
1337,-4131,-5316,2785,608,-1047,474
1338,-4594,-6607,7912,198,1679,-517
1339,5013,-4110,7373,-1893,-280,372
1340,6377,-5274,-4324,-1628,-411,7
1341,-4425,5970,-2874,1608,591,48
1342,2068,7664,1747,-1695,564,-764
1343,2062,781,-5237,1994,-95,-1455
1344,5212,4082,7112,1110,73,295
1345,-6219,-1366,5675,1316,-1090,975
1346,-7254,1614,-1646,-1037,-308,-1125
1347,7436,4569,-2583,932,-838,-1931
1348,-1219,-6973,-4388,1606,927,844
1349,-3646,-6391,1341,47,-737,-45
1350,-2034,6699,7253,-1456,1703,-375
1351,-410,3470,-4944,1449,1192,1077
1352,7387,2645,1589,1398,-462,1963
1353,495,-3382,4356,1920,-1236,-133
1354,1992,-1331,-6113,-177,-966,1352
1355,-4269,-5281,7148,1198,-1325,777
1356,-3821,2031,-982,-266,-702,54
1357,-2094,6338,-4332,350,427,-345
1358,-5750,5374,-2534,1044,-1369,860
1359,4497,3504,-2506,-1800,-1243,446
1360,7696,-2956,6532,904,-1088,-517
1361,-3038,2695,1746,-618,191,1368
1362,1602,-2323,3572,919,-956,542
1363,-4885,820,-2221,433,1047,-840
1364,-2742,-3222,6541,776,550,-1868
1365,6742,3331,459,-1824,54,924
1366,1091,7428,3070,1963,493,1532
1367,-6611,-7940,3805,-1167,-1626,582
1368,-2257,-5414,-5847,-150,-327,1890
1369,4346,-7790,-59,-305,526,-541
1370,4043,3299,-7253,1143,1878,-301
1371,-6645,-5282,4710,-50,1662,-1988
1372,2035,928,7471,1216,1963,1417
1373,5950,4905,2601,1794,-1358,449
1374,-1977,6516,6172,517,-653,-1598
1375,7323,527,-3892,-6,786,-1306
1376,6262,-6340,-6676,-262,-903,-301
1377,5862,1163,-2966,868,984,1501
1378,2965,-7613,6032,1282,-98,595
1379,-2742,-2976,-899,1555,-538,71
1380,-5837,-4935,-5807,-756,-1356,-1685
1381,7993,1593,-3566,-1590,-75,-969
1382,-470,7574,3522,-201,1966,1798
1383,7648,2540,1705,1457,-32,1137
1384,-5272,6870,-3701,406,506,-1513
1385,-2468,6703,-3907,84,-88,-338
1386,-6479,-1691,-3405,441,-562,-534
1387,4033,-5630,-7609,783,-1517,-1831
1388,-4395,2722,6698,-339,-421,-85
1389,-5900,3992,5148,-473,-634,1809
1390,5565,-7082,1560,1241,1158,1413
1391,7543,3124,245,-1108,737,1481
1392,-2279,4544,-1542,669,357,-253
1393,7194,-4328,-240,-873,1141,-138
1394,2251,1420,-1438,1827,-1566,1759
1395,324,3358,6781,1665,507,1304
1396,4094,4481,-724,1199,167,-1167
1397,-1789,2325,-1374,1427,-1842,58
1398,-7424,1695,-7369,225,523,-421
1399,-4721,-2702,2398,665,-1743,531
1400,1274,3564,7230,1176,1142,1989
1401,6817,884,-766,-1385,256,-71
1402,-1922,3945,-1714,-1322,-256,432
1403,1133,-18,1158,868,1445,1971
1404,-6612,-4579,4213,-1551,-1363,1954
1405,-3423,2742,-4822,899,-1238,-1420
1406,3171,6511,7146,155,-1336,-1797
1407,-2678,2706,900,-1295,-1638,-898
1408,4616,-6884,400,644,-110,-68
1409,3505,4894,1022,-1389,-683,-1572
1410,-3439,-3234,-3351,1600,1974,-1443
1411,-4689,1342,6912,-221,-1646,1189
1412,5951,-2202,-6203,-932,-1250,-1624
1413,-5523,3631,2759,193,-1692,-1227
1414,4755,-2086,2606,-1644,-1262,770
1415,-4099,-4297,2523,961,754,1569
1416,-6997,-7609,5090,707,-320,-259
1417,-1671,1722,-1672,1505,674,1656
1418,1564,-2346,-1691,742,667,1860
1419,-3121,3390,712,-1042,-1464,-1690
1420,-3300,2188,7507,-858,-392,-120
1421,1665,-7661,6511,-1299,-1997,-1302
1422,-3424,2289,-5786,-935,1958,1101
1423,3615,4781,1725,-811,1034,1475
1424,4869,7931,-4048,813,1793,-640
1425,5528,-381,89,-1576,-1766,-1818
1426,1831,-2743,3655,1290,-870,-1592
1427,-3604,3518,1559,688,-769,1997
1428,-4063,7429,5948,-1073,-124,1080
1429,72,-4970,-6365,-1126,773,-256
1430,-5137,236,-2432,-1856,203,500
1431,-4268,5227,-1998,-1413,-910,916
1432,-6334,-6360,-4156,1757,444,-1660
1433,-3467,-672,6856,-951,321,23
1434,7484,-6723,5465,-1345,-59,-1554
1435,7139,-5196,-5515,-1435,-1133,373
1436,4350,3659,6385,1693,-694,1305
1437,4217,-1302,-6522,-1333,-1475,297
1438,-2790,-5404,-3311,303,-239,468
1439,825,7452,909,1338,-875,1906
1440,-2910,-6151,-2916,-765,-657,627
1441,5259,2896,-6130,1623,-1901,-1670
1442,-5117,-3346,4356,-1559,-1728,666
1443,2044,4652,-1998,-365,-894,-34
1444,-7244,7906,-6959,34,358,1385
1445,3906,-6784,1821,631,263,-214
1446,-6149,6913,-4946,1568,1744,-24
1447,-5833,-25,-3071,-459,1733,1409
1448,5364,7077,-1527,1258,1913,-1034
1449,-1718,-3385,894,315,1644,233
1450,3208,5049,-6165,816,1072,-1090
1451,-4026,-2291,6974,-1157,114,1676
1452,-7307,-6771,-2215,1397,-1037,1488
1453,6019,-1562,-225,-1234,-669,511
1454,-1580,6783,-2801,-1193,-744,953
1455,1390,2604,-2335,1176,1910,-278
1456,838,5508,5994,-423,-20,1244
1457,6692,-5372,377,516,-903,-1329
1458,4654,2007,5104,167,-1497,-1114
1459,-4771,-5996,5221,1468,794,-834
1460,-3196,6633,-4116,-683,-1410,-272
1461,3693,-5393,-5152,455,-1236,163
1462,-2086,4417,-1543,4,1952,1060
1463,7961,6587,-6398,1056,-1843,-440
1464,5368,-4314,4033,339,1047,-1909
1465,-1697,5366,-5581,-1456,1380,310
1466,-3850,-6115,5359,665,1475,935
1467,-3762,2376,7485,1736,-258,-1075
1468,208,-1663,1544,-268,1080,-364
1469,6296,-7310,-2082,-1699,-268,1905
1470,1649,442,-787,113,591,-1360
1471,3384,-7646,-4558,1579,-704,203
1472,-7147,-3619,-5704,-1383,-1207,403
1473,720,1716,-7831,-1117,-1503,-390
1474,-4640,78,6653,-588,1487,-492
1475,-3914,4113,4251,-223,1354,1009
1476,-3720,-5579,-5545,-1072,915,-1779
1477,3634,-1470,6230,1145,1093,-929
1478,-7093,7859,96,838,-1672,1455
1479,6692,7425,3016,1468,951,-1057
1480,7509,-5836,-5638,-1517,1231,-374
1481,-1996,846,6022,958,-168,-384
1482,6043,-7687,-1574,1380,168,1488
1483,6244,7663,-2634,-1651,-309,-1499
1484,-4733,-4396,-5793,-964,407,1553
1485,-6003,-7919,4567,-709,-915,-528
1486,-6835,-6621,1738,78,-1903,1262
1487,-4825,6132,878,1039,-1213,1077
1488,679,1106,7549,-1309,-1614,-1822
1489,5557,4429,-1573,-1843,-1543,1199
1490,-490,5888,-2213,-855,-1635,1432
1491,7059,-7814,1695,-1619,-1522,1321
1492,-6108,3710,-6028,1552,1084,704
1493,2083,2332,1456,-1142,-948,-1152
1494,6266,3421,2869,1054,998,1510
1495,5548,-3247,-4364,-766,-271,1749
1496,-1723,-3788,-5192,1999,-866,1838
1497,-1047,7629,-3841,-1015,-757,1744
1498,3607,-6244,-4913,-39,1411,-1721
1499,3196,-4133,-3947,-1401,-199,121
1500,-7297,5836,4659,-476,1011,-1603
1501,-6213,-5597,-1272,-1374,515,-1945
1502,5117,-504,5639,380,-1106,-1755
1503,7636,7541,-3702,82,1254,307
1504,-1791,5730,-7306,-1130,1138,1556
1505,-4803,-6940,-3786,946,1037,-889
1506,3539,6516,251,-892,-1804,1589
1507,-6273,-6831,3816,-750,1372,-286
1508,1586,970,3107,-1081,1790,-1974
1509,144,7257,5388,439,1842,320
1510,-3100,-2421,-4391,1846,1589,336
1511,-3082,-3861,-4599,-412,409,1752
1512,6717,-3320,-5685,-1552,-1510,-1492
1513,6389,1508,-4368,807,148,-1941
1514,1098,-4506,-3125,944,-1086,-116
1515,1642,-752,1150,407,-859,-829
1516,-4066,-51,-988,-303,-1657,-473
1517,5814,-7463,-254,-1168,1135,87
1518,-497,-7735,6336,582,1598,1759
1519,-4190,3416,-7740,-1015,1188,-1316
1520,6089,-4759,-3240,-371,-1551,1354
1521,4404,2797,6649,-1753,-1703,1824
1522,2541,4049,-7935,-1382,1459,-1405
1523,1867,6437,2224,-1198,1145,-1268
1524,1880,7241,7845,1812,-1637,1638
1525,3592,3112,6841,-1307,-283,29
1526,-3530,-2775,-2459,1182,-158,-1885
1527,-9,3364,2962,-1755,898,-354
1528,-2251,-3100,-7175,662,116,-1481
1529,1453,949,7417,-470,146,-907
1530,-7505,-7440,6131,1280,-159,655
1531,20,5930,-5073,1577,1941,-446
1532,-3819,1847,7488,-1445,1683,939
1533,221,3991,6395,71,-383,1206
1534,-5470,7605,-4397,70,-98,-1576
1535,-3939,-6278,-3734,1003,617,-1091
1536,321,-4005,2103,1361,-526,-1895
1537,-2026,4828,-7653,-739,1974,1964
1538,-580,7372,4139,71,-1686,-824
1539,3014,-1642,-7361,367,-17,-1522
1540,-3576,3450,-5816,1049,1744,-908
1541,139,-468,-3280,-1628,-951,199
1542,2185,2074,-7152,572,570,-1439
1543,6947,3317,-4389,-1627,1896,-1940
1544,2178,987,3318,-1352,260,-828
1545,158,5608,-846,1233,1556,-1500
1546,-5634,6133,1987,-1652,-1121,276
1547,-3169,3319,3668,-1574,771,1351
1548,-4533,458,-1073,1330,-1127,1624
1549,7140,-2634,-7602,1752,458,-1625
1550,4711,-938,6634,1263,-1238,-1083
1551,1049,-6170,1625,1341,1840,-565
1552,-6974,2300,-360,119,-1809,1391
1553,7960,-5407,-5115,1670,-267,212
1554,1559,6449,-4858,1144,1506,-1449
1555,5264,2018,-4909,43,-1918,-858
1556,-6032,4328,3202,-1551,1691,-985
1557,6289,-7298,-2732,-1857,-1146,1802
1558,-7873,-4532,5244,-1823,112,384
1559,-3185,-5045,452,777,1771,1188
1560,7679,-7829,4747,-1927,381,-154
1561,2135,-943,3472,-242,1147,1527
1562,7766,-1381,-3415,394,1044,-788
1563,2078,2599,-6616,-1464,-1568,-633
1564,1420,3295,-1041,-1625,197,1487
1565,-6209,2006,2838,-1039,-125,-586
1566,1498,-7115,7157,-94,811,-1005
1567,4287,-5528,-7071,-1688,-1488,-1631
1568,4286,3653,7036,-561,1412,472
1569,-3975,4618,3122,1879,492,1550
1570,-6848,5775,-812,1963,342,-348
1571,-7401,-3012,1794,-1743,-38,-1433
1572,-3540,2522,-7535,455,-1321,1804
1573,-3882,-2566,-4224,-176,234,1162
1574,7833,-5708,-432,621,-1555,-1491
1575,-1247,-6791,7418,1441,478,646
1576,1648,1844,7058,-1810,1324,313
1577,3371,-7762,-6433,-168,532,581
1578,-2509,7801,-6241,1684,-21,-1003
1579,4217,5160,5921,1377,1790,-1302
1580,7766,-5415,-1503,107,-1053,496
1581,6923,-163,-6767,-413,-1643,-647
1582,-4183,-4303,3344,938,-176,-1950
1583,-1862,-4100,-299,578,1605,1595
1584,-7754,6212,-5575,-189,-1983,-1914
1585,-3077,1332,1083,1777,1554,-957
1586,-7279,-6044,5643,744,457,-572
1587,7978,394,1006,-1997,-1515,-1653
1588,7053,6264,-2056,799,-697,-1008
1589,6803,4199,-1252,-325,-1562,1541
1590,2463,2498,4556,-247,-979,-881
1591,-7845,-6382,7647,1190,-1790,930
1592,5716,-2610,732,1176,-469,504
1593,-2392,-2923,-7714,-211,-722,943
1594,-4138,-7781,2515,1173,1345,745
1595,-5056,-4680,-1948,985,-435,1208
1596,5300,-1646,-5021,-1760,403,1447
1597,-6854,4527,5221,17,1513,-1368
1598,5323,7580,7939,-1250,-375,-589
1599,-2616,7481,6446,-1274,1351,-1897
1600,3674,-7069,-737,-1932,-1261,594
1601,6522,-4716,-850,-984,-694,-1853
1602,2535,-6260,1823,385,-1303,-363
1603,-5091,7388,1608,-1350,-1392,-338
1604,2945,-668,1103,191,1475,455
1605,4381,1431,3194,293,-1572,-1088
1606,-4795,-5974,-7872,314,-85,687
1607,-180,-3489,-6950,1710,-911,-259
1608,1253,1691,2147,935,1308,476
1609,-6834,3915,3177,74,-1016,-922
1610,2441,4078,1148,-424,1458,-441
1611,-3938,365,-3027,-1912,95,1123
1612,-7567,3438,7025,536,-1333,-1202
1613,-3676,1691,154,517,-211,-461
1614,7611,-4658,-1647,850,-1340,-1954
1615,6458,-3810,-7931,-645,1911,-610
1616,-2839,-3211,-3551,813,537,-1394
1617,-2130,5995,6663,-288,1791,-1982
1618,111,1938,-3506,558,-1162,-473
1619,4673,6524,-3287,-469,1841,-1521
1620,887,-6149,-432,-1534,1288,1468
1621,7205,6809,-5421,866,1527,-793
1622,-5554,-5005,2592,-822,-893,1594
1623,-1741,-567,-4171,1181,1603,1352
1624,548,-3125,5478,848,-955,-1230
1625,-4173,5282,6702,1857,-1966,1431
1626,448,-6882,-588,-496,-1323,-900
1627,-6518,95,-5043,-730,-1640,18
1628,-545,-5248,287,1401,1159,-1523
1629,1296,4165,4723,-1638,-1286,-1553
1630,3415,1450,-2780,1421,1924,-118
1631,2576,152,-7159,-927,-284,-1563
1632,-6091,3952,1678,1339,-1203,-927
1633,773,3011,5167,-1621,-1686,1452
1634,7338,-6591,-5962,-1241,-369,-1415
1635,3735,4543,-4657,1538,1764,627
1636,-6351,-7561,4325,1277,-708,-259
1637,6159,4155,1684,-1291,1918,-327
1638,-3735,6859,7645,1276,1570,-711
1639,7392,-2644,-307,1863,312,1114
1640,135,3806,6671,1575,1858,-1633
1641,-3266,-3413,-2496,-637,654,1904
1642,7165,-4079,-2664,-282,-945,-772
1643,-6841,-3174,4859,813,1314,-228
1644,-5283,-1545,5578,690,-1586,-1690
1645,-3014,1752,-49,-1618,830,-1904
1646,6430,-6738,6307,931,-467,-129
1647,3084,3411,7371,1543,953,-1489
1648,-3682,-3489,-5969,774,654,-1255
1649,923,5714,6316,481,1065,-1104
1650,-5418,5077,2260,-756,-1546,-1187
1651,2382,-4689,3579,-290,1559,792
1652,-3489,-2950,-5535,1110,1634,1384
1653,1462,6133,-4114,-755,1877,1451
1654,1470,5116,6943,-1299,-1678,764
1655,2106,7780,-3074,1854,1011,-876
1656,-3822,-1121,1914,-935,-499,-299
1657,-549,-2698,7531,-1804,1375,-1788
1658,7398,-1365,-788,323,287,1929
1659,4506,-2789,-2599,1711,-558,-1374
1660,-3583,-7433,-172,1185,-789,-1788
1661,-4804,3245,-4666,-631,-10,1715
1662,-7559,2004,-2721,1795,1801,1124
1663,-2293,1972,-3435,993,-358,-484
1664,-6769,6436,-2802,-872,-775,1818
1665,4789,-4546,-4957,-28,-1939,1369
1666,-2582,-6498,-4301,1203,204,-333
1667,-3041,-2320,1970,1913,922,1979
1668,2738,973,-1596,400,310,-1549
1669,5930,-3657,6452,1274,-1096,-249
1670,1170,-1143,7632,-520,-1729,1624
1671,5642,-4056,4946,1147,658,-1086
1672,4088,1845,-4396,852,-13,-347
1673,-3978,-1641,5878,25,1427,-443
1674,-7260,6011,-4392,-1995,1305,1163
1675,7065,-3316,347,1099,-1352,1669
1676,7872,-5390,-7807,965,-1940,1225
1677,529,4953,-78,-1336,169,398
1678,7853,636,7403,1829,-1489,-557
1679,-4340,6067,4746,1275,787,-903
1680,377,1466,-3451,1290,-1778,1696
1681,-2019,-6203,-2774,-247,970,-1483
1682,4877,-1138,5412,792,1854,-1258
1683,2111,-3099,4969,-1735,-765,-962
1684,4503,-2855,-188,-335,-293,71
1685,956,1365,4635,1221,-437,184
1686,-8,-5632,-4600,1407,296,-1437
1687,-7098,3001,-383,-1999,133,-738
1688,-6287,-2466,-2159,-1443,-1395,-155
1689,7572,-1185,3130,-1954,725,-699
1690,-4292,-2041,-2832,-1868,686,817
1691,-692,1110,-1896,218,194,-171
1692,298,1773,-324,692,-1,-900
1693,5059,7883,3039,-1218,1779,625
1694,6166,1840,-3581,-100,-603,1178
1695,4967,7156,4552,-210,-1372,-333
1696,-3099,-97,5449,579,352,1526
1697,5707,-1731,1139,-336,96,88
1698,-6339,-3029,-5752,-708,-859,-1226
1699,1068,-289,3075,654,867,-344
1700,3644,-7838,2817,-1379,-366,-1995
1701,-10,-7683,-1265,-1827,-1674,-637
1702,7147,-6187,-2786,-521,255,1479
1703,-50,-197,-928,928,-872,100
1704,-4062,6124,-5734,193,-665,-93
1705,-6613,-1904,-3973,-1842,-1070,-387
1706,4067,3296,-853,1969,125,1344
1707,-694,-3186,3584,239,1549,1246
1708,6015,6999,2574,1285,-759,-1410
1709,-5092,-7077,-2880,-1216,-1833,-782
1710,78,-5332,-1949,-1359,652,-1224
1711,3150,7698,-4764,1628,-624,1679
1712,-6668,5995,-1107,-1258,-1334,-1149
1713,-7746,2518,2158,-1949,-2000,1914
1714,65,4851,4671,1999,1777,1255
1715,5107,5725,1972,1480,-704,1088
1716,-257,-2180,4098,1484,1340,-344
1717,-5913,-220,4145,1444,1473,1724
1718,4813,7720,-3144,-18,-65,-533
1719,-7438,-6110,1406,-1420,-195,480
1720,6019,-4319,-714,-1671,-180,1616
1721,6555,5172,-3635,-3,-291,-1576
1722,35,-7809,-1153,-157,-396,-1628
1723,-7420,3625,3438,-1579,-1944,-1066
1724,-1402,473,-4088,1096,1998,-324
1725,-3311,-2457,-6367,65,-636,-1567
1726,-2068,-3575,-5828,1339,11,875
1727,343,-4342,4733,669,-1198,1354
1728,-2996,2985,1742,1224,630,65
1729,3300,6660,-5609,563,205,-709
1730,-5078,6301,1861,1789,1510,1024
1731,6603,2974,6811,1721,69,574
1732,100,4882,-597,1526,307,644
1733,-2433,527,-2812,1920,1644,-474
1734,-5378,1195,-6897,-1819,-1052,1854
1735,3973,6434,2562,1963,-1021,470
1736,5332,7082,-1578,-1900,1313,-1555
1737,45,-2107,-6852,1171,517,-1932
1738,-7028,5195,-4537,-405,1624,784
1739,-4711,5293,4142,-1779,-1313,1857
1740,-3906,-2788,-5290,86,-1938,-1634
1741,5540,-12,-866,858,511,-1116
1742,1897,7740,2755,-1960,-38,-1985
1743,2752,4292,-2181,-854,-912,956
1744,2248,4532,-4743,-1701,-57,90
1745,-2283,-4261,7999,-923,260,-642
1746,2294,4814,2973,-792,-1915,1844
1747,465,468,4752,-1368,1278,-651
1748,513,-4494,7704,-856,1879,1632
1749,-2100,-3534,969,1888,-1231,1292
1750,-3716,2197,-2990,780,-1074,1634
1751,5967,1817,-6609,1422,-1878,1072
1752,1150,2844,2166,1100,-303,-1800
1753,7884,3157,6380,572,-1585,1584
1754,6944,4450,-7168,-956,1258,-247
1755,-3841,3978,183,660,-1798,-1860
1756,3210,7537,6179,1740,1454,1132
1757,6140,-5151,5374,1706,-196,1362
1758,-5781,-4349,2774,-713,1283,-1800
1759,1188,6918,-6537,-687,20,1993
1760,-6236,4217,4447,817,-1465,-1309
1761,-4802,-6007,2811,-13,1422,-1057
1762,-5480,-6765,5037,-279,1676,-1185
1763,-7714,4847,6260,-1019,1358,695
1764,-4477,-1561,-7134,1049,-1099,-457
1765,-1760,-3611,503,66,-1429,-229
1766,-6918,2163,822,1012,361,172
1767,2353,-2324,7123,721,-1848,537
1768,-162,-3301,-6490,1839,-115,950
1769,-1334,1859,-2490,-321,192,322
1770,-3018,-7164,-6447,-908,960,220
1771,7095,7866,5294,948,651,-694
1772,3769,286,-5842,-947,-536,1112
1773,3165,-1522,1249,-1720,1538,1021
1774,-2231,-3615,710,395,-164,658
1775,-4266,-5892,5063,1038,1429,-841
1776,-4344,-5176,-5062,317,1563,358
1777,-2369,-2779,-1383,-166,1866,-1706
1778,4282,630,-5823,1521,-1186,1006
1779,-605,2203,-4820,311,1966,1400
1780,-6072,2238,1171,718,1127,1685
1781,1316,1603,-7808,35,-700,1757
1782,-4319,2717,1567,-1310,1144,-400
1783,-6650,-2820,4479,274,-598,1464
1784,-7844,3514,6030,909,1728,1095
1785,-6103,2338,-4613,-1664,1559,-980
1786,-6162,-4353,-5127,-58,-1438,105
1787,6541,6067,807,1234,-231,1248
1788,4952,7072,2924,-396,-646,-644
1789,1663,-6780,-2237,518,-747,263
1790,-5626,6983,-3172,-568,-168,-71
1791,-3338,-5258,4834,-414,410,-541
1792,-603,-4079,394,812,-1532,960
1793,-7616,4079,-4279,966,52,1366
1794,1285,-1248,1725,-1537,-771,-1034
1795,3472,-984,-4432,-660,706,1776
1796,1840,6468,-5881,1136,-1104,518
1797,-6674,-5270,3772,1886,-434,651
1798,-7029,-2099,7426,1669,1431,-1658
1799,-6676,-6777,6480,1943,1082,-631
1800,-117,-4932,-3934,-1632,-433,-951
1801,-1230,201,1905,-209,1038,937
1802,5683,-6345,5367,-1741,1769,-1464
1803,-7203,-5153,2765,-429,-1139,613
1804,-1440,-5375,-662,-828,1844,43
1805,5186,-6108,3285,124,-386,-821
1806,3660,969,-2827,-1530,1113,889
1807,-165,-1046,3686,-120,-30,82
1808,-7697,3587,5675,-1330,765,-454
1809,-1031,-4470,-4346,-1049,-403,984
1810,6613,-496,-4209,-674,1141,1381
1811,-7182,-6405,-1943,537,833,1878
1812,-1632,-1046,2233,-217,-354,-1443
1813,-5231,1077,4373,231,1392,-777
1814,-5585,-4802,-3566,-1280,-831,1898
1815,1321,5380,-7726,454,-1472,1463
1816,-1182,7428,-2731,781,-1596,1422
1817,-7925,772,-6006,1763,1269,655
1818,4484,-5106,2898,-74,-778,-834
1819,-4371,4993,7102,706,1843,-1962
1820,6968,7843,6111,-658,591,-215
1821,-5827,-2768,5479,718,866,-1105
1822,-4033,-7643,-2899,-365,1666,-542
1823,-3134,-2472,2268,167,-1671,1556
1824,-2590,2160,-2209,-951,1426,-285
1825,-5834,681,4367,-572,-508,97
1826,6445,-7082,-4434,-880,1968,362
1827,7018,-2554,3139,-1580,104,-1471
1828,5781,2240,4783,-195,1643,1846
1829,1135,595,3041,300,-630,1475
1830,-3392,2880,-4264,172,386,-1005
1831,-5499,2140,991,650,-1291,-217
1832,2986,-3583,-4123,-186,-1210,909
1833,2723,3840,5639,-874,-1167,797
1834,5637,5011,-2610,-476,1750,1376
1835,-7909,-5156,-4053,-1860,-1969,1768
1836,-1114,-3021,-4770,-1059,1754,-1645
1837,-4566,2354,1328,244,-562,38
1838,867,6764,-6174,-192,820,1122
1839,-4936,3379,4537,346,-949,-285
1840,2470,4571,-2347,-1713,-1178,31
1841,-1707,3034,-565,-1694,957,10
1842,6182,4522,-3519,1383,304,-752
1843,6361,1938,-2208,166,192,1106
1844,7990,-77,7905,615,-1567,788
1845,-3229,-7634,-6293,-510,403,-372
1846,-5551,-3067,2738,-340,1732,-180
1847,-105,5422,-1268,1178,-1011,1920
1848,-5825,-5520,-3195,89,156,1424
1849,-3772,4211,-1022,140,-517,1044
1850,-7987,-2309,-4662,1659,1809,-318
1851,5091,6200,5785,633,567,-1287
1852,7377,-6659,-7259,96,47,1644
1853,809,-342,-884,131,-477,1994
1854,6869,-1071,-4603,1212,-1803,-30
1855,-721,-7452,-7445,1918,166,1966
1856,873,-2883,6701,-1202,-148,1674
1857,-4033,7847,1211,-1326,1841,-1824
1858,-1389,-2399,4282,-1094,1043,459
1859,-6338,-6704,1580,-1939,-1656,-920
1860,-5165,-4161,1525,391,-529,-522
1861,-7967,6292,-1255,1715,-910,69
1862,-776,409,-7700,1907,-703,-57
1863,-3051,-5457,-7143,1293,80,206
1864,6363,126,702,1886,-838,1539
1865,-7522,3617,4273,49,-1848,1571
1866,-1442,-4943,2944,-1132,-935,-1345
1867,2079,5640,130,41,-709,827
1868,7907,4443,3050,-1318,87,-851
1869,-1750,-4657,100,663,-438,-1096
1870,2128,-379,1365,-837,-468,-586
1871,3275,-1295,1799,1008,-791,1950
1872,926,2324,-7853,-674,-370,-728
1873,-502,-2260,-5078,307,-1084,-683
1874,-7469,-2145,-7538,-307,1911,-1159
1875,-428,2442,-2158,-315,-1340,-1433
1876,7955,-1815,4789,-1158,-1848,46
1877,4090,-7390,421,-935,-473,355
1878,-4685,-501,-1188,-186,-1953,-1980
1879,-2487,4719,-2294,-376,225,1316
1880,6469,-4632,-6244,-1085,-653,870
1881,1099,-4230,6234,-1301,-1340,-1211
1882,1526,1124,-6923,-33,1095,109
1883,-481,-813,6903,-1754,1890,1110
1884,4573,6703,-1317,-1933,1882,949
1885,7161,722,-1347,1351,-1586,1802
1886,-5407,6609,6666,-1824,-1621,130
1887,-3836,463,-687,145,1724,-115
1888,5611,7207,6118,-1292,636,-1383
1889,7509,-2286,3258,-1527,-483,624
1890,-2123,-4938,7784,-1114,1154,-223
1891,3912,-5881,1347,842,-59,-239
1892,-7830,4150,2698,-1272,-996,-1783
1893,-2029,-3344,3635,-1443,1467,-662
1894,-3461,5563,5742,-993,361,-1580
1895,897,-7627,7413,459,1567,-1884
1896,2149,1736,-7214,1813,249,-977
1897,449,7120,5796,956,-1380,-1185
1898,7901,286,-1963,1276,-277,-851
1899,4730,-957,-3350,-339,-606,-1924
1900,-4710,-1577,1981,-1447,560,-1267
1901,-3831,1968,-4665,-1620,-1661,909
1902,4771,-6345,-822,-989,907,-754
1903,2776,-4212,-5585,-1064,949,1920
1904,-3535,2600,-7489,-1375,-1206,1265
1905,3032,4766,-5424,656,-827,1909
1906,7546,5339,6424,717,1733,1913
1907,1070,-2445,426,563,-1770,-1104
1908,-5127,-308,7317,911,-1905,-1791
1909,3465,-928,7864,1770,-1494,17
1910,-7745,3603,-5613,-1334,-236,1836
1911,5811,4927,4694,1930,-471,951
1912,1108,5385,-1644,1208,-1779,1242
1913,-830,5074,-7366,1162,-1003,-997
1914,-162,4115,757,-856,-1920,399
1915,-1150,-5363,-6268,-1153,47,-1388
1916,2358,-954,-1076,-1535,1304,-1809
1917,-2379,-2051,3638,1019,347,1097
1918,-3202,3980,3726,1966,1281,1442
1919,6127,4397,7753,-1434,3,896
1920,6964,-6449,6237,-1021,1443,-744
1921,3287,5679,4382,1117,1140,1048
1922,794,3030,834,145,-1990,-1917
1923,7537,-2815,7279,-1103,-1887,268
1924,7738,-6452,386,-47,681,517
1925,7588,475,4263,-559,-19,-920
1926,1472,-5873,3734,-1158,1269,-856
1927,4064,-2506,7441,-123,-428,-1557
1928,-2875,6190,-2534,143,1874,-77
1929,-7303,-1880,6786,-963,1424,837
1930,234,-318,-6950,-255,11,-213
1931,4988,828,-1017,1064,-396,-901
1932,1736,5071,-4956,-835,-1000,516
1933,2049,-906,6603,-744,-1682,1212
1934,-1562,4713,2366,-128,-619,-1122
1935,-2906,3257,6660,134,-964,-260
1936,-5618,-1539,3151,1711,1954,-1071
1937,-4663,4811,5235,28,-1677,-322
1938,6369,6969,5462,-809,268,1689
1939,6696,-7276,526,-998,-1030,499
1940,-852,-7047,3673,1775,-932,444
1941,5051,-4611,-2266,-136,-1519,462
1942,3632,-1414,6252,1408,978,644
1943,6868,6347,1031,1148,322,-1977
1944,4813,-4308,-1285,1309,97,797
1945,-5303,5453,4616,1313,560,1985
1946,-7039,6767,-186,-1185,-418,-589
1947,3496,-4075,4689,-1988,-1680,712
1948,-7045,-2834,-6609,-1989,503,-717
1949,4625,-5494,2726,1337,567,-571
1950,-3785,4399,-7118,1241,937,1939
1951,1940,-4950,-2697,-1096,1364,-177
1952,-1306,-7028,-436,-365,-218,-1193
1953,2063,7892,-914,-1955,-1747,-1632
1954,2906,-2528,4874,-1772,-768,-1854
1955,-5698,-6299,-1917,1313,1488,1749
1956,-1485,4051,7769,1224,1519,-209
1957,-4364,-6650,5257,-668,1857,-1147
1958,-3008,-5279,-5369,-221,1807,-719
1959,6355,-4703,1012,-1614,-1489,1613
1960,-6327,-5042,-5525,-405,1415,803
1961,-1275,-7616,24,1907,73,1154
1962,7022,-1536,6216,-797,-231,1216
1963,6505,6921,-7958,812,439,-135
1964,-3651,315,6747,-1142,-1207,64
1965,-7247,4388,-2386,-1249,-1136,-190
1966,4930,6041,4852,-1985,1288,-1226
1967,-4764,-5910,-7153,-1214,-1139,730
1968,-715,-5894,-4058,-1969,-1407,-184
1969,-1878,-2619,-263,981,-350,212
1970,-3925,5981,6764,927,-946,324
1971,-7878,-5045,-1886,1772,-964,568
1972,6969,-3652,-691,-736,1550,-1496
1973,7715,-1449,-1864,510,-1405,1314
1974,6927,-4547,518,-64,779,-112
1975,-2112,-5047,-7160,582,1331,457
1976,6288,1891,945,-1779,-1913,-1624
1977,-4382,6208,5722,-126,1375,1926
1978,1055,-3099,-6465,-1166,1427,-701
1979,-1881,5423,6033,-1276,-248,663
1980,-5156,4738,3043,-1615,-983,1616
1981,7236,2550,202,-852,1889,-1715
1982,7958,5469,287,-9,-1679,656
1983,1076,-327,1348,732,1391,-735
1984,-304,-520,-6406,-1066,-1996,1683
1985,-4109,-1567,1239,-207,44,-1370
1986,-1732,-1617,-6484,-1244,1091,-347
1987,278,272,-5100,-1338,-1240,210
1988,-2473,-1481,-3550,-367,-1433,-325
1989,1124,-736,46,470,1336,-1803
1990,-3509,4110,7271,-1694,-297,757
1991,-1853,2756,1322,-1443,-1149,-593
1992,-3064,-3385,-2153,563,-480,412
1993,-4707,107,4560,1129,834,583
1994,3942,-4996,-2140,824,-1660,-300
1995,6850,3001,-6526,-1045,-1916,-42
1996,-1412,4316,6070,-1086,341,1786
1997,2446,-5367,5640,-1641,565,-1169
1998,7729,6965,600,-46,-17,1896
1999,-3553,1269,-4736,-1934,119,-506
2000,27,-5940,-7613,1579,-1220,-191
2001,-1911,4590,140,364,186,258
2002,-1123,-1016,-308,623,-1119,1099
2003,312,4925,845,304,20,-1973
2004,-1242,366,6715,-738,1548,-157
2005,4969,7167,-2451,-1405,95,-829
2006,-818,-1277,-1509,1572,1074,-1954
2007,-6494,5392,-7129,-237,-663,419
2008,3555,-2941,-7094,-1318,-905,1713
2009,5233,1084,7844,1129,-1464,-1839
2010,-7766,-2546,5258,1379,-747,1447
2011,4941,3770,2083,-223,767,434
2012,5031,-4965,4833,-976,1239,846
2013,6093,-1278,-867,-417,-1322,736
2014,6512,1846,-613,1778,1686,-1562
2015,-1957,-4460,2983,-737,-1227,-1419
2016,-2117,7145,2856,522,1074,868
2017,3145,7227,-5765,-901,-1012,-36
2018,-595,5960,693,-1674,1946,1744
2019,5589,-6813,2409,-1466,-7,1507
2020,-5223,5595,1010,-385,60,1115
2021,2292,-3807,-4722,1819,1094,533
2022,-7900,1696,1341,544,359,-1009
2023,-1413,2208,-6391,887,1597,-253
2024,5126,-1605,7930,-613,-1364,512
2025,-5518,-48,-3581,606,581,-894
2026,6151,-4759,-7723,1741,-1015,-1383
2027,-6870,1202,3861,597,1006,-1992
2028,6901,7567,-5709,-1035,815,1904
2029,4129,-7405,-2972,-1388,-240,-1143
2030,2387,2998,-2582,-292,1107,-1969
2031,949,-870,-3631,-1757,-1222,1434
2032,3215,7511,5263,-79,-629,906
2033,562,-565,4857,-382,-197,-1430
2034,-6978,-4736,4447,139,1060,1922
2035,-4154,1597,6738,-1061,-42,-419
2036,7447,4629,4314,688,-1414,83
2037,614,-3867,-5374,1656,1225,-293
2038,-3023,2093,1602,-1043,558,-142
2039,-5342,-230,-422,743,-1050,-1800
2040,6376,6343,2468,-1835,330,537
2041,-4004,6746,-2369,-1605,184,1915
2042,-4990,-6952,7063,-1792,-1984,-1754
2043,-1812,-6920,-6351,1481,377,-1836
2044,-4387,-2863,-1913,1445,-365,-1658
2045,2516,-6831,-5323,-1478,1400,473
2046,4138,879,-3262,-610,1597,-291
2047,-1378,5802,6792,-872,-1933,1021
2048,-4705,3770,-2170,-1533,115,-1800
2049,3742,7707,542,924,-1457,-939
2050,-7792,1833,-6828,531,759,1201
2051,7333,-6737,-7058,-1553,392,999
2052,-3443,7955,-5270,-1419,-1891,-25
2053,7594,1945,-4952,-658,-196,1265
2054,-4195,-1830,-865,641,1194,-869
2055,214,-6971,-1366,1655,-826,497
2056,6473,-3932,247,-1819,-1729,1165
2057,-6510,5891,-3761,-1366,-970,171
2058,-6051,1615,-3970,966,1098,-952
2059,-3282,4805,-1343,1526,650,1184
2060,-709,-1240,-4866,1685,1180,1404
2061,5371,361,2250,-668,-685,-243
2062,-7692,-922,-3410,1491,1356,702
2063,-1965,1869,2851,1739,-1535,1547
2064,2318,7369,7175,-280,535,-389
2065,2374,-3768,-5072,-1665,1154,-624
2066,-1420,5379,-7418,-98,-1263,-846
2067,2718,5202,2720,-341,978,-1594
2068,6767,235,6208,845,914,488
2069,871,6315,2666,-1787,1498,11
2070,-4083,-1957,5132,18,840,731
2071,-3339,-2946,-5202,1182,1847,-768
2072,3875,6461,1620,-687,499,489
2073,-1205,-2642,3914,-1860,1366,232
2074,-1659,1004,6911,1102,18,1196
2075,-2845,6815,-4104,-634,1145,303
2076,-7152,-3743,5625,-1453,1741,210
2077,3586,7442,-6993,1822,-99,-1307
2078,-1854,4031,-5297,-77,-326,-771
2079,-3594,4102,123,-738,-1188,1100
2080,3444,-3231,-5205,388,-1438,1523
2081,108,5189,6499,1112,1594,-1561
2082,-1730,2291,-2111,-474,-1184,1126
2083,6404,7553,-2526,-1377,291,-1254
2084,4868,7926,7081,-1024,311,152
2085,-3211,6732,1250,1193,256,1183
2086,5222,1811,-4494,-1371,1437,269
2087,5898,72,2317,546,344,484
2088,-1439,-5063,-6559,-804,433,-1570
2089,-3228,329,-44,-552,1263,1619
2090,5247,6092,-4122,854,-206,1573
2091,-4765,-2533,25,-939,751,-930
2092,-87,2443,-6817,-1665,71,-1603
2093,-1473,-2820,6200,-633,1716,-465
2094,-6351,4814,-1378,-958,1733,1650
2095,241,2755,1476,-1614,-1531,1070
2096,-5381,-3613,-4719,1459,-434,-76
2097,1785,90,-3886,-34,-1249,755
2098,-868,2047,4074,-1076,1579,-1104
2099,-2976,-1069,-1640,401,-708,-1160
2100,-5454,-2042,4695,-1433,770,-1647
2101,6700,3585,7700,400,273,-576
2102,2340,-7655,5071,-597,-165,-145
2103,589,1782,4888,-1445,1877,-1552
2104,-3700,2487,4249,-817,980,-1145
2105,5261,347,-1187,1876,69,-1076
2106,-1441,-1497,-3806,-1260,745,1239
2107,-6335,652,463,-1037,431,-1622
2108,-5078,487,-7948,-1353,-959,-621
2109,-7002,-4591,-785,-1811,-1406,-446
2110,-5404,1841,2149,1181,1380,776
2111,355,1040,-1358,357,838,-412
2112,4611,-4010,-857,-197,1380,441
2113,3925,7353,-2085,-1926,-1112,1961
2114,-6127,-27,-7520,672,108,1903
2115,-5586,-7281,7776,-1590,769,1431
2116,7068,-3470,2797,-1683,1081,-294
2117,-708,699,2138,1633,1509,-1375
2118,4325,-1894,-3139,-726,-257,-1278
2119,6104,274,7631,-1753,1496,1349
2120,-4411,4034,-4538,-1555,1442,303
2121,3812,-6657,-5157,-1283,617,626
2122,4479,880,-1552,803,-1087,-314
2123,-1737,1800,7191,-258,58,390
2124,393,-3978,-3783,-657,1426,-127
2125,-3547,-3170,1487,1477,1603,1211
2126,1985,464,-6382,1293,-1572,-1917
2127,-1901,-4364,-2331,-248,-84,1458
2128,-2584,-74,-5666,-1901,1300,-223
2129,-6287,5593,-590,1314,1175,-1245
2130,1129,-7037,6838,1994,1411,1376
2131,-4096,-3147,3530,321,305,-91
2132,37,-1806,487,765,-1142,-971
2133,2983,16,-1735,-148,-717,652
2134,-4889,6327,1717,105,254,-189
2135,-2428,-3137,-6163,-812,599,1541
2136,-1340,3043,4665,-1952,812,1815
2137,5086,360,-1003,1113,558,-1805
2138,1847,7819,3306,-1551,9,258
2139,-1653,-6824,-7099,1264,1181,-1383
2140,-3993,-817,-5751,621,-174,724
2141,3103,676,5662,571,-1931,335
2142,-6925,2087,1797,-1928,182,-749
2143,4801,-4997,-40,-1494,799,1240
2144,-2846,-6596,947,-367,-409,1884
2145,4839,-1748,4054,550,-395,-89
2146,-1212,5090,1023,-1617,-255,541
2147,6166,2273,-3834,1708,-1639,-643
2148,-5172,-7400,6563,-236,1886,396
2149,-471,-1988,-6105,-418,-908,-493
2150,3035,6878,3548,-110,-1753,-793
2151,-3663,-651,3088,950,-523,82
2152,4650,-1204,2686,1076,-786,1097
2153,-6364,-389,2865,-94,314,-1287
2154,5993,-4072,737,-778,-382,-1507
2155,197,331,-558,-1886,-1738,-919
2156,4270,6888,-1998,-1687,561,-1472
2157,1497,-3206,2059,574,549,-263
2158,-2201,-7550,-250,169,1186,-462
2159,-7091,4015,6361,1096,-650,-1125
2160,-2818,2292,-2818,-1701,1696,-1889
2161,-4467,-4114,-5960,1092,548,-1719
2162,-6142,-5059,7944,1681,-1428,-398
2163,5169,4581,4653,765,-514,510
2164,5977,-1778,-3799,1512,1723,648
2165,5437,6079,-4617,1144,1215,567
2166,1323,7719,6796,-1484,317,-1936
2167,-93,-7458,3922,-1370,-1636,38
2168,3868,3959,3401,1879,-1534,-454
2169,3913,-6952,-4450,-1852,1268,-572
2170,-1439,6048,2429,-441,1469,978
2171,6971,-5118,-5494,-1206,-30,-337
2172,3274,-5782,4258,-1540,-1242,-1086
2173,5614,-1095,-3839,-1905,-1815,1372
2174,-1537,-2415,-3727,-853,1020,1072
2175,666,1023,-5753,-1056,-1738,1950
2176,-6572,-3939,6869,903,-1136,-932
2177,2758,7765,-6724,629,-154,660
2178,-6873,1314,5636,-165,1110,997
2179,-6755,3935,-1096,-1805,-1796,-727
2180,3376,3602,-7681,366,902,950
2181,-7887,-5128,-1102,-366,343,1796
2182,3042,-326,3433,-758,-704,1762
2183,4539,-618,-4013,-1241,-1670,-999
2184,-3692,-103,4948,-674,20,677
2185,2400,-6450,-560,99,-54,-1306
2186,3337,2614,2594,1426,-351,-491
2187,-7551,-6929,-4072,-1218,197,1848
2188,-1738,-1768,3738,-411,913,878
2189,2040,-3168,-6440,-1376,753,384
2190,-565,-4136,-7887,1949,312,913
2191,4270,-5978,1950,1276,-636,-1470
2192,-7345,86,4987,-305,-477,1734
2193,3641,2724,-1278,1108,-1218,1784
2194,-5985,-5953,6048,488,1408,-1371
2195,-7784,7482,6713,-853,1836,58
2196,1613,3273,7021,1587,1232,464
2197,-1404,-6907,-1858,673,369,370
2198,-286,-2273,5473,1026,-1562,1963
2199,-2351,3172,-3226,26,-1284,-1449
2200,-2473,6652,-2350,-897,1006,-1907
2201,1466,-1814,7943,-448,1936,-105
2202,-4296,6647,7260,1866,1632,-1246
2203,38,-6481,-2856,-1271,-750,-1832
2204,-1904,-52,-7655,-1968,273,-821
2205,-2784,7539,756,-830,-13,-916
2206,2134,-3680,-7893,1925,106,-1547
2207,-6493,7088,930,801,677,934
2208,-5350,-4205,2846,1680,92,-1741
2209,-4718,4314,6483,-1404,897,1471
2210,2766,-5261,-1068,-1885,-13,1639
2211,-5608,866,-2961,-1489,-156,-1520
2212,4776,3711,-7974,-849,1611,1525
2213,-3347,-7382,-6115,840,-251,-1679
2214,-3438,3886,4022,-506,1230,-744
2215,-4715,-7902,-6022,-1977,1046,1242
2216,1829,5903,-3868,1596,1551,-57
2217,3595,379,-7898,-891,-192,1141
2218,2031,2534,3138,1598,-360,-729
2219,1887,498,488,-1588,543,-259
2220,-6498,-5085,1726,-1392,-911,-1805
2221,-7723,-5153,1854,-1417,463,-221
2222,-2399,-7384,983,201,-1055,998
2223,2936,-3134,-1930,1023,702,323
2224,-2994,7998,4438,1630,606,472
2225,2406,-6272,7868,-775,87,-416
2226,-1776,3767,-4802,102,1321,-868
2227,-4187,3970,7768,1240,-107,729
2228,-7948,-244,2565,-332,-1827,-1440
2229,120,4024,-6713,56,-226,-656
2230,874,-7828,-4527,-1130,1646,-1864
2231,-3353,6926,5239,1762,-352,462
2232,-2404,-1011,1431,848,726,811
2233,-2462,-4702,106,1839,170,-1402
2234,-3020,6837,6567,1816,-1648,1456
2235,2868,-943,-6222,-1906,-1912,1864
2236,5745,984,4776,225,-759,-1556
2237,4984,1887,-5211,-1645,-433,937
2238,-7575,-1918,4876,465,1168,236
2239,5526,5427,1721,1885,1715,1800
2240,1413,-424,2359,-771,656,236
2241,-7938,-1837,-5374,30,-475,-192
2242,-5508,2438,5418,631,1137,1127
2243,-708,-1075,6456,-1825,869,-423
2244,-2620,-4059,-294,138,-843,-324
2245,-6958,-4297,-4774,215,239,465
2246,-2899,5216,889,-375,-1380,-925
2247,575,1555,5073,-403,-1390,-1624
2248,716,288,-4510,-1810,-785,-172
2249,-4045,-2040,6983,1314,-347,1008
2250,7054,-871,3179,396,1555,1774
2251,7678,231,-7609,1266,1573,-134
2252,-2832,2693,-5805,-1087,-1891,-1550
2253,-5435,1044,-6796,415,-620,1777
2254,4833,6478,-7004,1854,987,1317
2255,5213,5565,-5774,-930,598,838
2256,5452,417,4638,1540,653,1374
2257,3969,-7544,-1485,250,-1655,516
2258,-3974,3912,-6433,224,-786,67
2259,5002,-2955,5610,459,-786,-1017
2260,7813,3399,1669,572,45,-52
2261,2264,-4326,-5117,662,323,-133
2262,4089,4335,1455,-479,1003,1225
2263,7072,1342,-4238,-1982,-1762,-1306
2264,4527,6358,2912,1822,958,-577
2265,837,19,7137,622,1555,-1168
2266,-6914,-4090,-590,-1434,1687,1421
2267,2646,-5390,-7824,-768,1220,-556
2268,112,-4032,2478,-389,981,-1649
2269,-725,7434,-2032,-92,1071,203
2270,-3475,-2915,-1875,-1604,-1529,-1491
2271,4047,-1315,5595,-493,1466,-1776
2272,-2262,826,3626,-1878,108,1307
2273,440,-2712,-3244,834,-1009,-810
2274,-4704,-5484,-3573,-314,-1082,-1768
2275,-1288,-3607,-3834,-486,-22,538
2276,6270,7524,-3527,-81,708,-752
2277,6915,1300,3142,1474,-285,1372
2278,-4641,7338,-1664,916,-672,169
2279,-1518,387,-2882,-1196,-215,-1736
2280,-471,4861,1354,-295,192,-641
2281,-541,-4494,-5382,1470,34,-310
2282,-5763,498,2802,689,-1005,789
2283,-5966,3780,5369,-1137,-481,1873
2284,3090,3177,-6083,-1944,388,-613
2285,5280,-1725,-3499,1095,1101,-1274
2286,4291,-5394,5003,-159,868,1848
2287,4536,-7550,-6677,1783,-815,1277
2288,1070,2053,-7206,-1387,923,1695
2289,1566,5154,-7280,-1313,950,-612
2290,-164,5655,-7842,459,393,-59
2291,-818,4818,-7782,-1019,-422,-627
2292,-3260,-2939,-7007,916,-940,-968
2293,2873,-1865,6799,1514,1653,1112
2294,376,6271,-2005,820,-1934,-675
2295,6284,-5565,-1306,1039,619,-1174
2296,2861,-4026,-3036,1315,-1821,475
2297,5163,7453,5221,-1986,1761,-1918
2298,-5786,6180,2717,-459,1522,1532
2299,-5675,213,-4553,-844,985,-219
2300,-3034,3480,6107,-1766,-542,-1913
2301,-3185,-6063,4719,1081,966,802
2302,-1911,-6420,6677,-677,-756,983
2303,-4968,-414,107,-1263,787,-1237
2304,-655,-6478,1776,-635,1081,-1497
2305,-5751,7096,-2932,1975,257,-1250
2306,30,2256,2074,-1642,-1452,-606
2307,-6914,880,2124,1890,287,1852
2308,3965,1340,7143,580,-1472,1821
2309,-4407,7694,-1797,794,1256,-1256
2310,-3636,-7521,-1158,360,-358,1329
2311,-645,-5469,-7219,-149,-62,1417
2312,-7244,-305,-2637,1591,845,-446
2313,-4210,1532,-2570,-1398,-551,1399
2314,0,-3413,3299,-156,-1351,89
2315,-2518,-7772,-1801,-1314,-243,391
2316,1834,-4040,-833,1140,14,-1954
2317,-1339,-3702,6598,1328,-141,1548
2318,-114,7884,259,244,1960,-206
2319,5136,-4801,-1996,1782,68,1008
2320,2423,711,-6745,-1910,1142,210
2321,7450,7890,-804,-301,586,-1547
2322,4451,-1386,-4189,-1529,326,753
2323,7711,-2502,7571,-466,-1,-660
2324,-2666,7030,-233,-1829,-1595,843
2325,-4399,-7947,7874,-1839,-447,-1761
2326,5401,7214,3434,1674,495,-1603
2327,2558,1667,-2082,-298,-218,-356
2328,6881,-2549,-6458,-1059,296,-1640
2329,-4867,2756,-198,-1376,894,-1514
2330,-5471,7735,-4602,-1593,614,-1964
2331,-1448,-3372,7643,-240,1612,-514
2332,2643,-555,1532,-1865,1480,-1217
2333,4666,-5001,6488,696,1201,-1390
2334,-7622,-3590,-5384,-1677,-1724,1381
2335,-6233,-4412,-3650,1885,321,646
2336,-6400,-3631,4393,-101,1546,1462
2337,-7257,-4599,-753,1802,1808,-1858
2338,-2711,-6528,4795,632,1247,-120
2339,-2601,3814,-5573,-41,-1890,-485
2340,2088,2852,-4640,1940,-1952,553
2341,6030,7764,1843,571,-165,468
2342,2555,-262,7392,1416,-1434,526
2343,-6757,-7164,-1127,-364,1256,-1314
2344,496,3680,-7901,-64,308,-928
2345,6516,6908,2447,132,-938,-984
2346,-6,-3037,-6992,777,339,-1135
2347,-2084,7787,-80,1326,733,401
2348,2179,1928,7420,-1830,-1845,1274
2349,2900,-7946,-143,-1351,-1042,-1369
2350,4704,-2586,2539,-14,865,453
2351,6038,-7261,-2753,-381,1216,1405
2352,963,-5467,4874,-1556,879,-888
2353,-64,7917,6980,1943,24,1562
2354,-5859,770,-2645,-1764,1788,45
2355,5960,7655,-5332,436,-1627,1512
2356,3617,-6374,-5500,-377,1261,-156
2357,-4224,5407,2933,-640,-78,-227
2358,-7319,1244,-2242,1297,-1621,-862
2359,-6421,-1650,6583,1808,562,-1048
2360,2632,-3476,5783,100,1062,169
2361,-2505,417,5848,1080,1235,1369
2362,-3420,-2456,-5297,1996,354,816
2363,-2653,-2491,1630,-12,-869,-1298
2364,-3863,-2892,1566,88,498,-523
2365,5431,1722,4944,-328,-1609,-1250
2366,-7969,7973,-4374,-1798,-102,-169
2367,4620,-4706,-4836,-789,1835,-1115
2368,6308,-400,7948,-1649,-1876,1195
2369,3114,-386,-3425,-1380,-775,-502
2370,-7427,6402,3201,908,-591,110
2371,-7081,-4219,-7392,-1172,-799,1393
2372,5081,4502,-5185,-982,1420,-1569
2373,-1984,5977,495,1266,-1495,1826
2374,-4074,-2854,5986,-1692,258,1540
2375,-2717,7177,3277,-812,412,307
2376,-2621,4326,-7454,752,-1047,1339
2377,-5265,7630,4477,-362,1510,455
2378,-4553,1182,3881,272,1577,8
2379,-1191,3148,3882,-512,-522,1943
2380,-4442,-7247,4530,-1863,-1994,1772
2381,-7393,-5762,-5069,-1679,1443,1339
2382,-4913,1973,-552,-1791,1488,889
2383,4145,-5860,4965,1236,1873,-958
2384,5038,-2938,1934,1792,164,1690
2385,5964,6154,4139,695,-1606,241
2386,-7252,-1686,2358,1670,1700,462
2387,-5903,2745,-6118,497,215,-1016
2388,5706,-5096,3940,-204,-1148,-593
2389,-208,1927,277,1231,686,-347
2390,-7423,-347,-2277,1966,-447,1452
2391,4693,-6399,6255,1111,-1263,1021
2392,-4582,-4159,-430,1865,444,-493
2393,-7352,-2994,1300,-686,-748,-1346
2394,-2938,5305,-2948,1670,-56,788
2395,4333,2549,2420,-639,1113,-469
2396,7441,4786,-4190,-1627,1880,-1166
2397,1708,2257,3068,800,-28,1354
2398,3858,-6035,-3177,842,1570,1686
2399,-6053,6162,3024,1567,1399,-669
2400,6308,1793,2372,-1560,1967,1229
2401,7256,-4889,5132,-1455,-907,-1685
2402,-4595,3536,-3987,464,878,93
2403,2842,3559,-5191,1228,-388,-523
2404,-6664,2186,2252,1481,-1932,1839
2405,1507,2833,5747,1546,766,-1718
2406,1105,1690,4666,1031,-958,71
2407,-1613,2503,6826,1164,-969,1114
2408,7895,-6152,614,-1421,1708,-796
2409,4617,1381,952,91,67,1317
2410,5209,7664,-1987,1278,-1407,565
2411,3566,-5159,-684,300,707,-807
2412,-1404,5386,980,830,1434,-791
2413,2880,6959,5479,-100,-995,1234
2414,6638,5562,-5392,747,-210,-884
2415,7077,-6562,-7771,1017,513,-102
2416,-4782,-6406,5495,461,745,-1504
2417,-5674,-3006,1102,1465,1063,-1167
2418,3193,-3037,-2225,-482,1396,-704
2419,101,-875,4444,1966,-1951,410
2420,7780,6789,-7526,1478,1365,509
2421,-6149,-1253,7683,701,-1717,-1037
2422,1160,-3431,1410,-1977,690,571
2423,2293,-3194,384,1980,582,941
2424,-3942,-4278,1743,174,166,366
2425,-2842,-1298,-806,513,36,764
2426,-6293,-4868,-152,-133,-1422,1193
2427,453,4295,4299,-1605,-1788,1231
2428,4798,-1185,-1767,-921,1314,799
2429,-7681,-2635,-3880,-1765,-1174,-344
2430,-7804,5869,-7355,992,99,1321
2431,-5119,695,-7256,1132,954,-1267
2432,7298,3090,-5,1282,-593,-180
2433,-5839,6539,-6450,-789,-696,-1435
2434,-923,-1430,7928,1439,-1083,1067
2435,-327,-4431,-1644,274,1882,882
2436,-5079,-4881,-1712,-575,-1292,-1227
2437,5341,4548,6769,215,-447,1375
2438,6599,7404,-7645,-1203,1726,1451
2439,-7219,-5751,-2973,385,-1923,1095
2440,5680,4640,1304,-621,707,1405
2441,-1343,3262,-6522,-674,767,1142
2442,-1874,2239,-6191,269,1373,-38
2443,3405,6922,3820,254,-1777,571
2444,-6585,6556,7809,-1677,-571,-232
2445,1400,7443,5169,-1273,-1554,-972
2446,1720,2658,-2426,1508,410,1391
2447,1255,-4153,6904,-600,-244,1591
2448,2385,1905,-6250,-312,598,-1526
2449,-108,6829,383,1444,358,-250
2450,3214,-5541,3592,565,652,-926
2451,698,-1624,7658,788,-455,269
2452,5780,2937,-4213,0,1614,-1506
2453,6370,1170,4953,-1543,-993,-1009
2454,-661,-2723,1143,1930,619,-1138
2455,-6238,4720,5531,1617,1874,-1323
2456,2956,6175,3147,1178,1316,-333
2457,-244,239,1722,-1837,315,-1428
2458,-3821,3349,-5414,-59,-1835,1411
2459,-2188,664,-2172,1945,142,-295
2460,-6463,-4110,6328,-505,1874,1940
2461,5256,-5056,2304,-1977,402,1036
2462,-5962,-4496,-2673,531,1111,-1561
2463,6941,-2248,-5234,932,1362,1343
2464,1930,6356,-5393,-861,1457,-1376
2465,3359,528,-7835,771,-189,-1252
2466,-6523,691,2665,-1694,-64,-1023
2467,-3656,-1494,7599,1690,-278,567
2468,-5214,-2129,7612,1214,-129,-1438
2469,-9,-6599,759,-1508,976,225
2470,-5154,-7354,7857,-1708,-1605,1376
2471,3805,-5670,7215,738,1359,-438
2472,1295,-3016,-648,-674,-1635,1030
2473,-6027,3946,984,-1941,-1003,-431
2474,-59,6729,503,1535,270,-1157
2475,-3040,7659,-6381,-552,-866,-298
2476,-5869,-3082,-3319,-1134,-475,328
2477,-850,-6846,-4632,-1623,1514,-143
2478,-2117,-2227,-125,1195,-1687,-330
2479,1261,6361,-5171,1693,-1481,229
2480,3878,649,6856,337,1080,-484
2481,3242,-7263,6623,-1465,638,258
2482,-7000,-2977,-1306,274,-240,-406
2483,2438,-4076,5877,789,432,1679
2484,6736,3937,3033,-139,-1982,1456
2485,5982,2979,-4059,502,-276,-10
2486,-600,-204,-1228,-928,-785,1117
2487,5903,291,-3736,-981,1939,-442
2488,3610,-6678,83,782,-1288,-930
2489,-770,6646,4545,-1737,-1806,1039
2490,-3714,4041,7407,714,898,1968
2491,-3859,5228,-7639,1611,708,-1136
2492,5935,-640,5572,-1922,-1955,-792
2493,-5935,1404,2330,68,-1526,1715
2494,2469,-4242,7867,1556,53,28
2495,6722,-4769,336,946,-1149,-680
2496,4075,1601,-5074,1667,-443,338
2497,-7348,-5762,363,-1720,557,1024
2498,-1655,-2851,-3242,-707,-949,1501
2499,866,5778,6923,-1876,-723,1192
2500,7620,-4810,720,-1022,-1075,-1416
2501,-3004,2390,-1621,401,-521,-187
2502,6470,851,-136,1223,978,432
2503,-7123,7759,-1771,-36,-1680,1677
2504,-2561,3644,-3710,1098,1514,-481
2505,7705,-6505,-2993,1727,-1845,679
2506,3204,-4611,4869,1253,-413,-1296
2507,-7181,-7334,-3903,-1181,1943,429
2508,-442,3633,-7974,-1149,1748,318
2509,911,5663,124,-185,1000,-1442
2510,1719,-5460,-4738,-822,-1324,-1244
2511,1861,-1291,121,1958,1643,1329
2512,6431,-1845,5295,-1352,-35,1446
2513,-4714,341,3743,697,1803,-683
2514,235,-5013,1494,258,1772,773
2515,5745,-1824,4976,683,-160,436
2516,-545,2835,-2692,-120,-1299,-629
2517,167,3266,-3017,-138,-1570,1261
2518,6621,-2198,-7048,314,-1098,-964
2519,-4472,-6568,7481,1011,-1390,-508
2520,5458,-4039,6291,412,1503,158
2521,2022,321,6002,842,699,1682
2522,-6887,5433,2947,-959,-502,1476
2523,5724,3634,995,1680,778,-1799
2524,6348,5226,7928,-74,136,704
2525,-5160,3433,1692,-1307,32,1992
2526,-6747,6538,-2273,-1348,583,-802
2527,-3654,910,-4928,1622,1147,-1203
2528,1832,2335,3598,1373,-671,91
2529,-7606,1059,-6490,90,115,-1394
2530,7638,-7002,4894,1743,-692,777
2531,7037,-278,3287,1567,1375,301
2532,3649,1092,4381,-845,-1879,538
2533,3816,4072,741,-922,1072,1508
2534,-7515,-4146,2966,-1408,-1785,870
2535,-4186,-3090,-6914,246,1317,976
2536,7011,-1528,1123,-1037,1186,-853
2537,-2266,-7909,6079,-290,-1166,-441
2538,-975,-3740,6394,-1563,465,-1203
2539,-7553,-1404,-3194,-1800,-858,-1173
2540,-5678,1053,-4706,979,-928,1805
2541,6178,3418,1891,-1494,-1116,-587
2542,4603,-2402,3558,-167,631,-1699
2543,6943,-3146,3541,-1697,1157,-1065
2544,-3030,6899,-4343,-925,-1089,-1659
2545,-4974,5583,894,422,-1756,-1308
2546,7809,1105,-662,-446,561,1854
2547,-1373,-4614,-1344,-1299,1942,-813
2548,-4509,3335,733,348,-510,-395
2549,-4472,4409,7558,1929,1596,-1916
2550,-891,6,1924,1638,-309,-545
2551,-5745,7926,6071,-430,605,-1370
2552,2869,-429,1331,-1276,672,-1879
2553,1274,4593,3207,665,-1924,-1446
2554,4651,-3160,-2570,-592,1692,1085
2555,-3635,4452,6868,354,-1888,1597
2556,-7614,7602,-71,149,1890,1032
2557,506,-5440,-7423,1299,-1254,371
2558,6816,-4275,6982,35,-1112,1766
2559,-6689,2906,-7530,-1786,-286,-489
2560,5833,-3053,-7302,-438,-306,581
2561,-7733,2978,-1267,1926,-387,643
2562,-5915,6136,-2165,974,-494,-1183
2563,-6303,-6673,-4660,-204,-699,-1310
2564,5072,-123,3812,-217,286,-1638
2565,-2624,-1119,3004,656,1444,-1071
2566,-7573,6493,6722,-1850,-1530,1406
2567,2246,74,-3817,86,-274,818
2568,473,-7214,-720,-1021,-625,-1373
2569,-3871,1769,-2844,-182,-444,199
2570,5514,5006,896,-517,312,-1031
2571,5425,1281,-7585,370,-1806,-591
2572,1909,1975,-5723,-396,1288,1628
2573,-1614,5858,-136,-427,-1942,-358
2574,-135,-6380,1352,-1368,-1235,572
2575,4278,334,857,654,878,-811
2576,6430,-726,-1643,-1548,1445,451
2577,-7268,7334,5313,875,1529,1996
2578,-1584,1440,1106,1545,-1895,-303
2579,7239,-6626,7039,1887,1206,450
2580,2668,-7171,799,1403,393,-241
2581,1128,2406,-3285,-767,-316,349
2582,-7595,6205,7829,-1292,-556,-837
2583,4342,7545,-7867,-1691,-1969,1376
2584,3407,4369,4685,-1852,-903,-1625
2585,-594,7147,-4480,-611,665,1115
2586,3540,-6571,3675,1749,-1994,411
2587,-7490,6165,4522,358,-417,-1627
2588,-4181,-6625,-5691,203,-925,-1062
2589,-3253,88,1157,-99,183,-1169
2590,5537,-7089,2076,1285,36,-1227
2591,-4547,-5042,-7430,159,608,1002
2592,-4362,-4610,-1934,-1582,-691,1374
2593,2474,-5813,-7005,-1124,1966,-483
2594,-4767,-6209,-7860,481,55,-709
2595,6007,6069,-819,-582,423,-1033
2596,6585,6490,3787,249,482,1497
2597,7988,3419,-5632,-1703,1303,1129
2598,-6774,-4074,-6164,1722,-1829,-1704
2599,-2241,6057,3223,585,235,-380
2600,2062,6020,-2614,424,989,217
2601,-6546,-2512,-6649,-141,768,-1154
2602,7286,-5680,6398,1808,937,1726
2603,-5260,-375,6863,1344,-1306,1621
2604,-4418,437,5374,-1963,188,-555
2605,-1820,5379,5443,1724,-1300,-1506
2606,962,559,-7329,453,103,-1956
2607,4481,472,-5376,781,1510,-1309
2608,4558,2311,-486,-577,-1300,359
2609,3855,-1452,-7189,-565,-898,-541
2610,6616,-6978,5534,1871,-1474,1883
2611,3338,-6663,5922,1972,-1350,1804
2612,1693,-6253,7442,1146,-655,759
2613,119,-6458,4726,-307,-194,-587
2614,-3994,-6939,-1804,1233,-1368,-707
2615,-3609,-5936,5469,784,-759,35
2616,4135,5784,1143,314,-476,1234
2617,-5543,5745,-3867,1748,774,1389
2618,-2362,-2455,4396,676,-1816,1270
2619,-2530,-6312,-7885,355,-919,-73
2620,2280,7730,-4570,-176,31,-1748
2621,-1882,4619,-2739,-1428,1554,1158
2622,3111,-3945,-1205,-1136,-1068,1399
2623,6980,-1058,-5717,-1574,-1785,1771
2624,4840,5647,-2200,-1479,-614,478
2625,4297,7232,-6092,1201,-170,1869
2626,5779,-3156,6018,1659,1354,984
2627,-1384,-7006,1520,-387,367,-222
2628,3727,-1372,5111,1587,-1902,-1774
2629,-3832,-7972,1457,-59,1139,245
2630,-2008,-7903,6127,-625,-1965,1380
2631,-5909,5838,-7574,758,1338,1980
2632,-5059,6593,7628,1255,-714,-1711
2633,6384,5673,6475,-856,1869,937
2634,1590,171,5184,-184,-1022,-1750
2635,4161,3159,4212,158,520,301
2636,-7563,-5213,-2372,897,1572,-1300
2637,-249,-6385,-1947,-529,-648,60
2638,3353,-7330,5231,-415,115,1931
2639,3006,983,5941,-1604,-126,1918
2640,3140,6884,-2701,533,545,-1030
2641,6799,7464,4929,-97,-1935,-1850
2642,-2870,284,7794,-874,-815,1775
2643,-1825,3199,6028,-417,-372,-1528
2644,4939,-921,163,1011,1311,0
2645,4232,-7355,-3634,-70,199,-1016
2646,-5722,193,4881,-1934,-538,-1778
2647,-1423,6389,7391,1703,-888,-1769
2648,2160,6866,5109,-1230,425,-1586
2649,-5421,-3528,-938,1461,-1864,387
2650,-861,2598,3358,1172,455,-768
2651,-5134,7401,3138,-1382,-513,1050
2652,3966,-2543,-1645,-1345,-1258,198
2653,6788,-2058,2394,1954,689,291
2654,178,-3732,7792,-1946,741,855
2655,-1138,1278,3955,-1859,-531,-1227
2656,1296,2336,-2571,150,301,1057
2657,-5898,-2614,-32,-50,-510,-520
2658,6566,-3391,-5728,-1951,1594,-1036
2659,7379,-5337,5687,1986,1307,-1733
2660,-4729,7535,6335,1192,-1793,-1597
2661,2448,3610,-6097,-1721,1338,-1973
2662,3449,1150,7865,1843,68,-85
2663,-619,-4017,-4466,649,1920,816
2664,1696,-2999,3953,-565,1472,-881
2665,-2142,458,-5740,-1220,-211,382
2666,-2653,3088,1066,-665,-645,-1769
2667,-1301,1356,4443,-1863,-645,687
2668,-3248,4568,6581,754,-1578,-1074
2669,6905,392,-1003,369,-534,-1795
2670,-7753,-3588,7380,1955,490,-1422
2671,-5619,-2227,-807,66,-718,655
2672,-6650,1829,4127,1617,1116,-657
2673,4952,-3858,-7535,-597,1845,1774
2674,3922,-4646,-4145,-1012,-1548,1299
2675,-1881,882,-1363,803,-1249,-497
2676,4255,-229,7274,-1241,-1280,803
2677,-7676,4525,7914,1889,1771,-1144
2678,-666,-1172,1243,-1783,1516,491
2679,-1701,-5257,1644,-1038,-907,-1802
2680,-5711,-5746,-4861,-1839,139,-609
2681,6959,7594,5636,106,-727,1761
2682,-4282,-252,5029,1152,1868,1076
2683,-5641,5458,-812,1421,-686,-470
2684,-6395,5768,-293,-468,204,1979
2685,1892,-5108,7287,-1575,-946,1018
2686,1749,1038,-788,-1210,-863,-1341
2687,-109,-7562,3390,1768,-418,460
2688,7832,6702,5891,-399,-896,-354
2689,3026,-2239,4190,-1965,283,-486
2690,-152,-5854,-5927,-396,1246,997
2691,5003,-7774,-449,279,1859,-1544
2692,-2585,-6703,-7923,-1219,-120,-1423
2693,6245,5026,979,341,-1228,-32
2694,-1899,36,5451,-1198,152,1857
2695,2897,6634,2600,1601,-583,1849
2696,1798,2049,5889,128,-277,-498
2697,1344,2035,-5903,-1235,-1243,1068
2698,2004,4068,5739,1792,1171,1619
2699,-4909,4245,-6044,1658,-1396,-522
2700,5471,-1390,-2177,-1608,-1180,-512
2701,-5885,5189,458,270,697,866
2702,6164,-1203,2504,1856,-1577,200
2703,-1134,-7376,-5598,1419,626,329
2704,4448,4825,-7410,1371,1182,716
2705,6897,-1963,-7986,50,1655,1795
2706,-998,-3038,-6395,345,-1641,277
2707,-1851,5841,7236,-1274,994,1145
2708,1440,1028,6774,394,-1513,-1810
2709,1971,4529,6947,-1634,355,1785
2710,6715,3249,7071,-432,1253,412
2711,6341,-1501,-2320,-1319,-1930,-629
2712,-5046,-4204,6834,1778,943,1977
2713,1469,5057,-4946,-101,-1227,-1747
2714,-2170,2194,70,1956,1019,-1434
2715,-4350,-3442,3205,-1409,287,1260
2716,6474,3621,-4969,88,480,579
2717,-117,-3091,7352,-1176,1586,216
2718,-282,-6712,-348,528,-40,-983
2719,31,-339,839,1594,175,1092
2720,-1347,5045,7680,541,-1481,661
2721,4889,-133,2524,-979,-12,-207
2722,-3393,-405,6435,1161,1058,768
2723,-6033,5581,-5981,-658,372,69
2724,-4380,-2554,-606,1552,-582,-563
2725,-6474,-4841,-1725,1761,591,25
2726,-4720,-7312,5046,940,-1683,-1765
2727,2779,-3069,-7964,1116,1199,630
2728,-305,1142,5007,1432,978,398
2729,3133,-56,-7975,-30,47,-1528
2730,3521,7939,-5459,1879,-1109,-1267
2731,2765,-70,6965,106,-1000,-434
2732,2054,-6228,-7344,1180,-1175,-1079
2733,2202,6937,3359,1145,896,1155
2734,-4317,3548,-1567,743,426,-1092
2735,-5553,-1203,4192,-851,788,-999
2736,772,6273,-2975,-852,-1442,1944
2737,-5287,366,1269,-964,-561,86
2738,-5631,2440,-83,-1163,1937,-1717
2739,4568,-125,4265,-334,-1054,-1743
2740,-5543,3210,-7339,1921,1146,-1473
2741,7689,-1161,-1457,761,-419,900
2742,-3863,3824,-4949,1959,-1361,-154
2743,-1127,2635,-4112,-1431,369,1046
2744,-7709,-1943,2559,654,-1142,-553
2745,-2608,-7711,6034,-552,1846,-1703
2746,7520,982,-2238,-1277,-1989,-1474
2747,2749,-7228,-5883,1427,-933,1709
2748,5066,1108,5771,707,1660,-1344
2749,-211,-2286,4943,-1488,587,1957
2750,-7867,3969,-3860,-1899,1345,1321
2751,-6982,3570,1459,57,1074,-630
2752,3877,-7633,1409,1283,-503,-1690
2753,1868,3714,-4107,-1853,1540,1903
2754,6960,-481,614,-1244,478,-277
2755,5516,1025,-2375,1175,1493,1227
2756,-2760,5131,-3002,-851,-739,497
2757,4837,3546,-5115,-530,72,-319
2758,-1669,2446,6613,-844,1189,493
2759,-4557,-2379,3292,1376,-298,-714
2760,4711,5568,508,1205,737,-45
2761,3750,-1704,-978,797,870,1413
2762,2274,-534,-7274,-1792,-769,77
2763,-6362,2235,-2179,-1884,931,1276
2764,2373,-2236,-621,-1019,631,1379
2765,6805,-3507,-3164,0,-1267,297
2766,-1698,1116,-436,-1456,-151,1938
2767,4107,2864,1735,-1486,1827,1434
2768,-6000,1958,-5547,-232,-639,1276
2769,-2960,6834,7201,1652,1957,1565
2770,-4381,2919,5160,1704,1073,1804
2771,3004,-7329,-2943,1029,-580,-1617
2772,-2777,4802,5928,-1502,1627,1287
2773,2860,1788,-436,413,-1739,-678
2774,-1675,2701,5432,934,1385,-786
2775,4128,2245,-3517,1317,-710,-1683
2776,7391,-1659,-335,-1984,1532,-1531
2777,7648,-2024,-6499,-239,1250,1358
2778,3232,-1495,-5635,1232,-1893,-1559
2779,-97,-5475,-3118,1266,1490,-312
2780,1868,-5047,-432,-1574,-1229,1975
2781,-5709,1544,4466,-1366,990,1618
2782,-370,4588,-6997,-1770,1516,-1976
2783,-888,-2799,1480,1720,-724,1758
2784,2228,697,-6344,-170,1941,1397
2785,-5972,-3981,6052,565,-1415,-902
2786,-1251,-1561,5547,-1438,1285,-640
2787,7215,5627,5021,592,-660,-870
2788,-6847,-3938,-4345,-1990,77,227
2789,833,-1600,-7708,-1744,-361,-1577
2790,3054,-4271,7000,-1484,646,-448
2791,-1578,2942,991,-94,-1079,-1955
2792,-450,4679,6504,1029,598,-1812
2793,5592,-1017,-7392,-1579,-534,1886
2794,-7729,7071,-5468,583,1873,1889
2795,-4935,3960,-6864,-415,-149,821
2796,7014,4494,-6628,-1690,196,1558
2797,-4669,-6230,-2110,-921,961,1224
2798,1717,-4195,-1966,1549,-1414,773
2799,1243,285,-6892,-1863,856,-1283
2800,-6209,7224,-1784,524,399,1704
2801,-4581,-2874,-652,-778,-1286,1477
2802,421,7163,2800,1927,-1642,-1726
2803,4925,7840,-5736,-145,1389,1913
2804,7280,-1659,1378,-711,-1305,169
2805,-5201,-6181,560,-812,-990,-1807
2806,-357,314,-1023,-1565,405,-1283
2807,1446,-6831,-5240,-93,942,-401
2808,-2646,660,-2442,-1137,-1294,1731
2809,3994,61,7606,293,-136,1744
2810,1453,-7724,6995,-285,-1117,200
2811,-1805,6692,5719,666,-1536,-1814
2812,-7667,3665,5064,-1373,-915,1776
2813,1673,-7616,-162,-949,1135,-1503
2814,1922,328,-434,1989,1389,-1676
2815,-3147,2011,-5960,-596,-416,-771
2816,-2670,727,-545,-205,85,1183
2817,1980,-2412,-782,1432,509,1095
2818,-3859,6953,2618,1813,658,1912
2819,-6877,-3038,5886,-1312,412,1252
2820,-7120,7862,-233,1744,-1623,-255
2821,-6167,3298,1656,-424,1392,-623
2822,2875,-890,-144,591,1722,-103
2823,4367,-7364,794,-1296,262,449
2824,3587,-5565,7036,-141,-1896,1711
2825,-4386,5344,-2478,285,-257,1607
2826,-387,-1800,-3643,172,-1277,910
2827,5032,1556,-7546,-675,-1238,700
2828,3813,7652,-6852,38,990,-315
2829,4991,5820,4143,31,1528,1739
2830,-4116,-556,-2973,-455,792,1963
2831,866,2045,7392,-190,1900,-146
2832,-339,709,-5365,-670,-668,1338
2833,6496,-1294,2109,779,-650,-620
2834,-6837,5120,7417,-1544,1233,1079
2835,-2032,-2705,3552,-405,-1720,773
2836,7969,-3682,6385,-1906,321,1272
2837,7602,6272,-2276,1911,-1029,1398
2838,6572,-5313,-3560,-873,-1407,1849
2839,3673,-4586,1557,-1608,1003,897
2840,1638,1881,2084,-813,-1458,-1314
2841,961,6711,2004,1929,1716,-1795
2842,-723,1512,5270,479,-1163,1682
2843,5115,4198,-4331,-1476,-866,-1337
2844,1176,3034,-7266,140,598,1594
2845,5367,4625,4848,1256,-1251,1054
2846,-1084,-6136,2499,-990,314,-727
2847,-4167,-1574,250,1812,524,-1970
2848,-3989,1632,-2773,790,1209,-341
2849,6618,-1839,-1627,-670,-1590,-998
2850,-7859,-4650,-3315,-160,1639,1823
2851,3059,-7202,-4944,687,-1416,-614
2852,-6763,4788,-83,1634,-1734,-324
2853,-3037,-4889,-4087,1330,1412,-88
2854,-5564,866,3329,782,-1179,-850
2855,-7022,7925,-6174,270,33,-1567
2856,4937,-7748,5541,-1278,-861,-1167
2857,3655,4531,-5276,-1318,1349,-143
2858,-150,3496,-7636,618,760,1139
2859,-2273,-6331,-4386,-1313,-1622,1772
2860,-436,-2334,-2262,1831,-1873,-426
2861,-1383,137,483,-82,37,-1566
2862,-2899,-1265,5219,-698,-1647,540
2863,-7541,-7235,-7756,941,-1410,1033
2864,6196,-6830,1669,1355,-1299,-1170
2865,-7508,-6459,-4703,556,441,1363
2866,-5247,2793,1469,1956,290,-1012
2867,397,-131,-6999,-1885,1615,1337
2868,-5444,-4462,920,-1061,-904,636
2869,7745,-2069,4101,-609,1115,-1736
2870,5524,-1908,-2220,-1710,36,1815
2871,-3579,3618,1590,72,1356,947
2872,569,1544,6131,1635,-175,290
2873,-1508,-7537,4909,516,579,-1953
2874,-2878,2788,-2068,231,-181,-1792
2875,-5569,6501,-4190,-408,1178,1883
2876,-1253,2607,-4679,-1738,1721,1572
2877,5893,1275,2183,652,1343,-1843
2878,-4227,3407,4313,-1021,79,-563
2879,-6920,3569,-6642,-1520,92,-729
2880,-5580,4759,6443,568,228,1205
2881,2568,-1702,732,-22,1925,-80
2882,7313,4228,-1971,-473,-812,1148
2883,-195,3827,2480,-181,1435,283
2884,-4669,-4668,5979,348,-869,1684
2885,5055,5651,6748,1003,-1318,1925
2886,897,2213,-3898,1735,-1047,1959
2887,-2699,2924,-4257,624,240,-1839
2888,1804,-3,7875,892,-264,598
2889,-6079,-2225,7627,722,1866,-561
2890,-4918,-4529,-643,-1893,1818,-1109
2891,-5393,698,-5235,-388,-1877,-510
2892,-3450,-5605,7228,-1554,886,315
2893,3036,4814,-4703,-1325,971,-1191
2894,2803,7729,-2264,838,15,611
2895,4960,-3555,1861,-818,-117,998
2896,-6312,1883,6251,1168,-856,1364
2897,2711,3196,1091,570,863,233
2898,7981,-7723,-4933,1345,-1654,1287
2899,5489,-3674,3674,-1344,1271,1536
2900,-3348,3017,-7105,-643,-876,1262
2901,2392,525,-7666,1516,1284,517
2902,-562,-2138,-3365,692,-972,1980
2903,5098,154,-7058,1016,-611,1143
2904,-5154,-3955,-1759,15,-1653,534
2905,-2678,-6192,-6644,-365,1879,-1168
2906,-6541,-6659,1499,-968,-1935,-1843
2907,3540,-5614,6069,430,-918,-671
2908,-7428,7971,-5212,1749,29,-633
2909,-1411,4610,-4656,-970,158,-1463
2910,4362,-868,7860,369,824,-1067
2911,-3826,-668,-1819,737,-1005,-1024
2912,7230,2556,-2373,-911,1054,-1326
2913,548,-4145,3058,-1028,-1436,828
2914,-7093,-5851,-1817,1355,-939,-78
2915,-5567,504,-1764,325,-1539,-163
2916,-958,-5603,-1573,303,-356,1529
2917,3551,-4175,-1248,-382,887,-1305
2918,1455,977,-7834,-1888,456,416
2919,1553,4590,-7461,1360,-424,-1699
2920,-2706,1647,3461,159,877,1340
2921,-341,-2794,-5017,-971,41,1581
2922,1886,303,-4198,1509,-894,-184
2923,6380,-4516,-5462,456,-300,-327
2924,6642,7949,5649,646,351,-976
2925,-3557,5785,4662,-1918,287,-657
2926,992,-4878,2142,1823,1921,-838
2927,3238,-4492,3336,-919,-747,1573
2928,6790,5843,-6981,850,-1965,627
2929,-2509,-3103,5390,1663,-341,-1613
2930,2507,5590,-2457,1370,736,316
2931,-2616,3687,-6977,1501,699,1695
2932,-6151,7358,4775,1651,363,1143
2933,-2630,-2648,7786,890,-840,295
2934,-1749,3820,-7473,-1362,1378,-219
2935,2949,-6955,-2728,-672,964,-481
2936,-3271,318,-4208,-1345,648,-104
2937,-4706,6798,-5891,-1141,941,1614
2938,1167,7677,-2003,355,-834,-1317
2939,-6474,6545,-4535,-348,1251,1833
2940,2025,4320,6845,385,-1908,1685
2941,3522,-7869,4890,648,-790,1874
2942,-7724,4349,6695,660,742,263
2943,5531,-6949,7469,-1751,1608,608
2944,-5258,2840,-7307,-1194,-1113,483
2945,3858,-3852,-838,79,415,691
2946,6943,-1093,-4117,1385,1700,1331
2947,4465,5764,-3692,1868,-1265,916
2948,4346,6034,6142,716,-1370,1821
2949,-1068,6611,-5046,459,-1484,-774
2950,2627,-2249,-6813,-1630,-37,-308
2951,7354,7236,1987,1725,-184,-1657
2952,-1111,-2720,2137,126,-956,-1619
2953,5763,-4269,-7706,-867,-1514,-451
2954,7314,5259,5879,1148,-77,1851
2955,383,-1445,-1514,-1836,808,-1799
2956,-1393,-6945,2107,-1773,956,714
2957,52,-6811,-6255,1185,1272,-514
2958,-3653,-3288,-7931,306,-137,1355
2959,645,1425,257,22,-1874,-1180
2960,6642,-5344,-6528,575,1544,-1556
2961,7314,-3503,7447,-1438,554,-1287
2962,-7418,568,2201,914,1944,-107
2963,-1605,-2844,-4387,918,-1764,1489
2964,2199,-4993,6337,1550,-1371,219
2965,-5059,-5779,5773,-932,-1134,-192
2966,6334,-62,7027,-1502,388,585
2967,-4938,6875,7257,-864,-660,473
2968,6585,6765,560,1981,-1904,434
2969,-7324,7373,6818,-212,-1589,-1886
2970,6863,-5198,7749,186,-1071,-501
2971,-7256,5009,-3254,-1938,1554,-1692
2972,-5582,-4879,653,805,1334,-1901
2973,-1637,5892,-2184,-525,997,1581
2974,-5792,7096,4093,221,-1767,356
2975,1150,-3414,-554,-503,-1640,1660
2976,-1134,3343,-3336,-1307,467,1967
2977,-560,2044,7019,-378,573,-848
2978,2866,3909,-2586,-1585,1071,-1752
2979,-5591,3265,-2273,813,-1080,-846
2980,2085,3264,-4621,750,141,-1365
2981,-2557,-3112,-4645,-1029,-717,1738
2982,-5131,-1647,-3647,-358,898,662
2983,5409,3176,4001,766,214,1269
2984,6327,7860,6371,878,1716,1167
2985,-940,-5356,-5425,1415,-862,-89
2986,7507,-7792,-3711,1675,644,-1802
2987,2174,5183,-3525,1577,-346,20
2988,-2699,-5915,2154,608,-65,1732
2989,-60,106,295,1687,1754,1781
2990,-6972,-6069,-3254,-1706,-300,834
2991,4877,-7000,-7802,1448,-32,1362
2992,-5416,-289,-3968,1785,1654,-1214
2993,2198,7890,473,291,818,84
2994,-5822,-5470,2771,-1817,1129,-1086
2995,2775,2969,-7376,-139,1782,747
2996,6304,6505,-3511,157,-1814,888
2997,-5381,590,4022,1135,1678,-460
2998,6261,-7430,-613,-846,389,-234
2999,-4492,-7627,-7117,-386,-1209,-363
3000,-1519,-5437,2847,653,-97,-79
3001,-7788,-3392,2518,1836,-441,532
3002,1090,5250,-2091,335,1264,-526
3003,936,6326,-3646,-1629,-233,-1664
3004,-7375,-898,2306,-363,-1668,-870
3005,-1879,4211,6587,353,-1154,1633
3006,-2314,-256,-266,875,1266,-832
3007,1075,-7170,-3672,347,635,595
3008,6783,1610,5786,955,756,-203
3009,-4977,-331,-1786,1724,-1369,-422
3010,6369,-7333,-5391,-718,-1630,-436
3011,642,-1033,4950,-1687,553,1377
3012,1358,-2326,7676,-1740,-1665,25
3013,-2733,-4254,-4873,1271,-193,-908
3014,2124,4431,-513,-264,-1058,1061
3015,390,6845,3677,362,-862,-756
3016,-5374,-7326,-1316,1318,364,1040
3017,3727,4295,-7609,-853,-1531,-472
3018,712,174,-7246,-336,-636,1712
3019,4008,1876,7603,1241,852,1197
3020,2753,7508,3883,159,-326,-1809
3021,-3320,2185,-1088,-186,-1227,-1857
3022,3907,6435,7892,564,1413,1456
3023,796,-3975,3263,-720,-1609,1939
3024,-7606,7337,-466,1851,-1773,-700
3025,-7887,-6150,-7741,-1388,263,1148
3026,-1647,2831,-2514,-680,-1309,-1749
3027,5782,-3608,-1427,235,-630,1178
3028,-5898,6976,1813,701,1861,553
3029,612,-4462,-6728,-177,32,-1781
3030,-3384,6911,-3335,-1182,1957,274
3031,-7568,-7314,569,-276,-798,-1767
3032,-440,1648,4216,387,-977,688
3033,1464,4322,-2975,348,1423,1951
3034,-1599,-6530,7413,-1699,1872,124
3035,-2318,28,97,-811,-1855,-1303
3036,-5115,-2894,-857,-170,1810,-1591
3037,771,-4847,518,-1845,350,882
3038,5004,633,1475,1787,1128,-298
3039,1813,-5113,660,-1526,520,804
3040,7454,1735,3487,-1685,1539,-795
3041,5913,4228,5138,507,1904,230
3042,-5154,5766,4112,-1146,1918,1982
3043,-3831,702,4080,350,-1966,703
3044,-6196,-7460,7973,-1777,-1681,1079
3045,7821,4948,5166,-1014,505,1159
3046,-7511,-1040,-5052,1872,-698,471
3047,7674,7061,5682,248,-695,1804
3048,-1990,5553,-7134,1334,-968,235
3049,-4020,-5632,-6717,109,-425,-1582
3050,2956,-5067,3970,-1181,147,-253
3051,-1402,-6081,1762,-193,1416,-1888
3052,-6692,6424,1323,-579,-972,-1965
3053,-4683,5136,-7536,-304,-698,-1018
3054,5932,-7290,3788,661,-251,-1955
3055,-5782,3790,-6266,-1247,-339,1684
3056,4885,4469,-5917,-1648,-1896,-295
3057,4396,7855,-3072,-567,-1206,1663
3058,-1076,-6250,215,1506,-1089,1470
3059,-3718,5574,232,-1943,698,-47
3060,6962,7900,-7545,1237,1131,-1286
3061,1954,-3244,111,-331,-955,-1865
3062,2583,-256,7915,1321,275,779
3063,6012,4958,933,1502,-333,1629
3064,-803,7422,3523,1295,1413,-815
3065,5648,-6049,7774,1966,-927,1094
3066,-5568,-1784,3885,1115,698,-4
3067,-6854,7821,5364,-1989,1339,-1137
3068,5258,-3831,7784,-1849,-1301,732
3069,4505,6830,7985,1701,345,300
3070,-2903,354,684,-1508,-1458,-1862
3071,2903,2171,-5639,193,-102,1159
3072,-5606,-6293,-3198,-235,-1413,736
3073,-2530,2638,77,237,-1324,-1640
3074,-3443,-1930,1227,715,-538,-1179
3075,7108,-3805,7273,-987,-1337,-1973
3076,-3624,-1858,-6576,-182,-1839,1271
3077,-1296,386,-272,-1802,-748,-98
3078,-2122,7149,276,389,-787,-1008
3079,4536,6141,-3260,1543,13,-1916
3080,-584,-5020,1322,1192,1994,1532
3081,4973,-4871,-5004,1320,1260,-301
3082,-3433,3368,3345,-801,215,1527
3083,-6232,-4429,2070,1606,1596,571
3084,-2380,5725,-6249,-1832,1693,-954
3085,1975,4612,-4233,-1994,201,-488
3086,4506,234,-711,136,420,-719
3087,-2576,1772,7261,-1375,375,1933
3088,-2219,-2367,1060,550,-1075,-1067
3089,5658,-6721,-3823,-163,408,750
3090,3159,-342,5074,870,-1072,-1503
3091,-3153,2212,6769,519,1115,-373
3092,6856,3917,4015,-341,1570,509
3093,-595,2046,4784,942,753,-482
3094,-3050,-4487,-4805,1026,-1570,1133
3095,-2409,1296,-4519,713,1889,-461
3096,-5162,-3603,-943,1466,117,-1176
3097,78,5780,-4593,-1740,-479,126
3098,-2893,-5246,3559,1951,-1584,1295
3099,-5370,2196,-568,709,-1670,1245
3100,-4067,-7873,3832,981,1048,-718
3101,-6087,-5765,-4080,-1992,-819,1141
3102,-2717,2573,2013,996,-1329,-719
3103,-7753,23,-5887,-512,1022,1329
3104,-1009,-4368,4838,-1173,-1036,-723
3105,5088,746,-7041,1824,-1022,-1821
3106,-2526,-7120,2496,-1375,-942,1715
3107,7578,2525,-5106,1346,671,-163
3108,6424,-4338,7223,-1131,-371,-707
3109,-7047,-6987,327,-1033,308,-1538
3110,-7918,2925,-2442,-152,-908,1187
3111,-7482,-4467,6694,-677,-695,-999
3112,7542,-458,-379,-1446,1183,-1460
3113,3085,-5178,-7650,-1956,406,1878
3114,2471,7535,-1186,816,-799,-1315
3115,6458,-4509,2737,-1616,-1683,-957
3116,1229,4649,-6501,1495,931,-962
3117,3553,-2452,6445,-1022,-434,1531
3118,6988,789,3041,-922,43,-1950
3119,-5329,4446,-2989,-533,-883,-1600
3120,-6325,-7270,5417,-1706,-686,-173
3121,-7666,-5698,6263,1691,-607,-1429
3122,2642,5586,275,-754,-53,1670
3123,-6257,-423,-5471,692,649,-241
3124,7268,-3945,7340,674,1735,64
3125,-4150,5154,2235,-750,-1764,994
3126,3113,-5764,3301,-961,1828,1610
3127,-7574,56,2474,-1165,-814,1773
3128,604,381,-578,532,1295,-74
3129,3976,2262,6781,-656,1000,-1899
3130,3858,3834,-6811,1741,-210,1614
3131,-3426,-2829,-2905,1137,1831,-1811
3132,-5825,-675,5046,-1344,1014,96
3133,-5062,-7970,-6075,1447,-380,-599
3134,-5175,4188,-197,-180,1424,2
3135,1495,840,6347,326,1385,1829
3136,608,-3098,-211,62,131,1297
3137,-7577,1147,5708,-1667,444,884
3138,-6898,-3992,5148,-339,-1247,466
3139,-109,6741,63,-1791,1037,-1857
3140,3126,-6949,-7215,-462,-560,-308
3141,-6650,2141,-348,-686,1139,1553
3142,-7128,7060,1184,574,1322,417
3143,6551,-5561,1142,1610,-900,1220
3144,-4206,-238,6300,-1201,-1865,323
3145,5118,3574,-7455,-1501,211,1941
3146,485,-648,3701,927,-1448,-1374
3147,-5570,454,-7617,-867,-700,-1666
3148,3451,5024,2938,1630,-1241,1652
3149,3208,1680,5142,42,1849,1861
3150,-4221,-7770,-5253,1328,10,-347
3151,-6622,1124,-1167,1882,-1743,1205
3152,-2994,4851,-754,1144,-1914,-612
3153,3246,4691,-5388,369,-1408,1922
3154,-1014,-372,1679,-752,1573,-1212
3155,7994,4400,5938,1434,-434,1008
3156,1995,1079,4226,1772,135,451
3157,6004,-2930,7207,-1120,760,-1934
3158,-4487,-5578,-2700,1279,-1987,1543
3159,1234,-684,6031,-1561,1687,-1848
3160,-296,-713,2816,1439,-523,-573
3161,598,-4654,-2368,-1739,1059,-1385
3162,6511,-2249,-7133,116,-835,927
3163,1042,7890,7816,-982,-1202,-568
3164,-6759,-694,-185,1135,50,1364
3165,7173,-5542,-6522,1448,-1934,269
3166,4800,-7197,7807,823,727,879
3167,-3406,6611,6995,-1919,1776,234
3168,2433,-154,7595,-161,118,764
3169,5122,-2145,5119,-623,1708,-1746
3170,2372,-4487,5672,1828,-1146,786
3171,-988,-6708,3525,1571,-1454,-873
3172,-5533,3135,819,1661,-1916,1998
3173,2801,-3738,2305,1195,-869,669
3174,5826,6670,988,-15,1809,990
3175,-398,-3911,-5529,-423,1370,-932
3176,-3577,4831,-7778,-1853,-1683,690
3177,1133,2149,4185,-1578,-895,226
3178,-2635,-5289,-6190,-1430,709,-1022
3179,-4723,-473,3833,2,70,66
3180,5945,-7191,-5065,-1423,1353,-1699
3181,-4024,-7151,-4617,-1393,944,-523
3182,2471,-388,-4813,884,-514,824
3183,3934,-6555,4366,1649,230,85
3184,-7112,3968,-5342,1936,1897,278
3185,6301,4047,-2701,-693,1999,-539
3186,3657,6542,-3993,1582,1910,40
3187,7146,3057,-6750,-684,-316,-1775
3188,6823,-1724,-7817,-1703,1293,-294
3189,-4839,-4042,-6099,250,1871,-916
3190,-3850,-2522,6788,642,1389,1978
3191,4231,-4751,-7748,1863,-19,698
3192,-5838,7923,1294,-476,-1766,-1995
3193,5359,1631,7894,-23,1550,-1933
3194,6525,4427,2434,1642,-1688,1129
3195,-5670,383,-5771,-348,-332,964
3196,-5642,-7624,1453,986,-25,1212
3197,-5489,-4247,-1402,1333,-1548,903
3198,6553,674,4859,-108,1530,979
3199,3842,-30,-3155,1223,-445,763
3200,5572,145,-200,-1394,-1395,-1798
3201,5644,-5155,776,-841,-1594,376
3202,-5385,6434,2521,-700,248,457
3203,-7897,6546,-5293,521,223,1256
3204,3326,2276,635,1065,1687,-1881
3205,5196,5708,1310,1889,-804,-531
3206,3864,6258,5782,-641,1492,152
3207,7432,1749,-1688,-1519,-712,-1792
3208,1109,3404,-1799,-1640,-1272,-1884
3209,4209,862,-5837,257,-1869,-460
3210,349,-64,-3119,-795,371,-1466
3211,3710,-1452,-160,-767,928,-19
3212,-4175,3236,-7307,-254,-228,-1727
3213,-2282,6546,-63,318,-811,213
3214,-3180,3363,7802,1760,-56,1961
3215,7538,6297,-2739,-910,-1776,-1635
3216,-6219,7585,6686,1911,-189,-1412
3217,-4684,3258,5040,114,1664,1814
3218,-862,-6457,931,1197,-227,531
3219,7168,105,3058,1258,1525,-1066
3220,2440,2091,-5215,-1480,867,-1177
3221,-3266,7580,-5513,1915,-179,1269
3222,2832,2412,-7780,-1856,1942,1687
3223,5234,3217,-4152,957,254,459
3224,3552,-7313,-1791,-1575,-1409,-155
3225,-7394,5106,-33,-1676,592,1868
3226,-4279,1879,-307,698,1825,138
3227,4471,-1798,-6345,1775,1725,-467
3228,1581,3998,-4458,-1568,827,-235
3229,-1522,2277,-5612,1291,-213,-644
3230,-2658,-4601,3275,775,1997,-572
3231,-5064,-4486,826,1084,-1439,346
3232,5370,-5643,-3248,-649,-521,1927
3233,4102,-64,-5666,-452,1767,-1320
3234,1542,-3689,2487,359,336,-1053
3235,-7087,2668,-387,1564,1238,-1457
3236,-5796,-7371,7932,547,803,-797
3237,-4670,-5638,5511,-790,1730,-519
3238,-6622,6963,4760,-1078,1065,1402
3239,1712,6327,3706,443,1470,304
3240,7486,-4641,-490,969,1221,1306
3241,-7231,-6562,657,-1488,1914,1647
3242,-798,2332,-6554,950,-414,-1481
3243,-5854,-3629,6087,-1801,1690,-77
3244,-47,7996,5268,-1922,1456,-1645
3245,-3654,6636,-2932,-1128,1744,-1069
3246,-2220,5835,-4271,-1941,258,-47
3247,-3451,4556,-7524,145,796,-1849
3248,3165,-5861,-2837,-1334,-130,1906
3249,3988,-194,4974,392,-1822,-606
3250,-6203,5929,-1553,-547,-1664,-1513
3251,-2704,1115,6849,813,1073,1482
3252,5178,2416,-4017,-374,1367,1572
3253,-6695,-1404,-1696,-766,-259,1903
3254,-4719,7281,601,-437,1309,1206
3255,-2916,958,4226,1310,1865,-1884
3256,7894,-1194,-3875,272,1119,-683
3257,-5767,-6176,-1056,123,918,-1574
3258,5222,6166,-3976,-872,-984,1855
3259,-7081,-6079,-2046,-965,768,-815
3260,-5950,-6371,-997,-1828,-240,18
3261,-5236,-6853,-6385,-553,-567,488
3262,573,3429,-6969,-1509,927,1490
3263,-6140,6898,6242,-202,753,-1669
3264,2408,1268,-3231,122,-911,226
3265,-1172,-3051,5940,62,1664,-510
3266,-5317,-1174,1731,-577,392,1318
3267,-2767,-4836,1617,1971,1679,732
3268,3657,-1767,2878,516,1607,-530
3269,6446,-7957,81,4,-1442,-332
3270,4155,-3049,4858,-1815,-1486,1253
3271,2648,7038,5815,-324,24,1887
3272,4849,1798,-874,-1352,-355,-1333
3273,3024,1168,2051,-628,1036,823
3274,5466,6157,-353,-133,-988,-1559
3275,-4272,7324,5575,1774,-818,-431
3276,1704,205,950,-566,1108,-1248
3277,6286,796,-539,1421,168,148
3278,-1439,2116,-5325,276,1260,1499
3279,-3560,1571,-5509,1795,1605,1316
3280,4403,-4284,-6123,-420,1422,-263
3281,-7115,2793,-5300,72,1108,-1258
3282,-3895,4244,4863,-892,-680,-1676
3283,2689,-1173,6543,1530,1033,544
3284,-2328,-1379,6270,-1674,-24,-170
3285,1331,-7685,4666,1726,1527,1478
3286,-7544,-7845,-1192,-1433,-1250,912
3287,2364,-5498,3645,-1604,1287,1860
3288,4522,4796,4342,-1487,-766,-2000
3289,4824,6606,7112,-860,-894,-663
3290,-7391,4412,2439,1195,-1231,1116
3291,-2915,7012,-3843,-921,-55,1159
3292,-5208,7547,2543,1561,-307,942
3293,-2976,7769,7813,-474,1000,1020
3294,5612,-1004,4468,1674,-1772,-442
3295,891,-5653,95,-672,1663,1118
3296,1590,6731,-7386,1377,1407,721
3297,-6502,3632,7671,-494,-608,1531
3298,5201,-1778,5672,-453,-298,93
3299,-1148,-910,-6195,-395,917,-1066
3300,-918,4447,3799,705,1675,-149
3301,-6916,4583,1704,-1745,-691,-773
3302,4267,-3905,5059,1148,-721,1673
3303,-5439,-4310,-1716,1683,-795,1294
3304,-1148,2975,3846,715,1862,-1892
3305,-5487,-6624,-751,-833,-557,278
3306,7708,1878,1356,107,20,-640
3307,3689,-3993,-7733,-924,1028,1584
3308,-4364,872,-2071,1959,1387,-1685
3309,2342,6375,-5696,1559,-1240,-603
3310,5675,548,1896,-145,428,967
3311,-5240,2886,6620,-387,798,-243
3312,-6100,-548,7981,-1418,1946,-245
3313,-788,2565,-1548,-1615,-1546,-329
3314,-2768,-4168,-1001,-657,-1751,743
3315,2111,6415,5969,1219,412,1787
3316,7865,-2253,3082,-827,722,-1939
3317,131,1880,-5143,-79,350,-57
3318,5620,-6110,5775,1647,611,1337
3319,1183,-7274,1130,609,-190,-1294
3320,2927,-7918,996,-1492,670,-215
3321,-1286,6119,-7028,844,1361,-302
3322,7065,7593,492,-1288,973,-1211
3323,-7791,-3047,-480,799,-1554,-490
3324,-5834,-3360,-2979,-1583,308,-1848
3325,-6525,2052,4146,-1235,-84,1771
3326,5318,-6118,-4132,-1376,703,-1799
3327,109,-2443,-566,1378,1722,-426
3328,1830,1867,3037,1479,1202,-1145
3329,-7565,-6821,2382,-1914,-1421,-105
3330,-1041,-7397,411,-1347,1261,-524
3331,4114,-2287,6291,-686,-1223,1946
3332,5867,-259,1203,1481,333,-2000
3333,-4476,6558,7368,1523,1730,1897
3334,1054,-653,-1519,-311,-281,987
3335,-1426,-380,1759,716,1905,1841
3336,6404,3417,-7058,853,11,73
3337,2882,1652,3752,-1262,-1474,-95
3338,206,-7015,5575,645,298,-13
3339,-7513,3701,5074,1436,1967,1720
3340,-1195,-925,4726,-1110,-1184,810
3341,491,-6222,-3241,-89,913,-153
3342,-2497,-2395,-3788,-1228,-1878,-799
3343,7791,-4566,4146,-1441,-310,-1317
3344,2535,-4296,4349,-1168,-1128,-516
3345,3088,-2887,-4380,-1553,1603,688
3346,7082,-6642,1117,-81,-168,-345
3347,747,-5666,3819,1532,-1727,1795
3348,5016,3814,-328,-1236,-1319,-1742
3349,-215,1858,-4275,489,1361,596
3350,-814,7440,6433,909,-1574,-1911
3351,-7165,3977,6443,-896,-717,-1353
3352,7302,2330,5767,1315,-757,-1246
3353,1908,7634,6774,684,-1058,-1326
3354,-6312,5539,933,-1686,-1353,492
3355,5361,-7868,6159,1746,-849,1565
3356,3512,-378,4435,-1315,1922,-1310
3357,1977,-2117,-649,-267,-892,568
3358,1397,3513,2269,565,-1574,1377
3359,-5682,5424,2263,-895,-1285,1841
3360,-4462,6744,3269,851,-1865,1345
3361,2286,-2939,-4676,-1540,1610,905
3362,-3956,2082,-1970,-1795,1387,-694
3363,-4290,-7141,2815,-1554,260,800
3364,7852,1588,1103,1581,-1385,839
3365,-869,-6276,2541,1835,1222,-1027
3366,4811,6080,3850,852,143,-1580
3367,4288,-4010,6567,226,1824,1156
3368,5199,3293,4302,1945,1467,838
3369,3267,4730,7784,208,-1334,437
3370,-7603,1371,-6104,-1109,1389,112
