Sample,Ax,Ay,Az,Gx,Gy,Gz
0,4217,-646,-3738,539,-25,890
1,2367,-2348,-4353,-1037,939,1917
2,3030,-3869,7614,-1628,-749,978
3,-4842,-6924,2212,1244,-691,-196
4,-2370,-3887,-2495,896,-261,-1466
5,-446,2665,-3838,1798,-975,866
6,7361,1461,-306,-1337,-454,-1311
7,1547,-877,743,-1338,1845,-187
8,2194,-2351,2480,-1136,-554,-1350
9,4025,-860,-1188,379,52,-1408
10,-3586,1613,3475,1271,-953,1009
11,-2917,-4396,-3322,873,1839,-1768
12,4361,-2495,-265,-7,1276,-1485
13,7555,-6931,-5604,1850,1362,-183
14,2630,-4859,-2628,-1644,1860,1072
15,2882,6219,7052,1244,-1797,-578
16,28,4088,7087,377,5,-284
17,-1579,-7919,-1648,245,-828,88
18,4606,295,-3189,-559,1155,-1194
19,7616,-548,3347,-1898,1642,-1871
20,3585,679,-7914,1475,-1073,-485
21,341,-7665,1002,1454,-1424,-1526
22,5127,3293,3918,327,1426,1166
23,4947,-165,5049,-561,-1296,-241
24,-3488,7049,-6897,-1237,-1643,1971
25,3430,1079,-848,-1900,-1203,1361
26,2972,-6745,-6044,1802,-1973,1791
27,5852,6982,2015,-625,-1810,1396
28,-7255,89,4735,-1090,1186,-83
29,-7233,490,5403,1004,1560,-133
30,-4849,-180,5902,1287,-207,459
31,-651,-3513,-4563,957,1173,-1270
32,-267,3145,-2927,-132,1426,1646
33,2788,-5064,-7972,1697,852,-1489
34,-5170,-3987,-3968,-1621,-493,1621
35,-4974,-3539,-7623,968,-1878,-1999
36,2998,-1681,537,1148,-902,-1494
37,7286,-3560,257,-265,276,717
38,-464,-2992,3701,-654,599,-57
39,-5946,-3529,-5829,1169,350,-919
40,-4694,714,7299,389,-505,1980
41,-2566,-234,2793,-1860,1725,-74
42,-3288,6409,-2950,376,1776,1986
43,424,-2227,7178,1994,141,-469
44,2136,-2360,-2361,-520,-983,145
45,4618,3876,-7049,465,-270,1638
46,2111,-3020,-1457,-1323,-1171,1139
47,946,-5422,6551,-1352,-962,606
48,1200,-4888,5135,1234,1252,120
49,3687,-3830,6302,1767,-1348,1283
50,-1954,5398,7793,433,991,1263
51,7959,-6316,7345,1511,1722,1811
52,5695,-3032,-2478,313,-906,211
53,1119,3576,-5731,1009,1539,-1830
54,-4289,-3148,-7406,1150,546,1120
55,-5392,-1209,-5504,-360,1445,600
56,-1025,6252,-2382,-1495,1949,-1335
57,6440,-4249,4784,580,1098,1488
58,-2605,5561,-4053,-1464,-338,-1516
59,-997,5429,-6126,-591,373,218
60,-350,4434,7011,-369,-648,-527
61,-1894,-5548,677,-539,-764,-1493
62,-858,225,6515,-1824,-279,1810
63,1076,1890,6400,-1447,1337,852
64,-2097,-5960,6610,-1842,1240,-1150
65,-5692,-448,1801,-278,-1451,485
66,-2179,3031,7805,1091,-1966,165
67,5643,-500,-5447,-885,1218,-182
68,-6775,1513,4226,-222,11,1360
69,-5648,288,-4057,516,-388,-941
70,7741,931,-4159,1184,1603,-1318
71,2566,3775,7145,-1533,-1826,1857
72,-188,2570,1318,-1413,-396,154
73,-3135,4625,-694,-405,1417,1966
74,-1479,7315,-4867,-1168,305,1635
75,-2772,7252,-4734,1664,-1317,-1643
76,4550,-512,-4906,1613,737,744
77,7293,-2679,-2287,-478,752,-1954
78,-3855,-1403,-4356,745,249,-1429
79,3605,7581,7736,1159,1098,-1097
80,38,3308,-6452,-238,1029,1103
81,527,674,5174,1773,35,1587
82,-7627,-2189,-6357,1855,-1057,1424
83,617,6629,6260,488,-1847,1234
84,-327,6495,-4891,1643,-327,-1866
85,-3631,-2241,-3632,-310,-1256,960
86,1175,3819,4309,-1896,816,-674
87,1410,5929,7254,1264,1010,802
88,4936,-1174,-6215,-666,199,-819
89,3637,232,-6127,-1536,-811,-1928
90,-363,3684,-4667,1659,1546,-66
91,-2673,-3420,307,730,1281,-44
92,-4237,4981,-1743,-137,-275,-1025
93,-5586,-1372,3032,899,-1920,-144
94,775,-626,757,1100,-85,483
95,-7309,4483,5021,830,-1838,-1971
96,7856,-2730,1864,322,-311,-1909
97,-683,-7377,7484,-376,-1717,-1024
98,-5468,3365,5158,62,1803,121
99,1280,-7424,-1503,-52,-1706,-1880
100,5723,-465,2750,356,1091,-1803
101,3675,-40,5919,-1216,-1283,223
102,2717,-5668,-7989,-954,818,382
103,-2792,-3095,4610,999,-1222,92
104,6440,6089,-2828,1876,1361,-1729
105,-3059,7507,-5384,-1449,975,-565
106,-5069,-2846,7742,-74,291,592
107,-5749,3631,7871,1300,-437,1915
108,-2458,-2684,4056,-826,1748,-1891
109,1178,-1167,-7498,635,-1563,535
110,2091,5358,1686,-808,-838,-45
111,6521,-1279,7926,84,1677,239
112,-1136,-5791,6635,20,-1852,1565
113,1224,7401,2170,722,1986,1293
114,4562,1864,325,776,-1969,1996
115,3978,2395,-4062,-863,-967,-686
116,-7883,-7773,282,-1743,1839,1027
117,-5755,5034,3495,-974,-1816,-122
118,-3687,608,-3405,420,1468,-1859
119,4202,5983,-5210,-1126,1887,1286
120,1004,-2653,-4127,475,-886,731
121,-6860,-4447,5965,-1029,-711,-398
122,-7318,5693,-841,-549,-768,-1645
123,3018,6498,-4354,1846,-868,1489
124,-4004,3056,3261,-1400,-1699,-217
125,-3704,-3834,5651,181,1536,-1130
126,-4404,-7390,-3857,145,1587,-767
127,-2138,-174,6353,-1513,-702,519
128,-6897,78,7203,-873,-369,1444
129,-5103,-6093,-6843,1980,1552,991
130,-3602,1172,-370,-525,-820,1780
131,1320,6362,-5352,73,-1282,-668
132,-3880,-4511,-757,-35,-340,1500
133,-5323,-3493,-2615,-1710,1569,767
134,-4465,-6979,-5295,997,-1639,1005
135,-3549,-6980,4399,1191,870,-40
136,6516,503,5397,1027,804,229
137,2580,-3476,5183,-866,-1186,1035
138,-3549,155,-5547,-1842,1993,1165
139,-2479,-1037,-5011,-1412,496,382
140,-3138,7202,6272,1451,-970,857
141,-6956,-6021,-898,-1371,99,895
142,296,-2706,-4865,1835,1030,1031
143,3238,143,-1823,-123,578,272
144,531,-5418,7192,-1596,-336,1833
145,-4471,-1133,6179,-1785,1377,643
146,-5812,7533,-1360,-904,1914,-1455
147,3075,-1223,5360,287,1293,-905
148,7269,-5234,-1593,1427,-500,-1636
149,-2571,2200,3891,583,-1386,772
150,4909,4815,3300,-1979,-1077,1436
151,2496,-3017,-4956,-71,-539,-559
152,-6646,-1135,1423,1316,995,-1894
153,-4236,-3632,6261,-1343,-775,1053
154,-5509,4877,-6201,-1167,-1844,1321
155,2371,-4385,-7344,19,258,1730
156,1027,5906,-3530,520,-939,-320
157,7394,-701,4028,-1274,-1666,-201
158,2069,-1279,4776,-235,1533,-515
159,-3754,-6751,6813,-1590,-401,-185
160,-756,-5276,787,-1214,580,985
161,-1924,-2550,-3067,565,-1199,-1128
162,1395,7888,-308,925,-1201,374
163,6118,-4383,7256,-1511,-885,639
164,-7981,-7141,-6720,1975,614,1637
165,3421,-1142,-4304,-301,404,787
166,550,-3360,-2706,-1065,17,1483
167,-7337,-2518,-3521,811,-361,-1445
168,4632,-7743,-5260,-1435,1119,708
169,-2697,-1064,5002,1418,1987,565
170,-2142,-2716,1424,-1595,1198,506
171,-2351,-6619,4718,463,-1766,-1014
172,3744,-4675,7626,1906,-207,-700
173,-2122,438,-6412,299,-1555,524
174,-3589,3828,1472,860,1011,1425
175,2765,6750,5185,1906,-894,916
176,4893,2971,-5545,-1094,835,-706
177,1839,-6681,-4728,-229,1325,-277
178,-4521,-1842,2254,-182,1882,-1613
179,5980,1526,-3264,1326,1188,-1387
180,1244,-1793,-5335,1422,-1821,-246
181,6769,-54,-7275,-1027,1169,1409
182,3195,-5436,-3632,547,267,-325
183,-1599,-4523,6036,520,478,858
184,-3538,5327,4889,-595,-1433,-432
185,4645,2084,-5923,485,1246,942
186,7087,5546,-2854,1247,-217,1270
187,6635,5475,-6380,-722,1153,-759
188,-3705,179,-3985,-718,1895,1647
189,5030,1327,702,-1785,-1479,1788
190,-2278,-7694,-2816,-23,-1992,-1749
191,5027,1851,-3088,-1252,-1091,161
192,-399,6989,-2901,-1653,519,-1690
193,-3894,-5438,6400,-1622,-1562,1966
194,2135,7230,-2815,-1110,-508,-222
195,-4526,937,-2793,1689,1742,1690
196,1414,6878,2095,531,747,1296
197,-7594,-1832,-7901,-166,554,-1425
198,2871,-324,-5285,-1989,-1111,-525
199,2954,5332,1063,1010,-357,-1216
200,-2388,6459,5021,1436,1602,1792
201,4475,5003,2174,1213,-481,545
202,1561,-927,2010,-919,1222,1860
203,3982,-7510,-1107,-401,100,291
204,-1086,3859,4909,-1511,-122,369
205,4258,301,-5612,484,1964,-20
206,1892,1470,87,-1577,-1328,400
207,-1558,-6508,1434,832,-726,-1763
208,-1609,5201,4020,-1683,-1602,-1010
209,-6143,-2588,7186,-1796,-138,-296
210,1115,-4288,-7237,1654,-799,1842
211,6022,3460,5782,1647,-320,-1000
212,-6104,-7244,-2568,672,-1227,1804
213,-1655,-4431,-2046,-29,-887,742
214,4064,-7909,-5640,290,-1939,-513
215,-7622,2734,-5334,-442,1821,533
216,-4081,7685,-271,808,-822,982
217,4675,7960,7623,-1714,-971,699
218,-1036,-2808,1748,1724,1144,-889
219,800,7030,-7854,453,648,-556
220,-2357,-396,4711,-49,-27,145
221,1204,6865,-7788,388,990,1910
222,7022,-5660,-7225,-410,-476,702
223,2968,-1589,7121,1328,-1344,-5
224,4353,6344,6189,-503,1636,-19
225,4174,-225,-1463,-662,-1258,-76
226,-3369,-1207,-6546,-1561,-465,-1836
227,1544,5241,-2574,-249,1504,-1191
228,200,-5177,-5431,-1460,723,-1524
229,-2024,-1347,-2301,1633,73,1012
230,5121,6818,145,-329,-880,253
231,-1181,-2168,3968,978,-1892,1975
232,5094,181,6357,-1517,-989,-1651
233,-6689,-3707,-4537,-1846,863,1759
234,4452,-1165,6932,-631,-217,981
235,555,-2464,6950,-1100,-324,-433
236,-7515,7739,6690,-1429,1958,650
237,975,256,913,-797,-1771,-159
238,5056,-2437,-1005,1521,-511,-180
239,6349,7351,7870,-144,-365,-1851
240,-4249,1926,-6846,-450,-1706,1776
241,-4813,3361,-5396,-1854,1319,1687
242,7909,-6414,-6383,1006,-130,435
243,6650,-7808,1888,1406,27,1829
244,7161,-6062,3256,1174,-1112,1482
245,-5017,4320,2017,-1125,-109,1806
246,-6453,7449,2139,-1200,698,1228
247,7915,-1442,-871,1866,923,46
248,-462,-572,6172,-1519,226,1368
249,-924,-2661,4929,941,-343,-1412
250,416,-3854,2027,593,-503,-480
251,4609,-6660,-3292,1221,-125,-227
252,7214,-697,-7165,-338,420,1576
253,7675,-2817,-5002,1371,-1599,-296
254,-1747,-474,5777,-145,1551,-449
255,4002,-6277,-5778,1308,-1479,1171
256,7658,6096,5049,-1909,-1969,-748
257,4193,-3342,-4577,-1402,1499,-1374
258,328,6421,5348,1373,681,-426
259,6671,-4369,4528,676,1663,-171
260,-8000,-1114,5558,410,-387,-942
261,5995,6056,7138,1716,-652,-1549
262,5969,-1232,6056,1501,1141,772
263,-2511,-7034,-3894,812,-1595,382
264,-2038,39,-6233,308,1719,-36
265,2981,-1358,-5714,1604,1321,-823
266,3915,6677,-945,-1276,1011,-1753
267,4068,-7733,6509,1021,1608,-1374
268,-2660,-5788,-1855,1461,-801,-1084
269,6620,-4370,6514,-697,1687,1529
270,-3114,-5270,-618,1621,364,-793
271,6920,4177,-6290,-1762,1776,-84
272,7532,-1322,5298,1447,-384,1221
273,-4232,4552,6073,-164,-811,-1197
274,-3591,-4735,-7996,-1974,-411,218
275,4841,-3630,4844,1202,188,-953
276,-6155,-5104,3314,1331,1558,1638
277,1402,-1946,-3233,-1862,640,1811
278,6568,1431,-5244,-1860,-533,1980
279,-3123,364,1890,1185,-795,1607
280,-7436,-6833,7088,-935,-561,1516
281,3914,-4809,7244,423,-378,-263
282,5620,1537,7705,209,-919,470
283,-2572,4446,-4380,-154,-282,657
284,-3706,4628,-7081,-1673,268,-498
285,6707,2250,-2157,-1890,-1085,-821
286,-6718,-84,-214,50,-1073,1109
287,-3000,4104,2149,1411,-687,-1019
288,-7475,-7668,524,1307,1452,-368
289,6494,-4854,-2025,770,1458,1751
290,-4857,-2260,3404,193,-1355,-362
291,246,3425,7831,600,1613,383
292,1756,-346,7392,-1547,-1878,-354
293,5513,4535,7975,1278,885,430
294,-4609,3365,6525,1971,-1654,1163
295,-2665,1127,4706,-322,-479,-1967
296,3068,7907,3098,1592,-1965,1136
297,1332,6298,-7322,-964,-1983,1030
298,-3506,2433,2335,-485,213,1329
299,5924,6611,1394,-812,1146,-1051
300,600,-159,7349,-541,-882,1536
301,-2601,6429,-7918,-1465,-1198,565
302,-1504,7114,6612,1255,-714,-78
303,-6139,-4113,-1528,549,-777,-972
304,-7931,-986,-3829,1078,-947,709
305,6817,2083,4726,1195,1589,1145
306,3808,-790,5933,1813,1733,-1187
307,-6576,-6586,-5941,-1287,281,-873
308,4184,4478,-5605,1757,-287,-1374
309,7653,7087,-5123,-1152,-338,788
310,-1673,-471,-830,-1638,1600,-84
311,-4091,6992,-2969,-1020,-1621,899
312,-1644,3565,-7881,-972,1357,-1313
313,6475,-4552,-4865,-374,-1542,-1828
314,-7905,-4456,2943,1516,-1973,-1690
315,4053,1713,-1290,-825,355,1291
316,4497,7779,3209,-1777,-220,573
317,3865,6881,-1908,1117,1969,-587
318,5008,2563,5395,941,1724,81
319,6358,7140,2948,1570,-83,870
320,-2835,-5312,-5279,-1085,-72,-1029
321,-5257,2165,-1482,593,-1363,-959
322,7135,4621,-6034,1178,-1466,-4
323,4970,-4452,-3615,-462,-162,1057
324,7500,3823,-1575,1953,1267,929
325,-4215,-3261,-1144,-1488,-1547,-86
326,-6727,-1769,2846,-206,1108,-952
327,-3085,5993,5155,-1467,343,1541
328,3933,680,-2947,-1501,861,933
329,-2744,2495,-427,240,-406,1434
330,-3969,-3409,817,-1626,1306,357
331,-6946,-3869,2251,530,-1659,1846
332,4148,5526,-596,609,1537,1694
333,-3597,-6151,2593,1147,-520,-839
334,-6272,7659,-4876,449,-905,-383
335,-2468,1697,5714,-1575,-292,-1069
336,-7857,-5698,1045,1001,711,1432
337,3596,2432,2448,-920,-909,559
338,4508,-221,2295,-801,1724,-1666
339,655,2738,1785,-81,632,-516
340,-2203,7623,-4460,-1118,-761,834
341,1563,6926,3238,529,943,1788
342,-910,-5503,2207,1460,-1569,-1113
343,2656,-5099,-7493,216,752,-373
344,5034,-2691,1068,-1059,1767,1194
345,-3739,5550,6858,1656,-79,-55
346,6125,-816,4226,1591,1467,61
347,1061,-6789,-137,1873,115,1997
348,3451,-5571,-6942,-1877,-160,1490
349,-6480,2984,2306,1484,1936,1103
350,1173,6464,6540,1452,-293,952
351,-2320,4716,2205,-572,-1233,1678
352,227,3930,2107,-206,1681,-1544
353,5609,-4141,7539,-1189,1277,1604
354,-7112,3410,1382,-1492,-432,-1362
355,5933,1863,-5551,-1202,-1886,1372
356,-1807,-5476,1953,-1246,380,-1273
357,1929,5086,-6773,-1093,-81,1344
358,-6991,-1790,1871,1544,1866,1548
359,7285,2277,3713,156,804,1055
360,4278,2431,2092,-1430,1032,-441
361,1039,-4755,343,963,1927,1208
362,-5780,2396,-5589,-1082,45,-1239
363,1933,-5473,-909,-647,1452,1565
364,-2185,6632,1577,-190,1476,-528
365,-2847,-6839,-787,-982,-162,-359
366,1599,6714,-6447,-946,-1585,1694
367,-3852,-5627,-5693,1512,674,1186
368,7065,7457,-4587,78,1662,1427
369,1044,-4233,6909,1040,-524,1282
370,-6204,-7383,5313,1364,-786,-1477
371,-2668,-6886,-4317,-503,484,1919
372,6340,4050,7016,1913,484,541
373,-3317,-2792,7012,550,-1858,897
374,3300,-4062,6949,363,-5,220
375,7542,6631,-2751,775,-458,-1070
376,-3997,3694,1101,289,-1935,95
377,-522,2094,6512,-662,-908,-98
378,-1993,5839,4114,1351,983,41
379,-2138,4009,-5619,1003,-1268,-1524
380,1565,7226,-5573,1248,1584,1378
381,-3804,1773,5428,1604,517,-186
382,-7579,-6036,842,-221,127,-1696
383,7900,2976,-4608,915,1471,-691
384,-3902,5880,-3643,12,1533,490
385,-3090,3981,2251,1917,1164,1070
386,-2607,3365,-1786,-1682,1187,802
387,-881,6664,7620,655,934,-192
388,7933,517,1325,1891,-1685,-1078
389,-2681,-6168,-1301,-730,1063,-847
390,7428,14,4293,-490,-1568,-1573
391,379,-7277,-7016,1341,1293,-1105
392,6463,-342,3374,-868,-919,-891
393,1457,-7947,-3087,1166,-1013,798
394,7184,2223,7800,1592,1782,-1256
395,-4030,-2021,-1772,-1898,1713,-930
396,-756,-7915,3549,1028,-946,-1904
397,-3694,-5026,7524,-897,-142,993
398,5788,6461,5343,-1810,-222,269
399,-3155,-2235,-2172,-1461,-51,1851
400,-6673,-1455,-4853,-589,-1537,1010
401,-7711,3860,6017,-1749,1839,1530
402,7044,5836,4203,-933,-1834,-221
403,-3103,-5023,-3118,-239,1642,724
404,-365,-3326,1401,-448,344,-1615
405,2476,3677,5985,497,-836,574
406,-303,-1691,4830,-1646,-1421,1898
407,5492,2737,4447,636,-1853,1783
408,3683,5115,-5276,1857,413,-219
409,-5147,-1280,2108,773,833,-140
410,1476,6946,-7292,-1493,1835,1731
411,-1274,-6543,-6850,822,1223,898
412,1476,5779,-1335,-675,-1563,-594
413,4459,-808,-6099,1476,-1294,-708
414,3685,2236,-2530,1755,1489,1701
415,4150,-7086,2187,-1039,980,-350
416,-7146,4189,4665,1918,-1062,-115
417,2390,-845,7626,1039,1944,1177
418,-6751,-4662,-3482,-34,1398,-1334
419,-1175,2409,-539,-499,-714,895
420,-5280,4241,-3844,-796,160,-1758
421,4921,-7719,-4717,-579,1128,-680
422,-7742,-987,1611,-1055,1762,929
423,7698,-3093,5021,-1374,882,-1453
424,1598,7152,1630,-1126,966,356
425,7571,4675,-167,-509,1720,-1217
426,-1744,-3719,1755,-44,-1097,-1550
427,-3834,4126,-97,1057,-1362,1900
428,416,-1024,5247,-1778,97,1840
429,4954,4552,-7419,-1843,-263,1473
430,4278,-5211,3297,-465,-473,1317
431,4928,-1351,3416,-270,-1418,1243
432,3325,-5345,-4158,-1376,1170,-374
433,604,3458,7035,-1418,761,1510
434,-2489,-3002,-1971,-1831,-1301,-1296
435,6934,4544,7209,1281,-1393,835
436,-7517,-6907,-5003,1975,1560,-1465
437,4972,-7329,5964,-287,-1137,283
438,-967,-2224,-7975,-148,1199,-497
439,-1713,1405,7864,1557,-811,-908
440,1464,-6221,-1837,1031,838,453
441,4419,-534,696,1777,558,-1323
442,-5622,-1715,-3376,-872,831,1187
443,-1754,-4755,-3044,144,-1607,1382
444,2733,329,6531,-611,1272,1639
445,611,-1210,-6608,-1109,1414,-668
446,-3408,-478,-5762,346,661,628
447,3818,7775,4278,1358,803,486
448,-6823,2688,990,1183,-387,-1850
449,3889,7259,5766,-1170,108,-626
450,5633,3860,8,-494,-1758,-443
451,6669,6540,-4252,-250,505,9
452,-4419,-6952,-6925,1670,-932,1618
453,6079,-1512,4349,-1554,-6,38
454,1859,5821,-6477,-214,-1221,850
455,-2000,-3785,3883,-528,1929,1645
456,4830,-7928,1031,-981,-1644,-1121
457,5795,-6043,-6737,-1965,-681,855
458,-7382,-3552,-7371,-1108,-1053,1449
459,-6365,554,-1899,-351,293,187
460,3968,-1787,-3516,1126,-562,-506
461,-587,7809,-2459,-870,-1367,-1085
462,1421,4521,-6812,-1294,1481,-391
463,1745,3636,5415,-1079,1533,-1419
464,-1270,-5370,-3598,647,1457,1232
465,5296,-7358,-7517,-374,1109,-1258
466,-4667,1936,-4529,161,-671,-1704
467,2203,7155,2597,630,-697,1042
468,3494,87,6747,1668,1598,-209
469,2845,-694,-2413,377,-612,-1375
470,-5704,-6234,-2376,1695,-685,269
471,-524,-1765,-3268,1983,-651,165
472,4449,3105,3609,1550,506,-749
473,3413,-5774,7018,960,834,1559
474,-5302,-7421,-4294,-1504,-371,1040
475,-3961,6717,-2115,1842,-1386,-1688
476,-2859,7802,-6340,1756,446,454
477,-3355,5043,2445,1866,-323,458
478,-921,7796,-3431,-191,648,-1570
479,-2698,-6968,7417,-840,-1471,1532
480,4971,-3310,-5916,-159,-1924,1335
481,-2198,2838,-5375,1391,1893,1491
482,-1617,-547,2697,-1783,-458,-1024
483,6709,-4609,-3568,706,-1574,1776
484,-3820,2742,-5985,1386,-1297,-251
485,-5440,6304,5415,-1340,810,-578
486,7571,-4170,5700,-1163,-433,-1920
487,4523,-3738,7826,344,-1388,-1056
488,1086,-6796,-4983,-703,1772,-445
489,3516,-544,3017,-1171,-558,-412
490,702,-6405,-1817,-1838,-546,-1342
491,-7091,691,-7131,-58,1385,372
492,-1667,3844,6711,-1002,-64,-697
493,-1800,1312,3801,390,121,-433
494,-1523,-2854,-2940,-170,-1997,1479
495,752,-1317,-7181,251,1983,234
496,-2764,6059,3826,-1919,-1620,775
497,-3330,-5581,1811,1944,520,-313
498,-6354,7520,-7293,729,-878,269
499,4537,7321,-505,-998,-1443,-1019
500,497,-3921,6275,-1356,-1015,-1535
501,-4198,2945,-6418,799,1338,416
502,-7547,-2830,2703,-1490,94,-1245
503,-1705,-4606,190,256,1025,-1631
504,3437,-6698,1465,-1955,-579,1781
505,2759,3088,5875,-794,-1477,749
506,-7783,3355,5963,1153,1394,690
507,-7183,1511,3495,-836,-1706,-397
508,-7627,-4088,-2992,-826,1314,1658
509,6944,6746,2233,-226,984,1254
510,1519,532,-5469,-57,1655,-1267
511,-1902,4106,-406,-556,150,-1480
512,4509,-646,-769,-778,-198,308
513,3094,-1466,-7578,1302,667,656
514,4815,2189,-5188,1136,1049,406
515,5458,-6083,2107,1685,-1211,-1289
516,6638,-3381,5650,-1770,-10,1553
517,4138,7987,6679,171,615,969
518,-4937,-4047,2400,1589,-847,-1191
519,-1115,380,-1585,-1132,-501,-467
520,-1990,-3250,2588,1412,1776,-1955
521,-2034,7746,2308,-594,122,453
522,-7075,4027,413,-1542,-91,1511
523,4093,4966,-4843,1972,1747,-1557
524,-4968,-3843,-2385,-830,1935,1548
525,2814,6903,1821,-1268,530,-1428
526,-425,-82,6093,516,1077,1797
527,5774,3750,-7304,-1078,604,-9
528,-6542,6086,7215,1830,-838,-1832
529,6814,-4382,-770,-1349,883,-1837
530,5197,-6567,3055,-1335,793,328
531,-6692,3972,-6762,552,-1756,15
532,7903,-2873,-5301,-1932,1252,-1432
533,1688,-4318,-6941,-1358,-1969,-274
534,6920,-6190,1127,625,17,553
535,6556,2984,-6838,945,1506,-275
536,2396,7580,7165,-488,-1449,-1446
537,-4440,6516,-7030,-1010,1757,-830
538,3927,4024,7417,-1745,928,-1516
539,6277,-4782,813,-1649,-154,749
540,648,-2849,3879,-1046,224,1445
541,4404,-6694,-6121,232,1111,-1804
542,-3139,-3658,926,-128,-1618,142
543,4572,2051,7920,-1426,1310,689
544,-5473,5594,6517,-1871,-1625,1045
545,296,-2772,2294,489,-1375,-52
546,-3217,2056,-3179,697,1151,-585
547,-1205,4428,5413,-1433,-354,218
548,2426,-388,-952,886,976,357
549,-5878,3437,5148,-1440,-1135,1987
550,-225,-6005,-2890,-1656,-1863,477
551,-4490,-1953,7467,1256,64,1640
552,4381,-7619,4948,1411,-528,66
553,6562,-4374,3604,1461,-1881,816
554,1077,-522,7535,627,1222,43
555,-3118,-819,1084,-531,-1223,-518
556,3384,-5851,2750,-893,-680,948
557,2423,3698,-4484,1657,1890,577
558,3466,7668,3707,1455,-1761,-695
559,-1370,1001,863,822,-825,-1171
560,-443,4970,4450,528,201,-1121
561,-4655,-1227,-5549,0,679,1573
562,-2593,5611,6112,396,-1706,-524
563,-3281,3863,-5590,-243,-1857,-1333
564,-7172,-1876,-353,-1133,307,-1383
565,-4543,1473,7387,-215,1594,1048
566,4067,2807,-3994,-1411,792,-86
567,1702,7822,-3860,1927,-828,939
568,-130,-2810,689,1544,-253,1964
569,5652,-564,7811,500,675,1377
570,1830,3899,6744,1365,-63,154
571,-4785,6908,6664,-1920,1986,538
572,-1328,6091,-557,136,-1742,-869
573,4542,6268,3774,1732,-762,386
574,-1451,-4251,2983,1179,1845,1429
575,6905,7523,4802,1225,-869,1032
576,3782,6790,-4063,1501,328,-174
577,-2258,5445,1946,201,-409,1058
578,7036,-1644,-4650,-413,1657,1886
579,-4719,-7139,7896,-536,1980,1534
580,-2069,4467,1313,291,784,171
581,-5631,2054,3142,-513,-1173,1446
582,1354,536,-685,410,-1496,1757
583,-3545,-3638,7222,27,1165,1512
584,-7868,1441,-7654,1860,416,-1423
585,-6892,-5777,-8000,1562,-1400,-1962
586,3597,-1488,397,-641,424,-952
587,-4348,2689,-875,943,-841,-1194
588,-4020,-6931,7757,-161,269,-1884
589,5246,7757,5580,1418,562,-523
590,267,6429,-7911,1622,1075,-1467
591,-3942,5703,188,40,-59,-1399
592,-6477,4791,7689,339,1247,871
593,6991,-7369,-7947,-1488,423,1867
594,6683,-2927,-1580,1516,634,-232
595,1462,-6656,6831,1400,-1336,1158
596,-5116,332,7396,-1211,-1710,-1517
597,-3590,-5293,6595,-424,1706,-1801
598,7578,-1252,-2386,986,1127,791
599,1684,-3431,3044,-147,-98,1189
600,-2916,-150,-4349,1530,-1723,1205
601,-184,-4583,4456,-1442,-1995,1543
602,-3513,-4413,118,1148,-22,-245
603,2385,-4561,1218,-378,-997,1490
604,2961,2466,6312,-639,12,414
605,-7769,6665,253,-211,1153,576
606,7844,4032,-3746,784,1343,1707
607,2510,-6798,579,1563,-688,864
608,-4860,4919,5249,-610,1487,-1954
609,-1459,-4703,-5066,1461,954,-1133
610,-552,434,-2312,-416,5,1826
611,-3194,-3541,6605,-310,-1345,169
612,3245,-6094,3421,1630,-1453,430
613,2319,-4204,597,601,-1441,-1743
614,-4042,6275,-4143,219,1209,755
615,-1263,-3634,-5005,519,-615,-1346
616,257,-4454,955,1416,152,731
617,-1157,5958,-7726,340,-636,571
618,-2507,2764,7331,-285,-1254,-1259
619,6358,-5525,2288,-1149,-728,1053
620,-1676,-3321,1118,-894,1885,1271
621,-7837,-2502,1648,-1409,1214,1534
622,4387,-2267,5725,-1129,180,-94
623,-2585,4708,1270,31,-520,714
624,1802,4394,-1029,-439,-35,559
625,-6656,-6272,4357,-1801,1099,327
626,-1173,3889,-7665,-924,1880,94
627,3356,6582,4358,-1087,-1272,327
628,-6388,5887,6318,-323,1306,-1775
629,-6305,-1823,4963,-752,1238,1681
630,1196,-1123,-6328,1128,-1923,-1738
631,7429,-3077,336,-1620,1935,231
632,-3581,4986,686,-919,612,742
633,6170,-5848,-3620,-1821,-214,-1672
634,-4191,-434,-3229,323,1836,-1080
635,4777,-6070,-6178,639,1726,250
636,7297,-1110,1053,-348,-119,-1512
637,6454,2988,-5896,360,-1213,247
638,399,6557,-4365,-9,44,1040
639,3200,-6835,3748,-1422,-1701,1099
640,-5184,5732,6349,1439,1887,1508
641,1278,3181,2288,-1819,476,-709
642,7234,2813,-1289,-334,-899,1331
643,-7733,4486,5744,-1699,-512,-1962
644,-5208,3134,-4560,201,-1762,-1998
645,-4827,444,-2580,946,-675,-1661
646,5746,6632,389,-150,190,1179
647,1676,2107,4203,-391,-157,1682
648,2866,3068,-3310,988,1526,1173
649,3790,-2082,-7385,964,-723,717
650,-2542,4620,722,-1460,-1811,-1397
651,593,3810,-1677,-1369,-127,-95
652,3674,3207,-7500,1289,-500,-1793
653,4542,-115,-3636,1083,1886,1570
654,-4515,-2728,4411,-1837,-1661,833
655,-5883,-3173,476,1119,-468,1177
656,-5812,-4084,7229,-535,1230,-1004
657,320,5913,-2083,-1083,-945,-576
658,-2519,-2603,-7814,799,46,1326
659,6315,361,5506,-207,531,1277
660,-6872,-553,7317,1066,1361,1454
661,1690,5978,-4413,1437,-283,-680
662,4935,6254,-7276,-21,-1539,199
663,-3656,-1170,-3365,1692,-1751,-1820
664,-1471,5525,-5802,-1136,1155,159
665,3613,1108,-7775,1127,672,911
666,-4327,-6735,-3230,-1985,-926,312
667,-333,-2867,4602,26,1113,-499
668,-5734,-3664,1203,60,-674,1877
669,7037,-4822,-7719,1199,1943,-1766
670,-717,-1229,-146,-698,-1151,1878
671,-3907,6252,7321,-201,734,40
672,-1477,5905,1743,226,908,1126
673,3582,-7676,6117,-1972,151,-1975
674,7781,-2822,-3394,1309,-678,905
675,-4582,-1845,-717,1765,-1144,-1006
676,452,2386,-2768,1736,-1590,-338
677,-5117,1291,-7174,-1984,251,1367
678,-7646,4111,-1160,-148,1409,-185
679,5966,3389,5287,-944,-246,878
680,1066,7336,623,-703,-565,1587
681,6672,-797,-2573,706,1268,-949
682,366,-652,-6525,455,394,-1108
683,-2535,237,-1587,-1593,988,40
684,-3265,-5891,-7316,276,1561,-1479
685,2983,-559,4824,-402,1846,-168
686,-818,1630,-7853,113,1135,1522
687,-3903,5200,6343,560,281,296
688,-4822,2382,-1277,-390,-1443,1263
689,-972,5054,1023,1954,845,473
690,-5098,-1814,7953,-1233,-1336,-1082
691,-3711,3701,146,213,1409,554
692,3798,5578,3215,656,-1793,240
693,-6261,2440,-4351,1380,-301,1161
694,3139,3788,7608,707,1872,1847
695,5592,829,964,-662,193,53
696,-5861,397,-7848,-1576,-1992,-1909
697,6291,1615,-7774,1885,747,-1827
698,4213,433,-7495,-1609,1353,-336
699,-7317,5027,-2175,1887,1683,130
700,6687,-3749,5162,-1977,-642,-736
701,1313,3506,-3966,-4,1810,-1520
702,-883,7515,3519,-1834,-312,1497
703,-330,4143,6701,713,-1710,319
704,-6681,4909,-5865,1350,1274,-113
705,549,-150,-3497,1924,-697,-252
706,5778,4756,-5475,-618,1714,1195
707,-6218,6751,-1790,-1526,553,-1477
708,393,-2557,-6035,829,-488,83
709,6327,-5683,-5127,-1132,-1734,1771
710,-4875,-7963,375,-109,-1663,1362
711,-1138,7596,6645,1876,1392,-1515
712,-3162,6937,4028,-709,-1315,1592
713,545,-4108,5571,-1979,883,-1719
714,-3300,3655,304,866,213,771
715,-1669,-6999,1686,-124,1669,350
716,5318,-6468,-937,-1941,1317,721
717,4189,4144,196,-482,-1873,564
718,4471,-150,1637,160,160,1251
719,-7060,-61,-3563,1765,-157,-1766
720,-1759,-7062,-5364,1155,1089,790
721,-1593,-2348,-1528,-1544,485,207
722,1746,2264,1215,1569,1887,-25
723,7478,6467,-3630,-646,424,-1465
724,5192,-7724,3603,-398,-1588,91
725,5779,-1634,-7730,1468,97,-82
726,-220,-3291,7136,298,1430,1049
727,7595,-3508,-6117,930,25,-1466
728,-5885,2697,1755,567,-1445,-136
729,-7828,6046,-2053,-27,-1194,-1440
730,-1829,7925,2288,-579,-1751,-1102
731,7070,2207,2611,1259,-1081,-24
732,-2084,-5968,-5679,-1920,-1148,-260
733,2891,-1219,-5754,275,1120,1475
734,104,-7709,-1100,685,1611,-1661
735,-4920,5641,4075,363,74,292
736,-2450,4389,4162,-960,103,1750
737,-4351,6640,3387,-377,575,406
738,2931,-5442,1580,1303,380,1864
739,-1016,-5625,2117,-105,883,825
740,-5095,3762,7612,-1534,-276,-574
741,2864,-601,-6586,544,1834,1448
742,3910,7585,-4970,230,704,-1659
743,-1868,-1945,1926,1907,938,1305
744,-5794,-7146,-555,-364,1430,-672
745,4586,3196,-3435,1986,1074,-1515
746,-6850,-4328,4215,-1758,1029,-1990
747,-5292,6369,2385,1298,597,291
748,5682,3116,-5949,-1438,1706,-1906
749,1749,-7300,-6417,519,1333,1486
750,-7051,5525,-7761,-1394,-1121,1337
751,-4750,4636,-117,-885,124,1301
752,686,-6905,579,158,-468,-1868
753,-7080,1507,-7665,-1002,-1569,372
754,1840,-3371,-4815,324,412,-1942
755,-811,1106,-7209,1752,-1916,-1225
756,-7277,2960,-350,815,-191,-1065
757,122,3445,3438,1817,654,-1061
758,-3949,2443,7606,883,1643,43
759,-6472,-2936,5100,1012,-167,1969
760,-262,3283,-4453,1796,-1814,1795
761,4161,7565,4144,-520,1147,1430
762,-7689,5865,1745,52,1005,-1483
763,-5716,4243,-6159,1279,1478,-1176
764,-1191,-714,-4642,267,-1888,636
765,-5259,6379,-2758,-619,506,-1831
766,1981,-2645,6265,-433,765,-879
767,-6621,1966,7663,-1597,-1481,-1026
768,-2171,-1608,-2271,-1792,1460,202
769,4906,-560,1729,-1607,557,-70
770,-7097,-7155,2664,-646,-718,977
771,779,4187,-1704,394,-1428,-208
772,-4237,-495,-4728,-878,1891,1858
773,7979,-7176,-999,-192,-360,-1258
774,-1598,2774,6334,701,1820,1366
775,7187,6701,-4129,876,-963,1500
776,-5480,671,2007,1395,-1716,1044
777,7707,-3658,-7623,1723,1835,839
778,5667,6959,-4171,-522,-1181,-1982
779,3768,1827,4407,1243,-229,1139
780,4897,1454,5095,88,1828,-353
781,-6087,4588,5403,1890,-1333,-23
782,-5595,4364,-1656,960,-1499,1830
783,2138,-7043,-605,835,-802,1062
784,-376,-2413,-5845,1580,-1469,830
785,-5660,-2629,6980,-5,1736,1620
786,7572,-2301,-6325,-866,-1938,-934
787,1808,2336,-2565,-1802,1234,-1949
788,-2654,-4518,1393,-738,-1086,161
789,7347,2331,-3439,-169,-1732,-111
790,7582,791,-1118,1824,-1429,487
791,154,1553,5748,566,901,1749
792,-4142,4676,-3276,410,-1679,1653
793,-5273,2908,-1261,-467,187,-10
794,-5367,5970,-6129,1100,-1539,-1693
795,-6853,-7825,7543,273,-709,1477
796,-6548,6380,4824,475,1906,-942
797,-1521,-7508,-3831,-827,-1214,-1393
798,2698,5386,-7878,-895,866,1674
799,1082,2902,-383,-1338,-986,-1644
800,6717,5513,-6405,417,-1081,1910
801,5442,6277,3393,-1836,464,-71
802,-4455,6937,-1101,-883,1094,1009
803,1849,-7648,935,-669,933,1610
804,207,6748,5105,-627,622,-1750
805,2915,5047,4956,-47,-705,-85
806,-6072,997,1977,620,1725,1857
807,-2348,-7010,3997,-151,-1038,1449
808,2160,3760,-4722,210,-969,315
809,789,-2026,7079,1230,-537,-1695
810,-1614,3563,6358,-608,384,-1836
811,-7445,5139,953,941,1920,-1400
812,-3874,3650,4276,621,-832,-51
813,-7519,2017,-1945,1984,-256,1658
814,-2589,-7303,6983,-1878,1980,123
815,5043,7265,1529,601,1479,1007
816,1185,-7459,4990,769,433,911
817,3400,5743,-5591,-1864,1594,-251
818,5184,4722,2919,-959,-338,615
819,-81,4956,527,-630,313,384
820,-4686,4959,-6140,1626,1641,158
821,5947,-6246,-2390,-1599,709,676
822,2543,-1795,-524,-1041,788,87
823,-5590,-2523,217,-234,1449,-1798
824,-673,207,928,64,182,1064
825,-1358,-7207,-6075,-1226,-539,265
826,-2454,-6685,6527,176,122,-1253
827,-3505,1282,-133,1928,804,-1436
828,-7077,7119,-1965,636,-369,1022
829,7822,-623,-773,1746,283,637
830,1067,-4548,3446,124,-1863,829
831,4491,4950,-2831,602,756,-1482
832,-7745,-2113,4743,472,978,1554
833,904,-5642,5057,481,-826,1917
834,101,-3119,2466,1145,1297,-1255
835,-6592,1381,-5203,1337,-478,502
836,5880,1051,3755,-1130,838,-1825
837,3419,5022,6984,-1521,-502,-1511
838,2080,-2337,-1563,200,150,-1163
839,5015,-6488,7067,-148,1076,405
840,3310,-3092,5666,288,-677,887
841,3417,-6946,7240,928,422,-29
842,-3427,7579,7703,1068,-1617,712
843,5071,7923,-4841,-366,-1148,-758
844,7588,-1024,5057,1173,-919,872
845,-588,2826,-1346,-1973,686,-1701
846,4327,841,-1253,1339,908,-880
847,7101,-68,1159,681,413,1349
848,1176,5230,-1119,-426,1233,984
849,1380,-435,7826,1013,1920,-32
850,3889,3334,-6979,699,14,725
851,-2389,-6041,2477,1522,831,1864
852,1193,-5491,5982,1757,1066,1131
853,5216,-1320,-6990,-1271,1981,1996
854,-3971,4175,-4526,-64,1749,37
855,-4892,-7965,188,-831,1675,335
856,-3335,-2541,5371,1893,-1196,-1646
857,-1420,3264,4588,737,708,-1040
858,1426,-6580,-7690,-811,-438,-247
859,1565,5037,5005,1659,258,-1821
860,-761,-708,-3259,-165,1519,-1858
861,5319,3031,6524,1484,-14,-1795
862,-2300,6289,6825,-1893,168,-198
863,-6406,-7894,7995,-656,-8,1199
864,3807,-1895,-4424,1972,-1143,1078
865,-1346,-6181,2399,954,59,-1629
866,-1319,-6243,6618,-1952,-1319,1435
867,-465,-2966,-6332,471,-40,-443
868,-7546,-5352,-7562,-557,849,-648
869,1271,-884,507,-1207,253,1598
870,2594,-2804,-1966,1487,415,803
871,-1956,-2396,-1918,-1111,-1133,-1867
872,-3433,-6285,-6558,-1795,-498,1232
873,-2839,7596,-7679,727,1821,1769
874,-6076,5202,-1675,-749,-162,1193
875,-481,6818,-2235,231,1477,927
876,-4316,990,-3684,-1681,598,-486
877,-3982,1995,-1424,-1839,-1649,-607
878,5050,-7063,3706,1526,429,713
879,4385,7121,1002,304,170,1685
880,5590,-2283,852,-1480,1603,1407
881,-1118,-3170,-7703,239,229,-561
882,-6277,-1802,-6954,1468,1552,1985
883,6122,-939,-476,-734,-484,677
884,-5162,2802,-3225,-902,-1991,-1123
885,6527,-4572,7956,346,360,605
886,-5626,4690,1133,895,24,1476
887,5667,-306,-2785,-1780,-927,-1336
888,-524,3239,4887,-97,-425,-1752
889,1475,1359,7595,-358,941,1227
890,2242,3494,-1692,-28,-215,-1594
891,795,-5187,-6877,268,-1205,1386
892,-192,722,5408,1059,1705,-65
893,-5830,3687,-6469,-681,1644,438
894,-4695,2343,3360,-1515,-1561,-1550
895,-5767,2957,-7215,126,-855,1304
896,-4841,-527,-7596,-1483,-46,445
897,-249,-894,3505,-245,874,1590
898,-4698,5744,-6659,-1837,-223,-989
899,1863,-1414,1094,-1448,1782,-329
900,-7685,2559,-1012,1623,87,1358
901,-705,-4373,-1960,-407,1671,111
902,475,846,7756,-1594,-1255,-247
903,-6642,6960,1357,-1067,1265,-1290
904,-56,-2705,-5687,-1988,-1113,903
905,5578,-540,5199,-502,1345,1301
906,5144,4335,7850,343,1387,-963
907,-5030,-1070,-3790,486,1715,1659
908,-781,-1917,-7284,-1559,1646,-1249
909,4370,6596,-1693,632,-1098,1451
910,292,-4464,-3971,859,-1742,-439
911,2779,-7839,-7064,762,1051,-1025
912,1820,-5555,6097,-425,-553,1244
913,87,-4924,1431,1051,-1886,1860
914,-7087,-807,-2292,-981,-893,-420
915,-6739,2095,-3591,978,-621,-1006
916,2648,1492,4693,-1623,1115,-1278
917,79,-3256,-5960,-911,-634,617
918,2479,4274,597,-164,-1978,-510
919,-4901,4745,-7118,-123,-1534,-1507
920,-3086,749,-2732,-1109,-523,71
921,6133,-6301,-3868,-1554,606,1083
922,5016,3808,-5006,801,1980,-1396
923,6655,-275,-2225,-1441,-1108,681
924,7684,-1349,-3979,-118,783,-1483
925,-6584,-5249,-64,-1983,338,1637
926,-1392,3459,1909,12,1601,-892
927,-4210,7695,-6755,-1042,-1149,-87
928,266,4147,-2763,-1971,854,-808
929,-5289,2063,-3873,-568,1055,-1948
930,-3558,-621,830,1036,-517,-1383
931,7769,2680,-3759,-855,1761,-1588
932,-811,7427,5593,-484,-1139,1934
933,-867,-7676,-1516,-1569,-140,124
934,6203,-1703,-3033,543,1052,-903
935,1334,-5800,-5915,1681,156,-462
936,5636,5920,-5729,-1604,-1475,-868
937,-3718,-4797,3950,1143,842,569
938,3017,1633,7877,518,33,1149
939,1736,-6206,-3674,750,812,245
940,4496,-6348,-7283,806,-1583,-1116
941,-1203,-4136,2237,108,-914,-1605
942,1281,1410,-493,1467,1550,-43
943,7469,-1524,4162,-1785,363,949
944,-3971,-5549,7051,624,-306,940
945,-1112,6960,-3129,-278,850,-261
946,-7232,-2207,3664,1706,934,-200
947,6811,2937,-5838,-278,1446,524
948,-7208,6232,4591,-1080,1934,-960
949,5016,2372,194,1331,1095,-742
950,3879,-4795,4784,-909,471,-1596
951,-6743,5934,1076,-1720,-1489,-1076
952,-4708,6710,2502,-1313,-1590,-714
953,7945,-197,-4179,573,674,-858
954,1913,4760,-5882,1991,1168,1962
955,7671,7368,-893,-1933,-633,-806
956,2530,-5586,3052,-1109,1211,-652
957,-699,-5551,3301,1417,-101,387
958,788,-5454,-2076,953,868,1665
959,-5504,4957,1013,1602,280,1570
960,-5953,-7743,-2631,829,563,1717
961,-1069,-3366,1693,785,-1976,-886
962,5388,-3017,1860,-1730,495,-541
963,1275,6636,-203,-1873,1924,-1990
964,-4301,-6356,1748,-1514,-697,943
965,4068,-6432,-7303,373,1935,-384
966,-7323,-4511,-3895,1652,-1124,-439
967,-4184,-1165,-5029,913,-1212,-1303
968,-6377,-383,-5485,-501,1889,-79
969,949,-7701,7188,-310,-541,1356
970,-4897,-2557,-1387,896,1881,-414
971,5349,-5128,-4006,-1095,1699,-636
972,-3916,-7814,-4827,1764,258,-1576
973,4862,-3958,5435,-1364,-1802,483
974,-5207,-3350,4738,1366,718,1560
975,-1411,2239,-4724,-1663,819,1934
976,7196,5730,-5336,646,-789,-1333
977,4373,4682,-3645,-1591,-1801,-1804
978,1020,1657,-5658,-1329,1502,970
979,-1892,4180,-318,1786,-1062,-1486
980,-6083,-6501,-2094,-1632,34,1823
981,-7575,-3396,-724,-60,-435,-1115
982,-1001,2023,1110,-29,641,901
983,1298,2249,1006,1221,-1061,-752
984,-62,-2388,-5856,-103,-1059,1325
985,6606,-7821,-498,-1478,1178,1838
986,5118,391,2661,-1022,1866,1562
987,-7385,4186,5570,77,-1754,-195
988,1984,940,-5112,208,1323,-680
989,4477,-2472,3198,-1270,578,1385
990,4318,-598,3408,761,-1241,-947
991,-3542,-5186,-7964,-1361,-636,1415
992,-2018,557,7355,-367,1957,-1917
993,-6376,-5809,3031,631,31,1280
994,51,-1801,-3827,-1944,1637,-475
995,2729,-7710,-3967,1222,297,342
996,6033,-3812,5614,-1596,1107,-1258
997,-4705,-2452,3262,-555,1734,1969
998,1048,-6865,-6031,492,702,-1491
999,-6099,-6774,-2073,1892,-197,-158
1000,-4470,-4955,3501,-1857,1062,-19
1001,-7817,675,870,642,440,-1836
1002,3674,5685,-7779,1159,-1314,1693
1003,1161,-6724,1109,-1191,1468,-1428
1004,1209,5319,-4544,-1869,-249,-565
1005,4638,7802,548,576,-1837,823
1006,2292,3762,2622,-259,1539,1576
1007,-4616,2958,6850,1635,1770,-558
1008,1657,-523,4800,924,-904,-1526
1009,5173,-7554,6576,-1985,1407,-552
1010,4122,6152,-2041,1528,1619,340
1011,-197,-2843,3548,688,-1349,65
1012,-4999,6248,-3895,-114,-894,793
1013,3376,-1386,-5395,259,-943,322
1014,378,-7716,-3454,-1774,-1897,-264
1015,6838,-1381,-5370,1410,-1367,888
1016,703,4182,5861,-1614,1102,815
1017,5994,4001,1122,-1365,1860,-714
1018,7662,5375,-4735,903,452,377
1019,-1521,4509,-3679,-1641,-508,-1598
1020,1877,-1912,-5553,-1684,-786,81
1021,-7087,2802,-1485,-496,1083,-1386
1022,-5591,-1241,-5169,1894,1453,-1880
1023,6039,-7349,5290,-1298,1744,623
1024,6307,-1076,1514,-1224,1974,1435
1025,-1258,-1575,4266,-1100,1233,918
1026,-301,2610,674,-211,752,898
1027,530,3673,-4194,-1397,1863,-490
1028,-5381,3017,3185,1084,48,1792
1029,-1851,4054,6776,744,-810,1174
1030,-1263,4305,-5955,765,-1628,442
1031,-3782,7079,7500,1634,-540,-341
1032,-2910,4537,-7258,1567,-1062,-349
1033,-7942,370,4077,1602,-829,1013
1034,1901,-3528,1369,-1068,682,252
1035,2292,-5722,-886,-640,1354,1972
1036,3054,2296,-669,-1002,-1198,-1113
1037,1424,6228,-1725,-588,-1577,-1089
1038,-2453,7704,7366,700,1337,-613
1039,-2403,-7707,5587,-1924,-1390,1483
1040,5284,4908,-2550,-586,-1168,-290
1041,-6900,-3842,5422,1712,487,-1249
1042,453,-5385,-2535,-173,-1166,985
1043,6160,-2301,-2849,-896,-1107,-483
1044,1331,-3467,7326,111,-254,641
1045,-6731,-1031,5699,1619,-1711,-1511
1046,301,-4373,3543,-1787,-1575,-1722
1047,1729,-1716,7170,1307,1834,453
1048,-4368,328,-7369,-1364,-534,-199
1049,2189,-6355,-3729,913,886,-339
1050,3065,-6406,3468,202,-794,-443
1051,-2596,-3339,3470,-1338,-1909,-1535
1052,5889,1849,-3854,838,-1336,-54
1053,-3955,1042,5459,1900,-130,-762
1054,78,6882,5462,1336,-525,-1203
1055,-4777,2964,-6843,833,-1557,-1271
1056,1254,-5814,-4769,-1211,-698,-108
1057,-3944,3729,4720,-1359,512,334
1058,-3177,2984,-12,-1081,323,-606
1059,-803,-7409,-2444,-1833,1990,1422
1060,-4553,-1781,-6871,1781,-711,1432
1061,-5510,1237,-130,-1130,-1432,-1138
1062,-538,5706,-1970,-1005,-1280,37
1063,6380,2140,1270,-540,1855,-1951
1064,-6360,-446,-4738,-698,473,1409
1065,-3907,3422,1198,-1781,1326,478
1066,816,-4031,3922,603,1662,-1507
1067,-5774,-3018,1083,1337,1406,620
1068,1993,4873,5082,-944,-82,-528
1069,6395,6000,-7786,1006,1747,366
1070,-2105,-7781,2466,-25,-1289,-1043
1071,-72,4548,2876,1254,-1353,-693
1072,3771,-6402,1598,319,854,-1869
1073,-7576,7873,-616,184,-1838,999
1074,-5741,6690,-1669,-161,-259,-210
1075,-2872,7154,-6025,810,907,-1313
1076,1535,-1276,401,-414,-1316,1792
1077,-5781,4746,-3965,-1850,-125,826
1078,-6319,-4922,1697,-287,1352,-584
1079,-3790,1665,6669,-1349,860,-1742
1080,5764,-1983,3046,-1981,508,-938
1081,-543,-898,7711,1638,1749,1641
1082,5180,-3213,4454,538,1613,-1666
1083,2184,-5763,-3671,-1982,-15,-394
1084,-4805,-2976,-2367,-1661,-1027,-1934
1085,-3208,6682,5630,1943,-237,-1566
1086,7885,-389,5386,1961,1796,173
1087,-5244,-821,4361,-1119,-128,894
1088,-6072,-7604,2872,1633,-974,-1053
1089,2169,5072,6481,511,-1290,-1097
1090,-2412,-7214,5672,630,-1211,689
1091,4466,1263,4290,-1866,-1707,1006
1092,3248,1423,6592,-1941,760,-1098
1093,2093,4793,4608,392,12,610
1094,2781,1778,-2796,-1277,1143,944
1095,-5911,5656,409,-1797,1253,1227
1096,5341,4566,5434,831,-776,-1317
1097,2320,3487,-6041,-29,985,-1415
1098,6769,4950,-2300,1918,-240,102
1099,7943,-7746,-7440,-55,1516,507
1100,7230,2007,-1352,-1994,-1034,-274
1101,464,1334,-2029,201,-378,697
1102,-6873,7835,-5333,-762,63,66
1103,3466,6463,7672,1979,1574,314
1104,-386,-6156,-2607,1773,335,-1219
1105,-1109,1428,6163,-135,-369,45
1106,3296,7710,-6294,547,127,1415
1107,7961,7453,7828,431,-1413,-1254
1108,-158,2020,-3532,-1784,737,920
1109,-6027,-7969,-4934,1220,997,888
1110,-6138,3146,-1632,1280,-204,-1101
1111,7993,-7088,-2184,-101,1063,1636
1112,-1009,-7479,-7676,1012,-678,78
1113,-4631,-2699,7093,727,-834,-1929
1114,6268,4137,1464,-1275,-1349,1415
1115,2627,6441,-5801,794,-817,-579
1116,-5215,-7882,-7157,1954,809,-1089
1117,6950,7777,-7425,905,-329,1710
1118,7470,-1153,6757,1851,-1516,-990
1119,1942,-866,-3749,1992,-1606,-320
1120,4311,-5222,-513,-729,-955,-1328
1121,7874,3268,3981,528,-806,350
1122,-2863,-7579,-4597,1150,1852,875
1123,-2085,-4699,6004,-1383,456,-78
1124,-5863,7642,-5393,-27,-17,-1698
1125,-5275,4203,-1195,-1683,1476,1230
1126,4513,2372,-4439,-796,7,1366
1127,3407,-4609,7585,720,-1355,1146
1128,-7730,-3430,4450,431,955,808
1129,-7985,-2206,-6527,-1335,1509,1452
1130,3762,290,-502,891,332,-1669
1131,768,-5486,-7970,805,-945,-169
1132,-7692,1398,-3892,1665,1753,16
1133,-169,-6509,1069,1739,103,-1957
1134,3455,-7760,4089,1432,1922,-1178
1135,6782,3516,-7568,1673,182,26
1136,6134,5402,5735,1711,1018,-1081
1137,2997,1359,-3510,359,396,874
1138,2104,3183,2809,1287,-937,1381
1139,6168,-2732,2328,-887,-858,-1691
1140,-5018,6090,-2430,-684,1911,1490
1141,7860,-4134,-5460,601,1238,448
1142,6918,7224,3434,354,-127,-1512
1143,-3710,-1244,-7899,-1770,-1328,-450
1144,-5225,-2224,382,1815,-1161,925
1145,2737,-4684,-791,-1150,1443,466
1146,3143,3944,3490,416,-1166,1597
1147,-523,-5933,-4843,-1202,1142,-1879
1148,3560,-7051,2148,1793,-93,470
1149,-6110,2003,-7297,175,1733,213
1150,-6120,719,3670,-862,1826,-1483
1151,2075,1553,-3292,881,-482,1387
1152,-4169,-3078,-2178,-316,-759,316
1153,4419,7096,-5010,1862,460,1634
1154,2961,647,-6365,-410,1972,1158
1155,-6141,-7863,2062,1959,-477,1807
1156,4277,1233,-2964,-520,-1473,-620
1157,-5508,-3399,7924,310,-297,-1098
1158,-5149,-4736,-4805,468,-397,195
1159,-4180,-5204,-5092,905,1346,1850
1160,2446,-1726,-2869,-591,-1022,749
1161,-4529,7774,-4462,-517,442,-1998
1162,5290,-1468,-3579,-750,-1232,104
1163,7294,-2308,-960,924,-760,-1372
1164,-3149,-1725,469,499,-1673,1550
1165,386,3694,5771,-1800,1839,-604
1166,1542,6956,-2183,-1199,-1033,733
1167,-6145,2741,-2969,-1524,-1679,1576
1168,6090,4600,-6967,-254,-1955,101
1169,3707,-211,4860,1556,592,497
1170,6534,6736,2639,-1552,-1326,511
1171,-7056,-4133,1247,694,233,-940
1172,-2661,-1181,3280,-1377,-1975,1870
1173,1201,6446,-3995,-1857,-566,-921
1174,-6859,6398,1507,-1041,595,-1249
1175,6053,-4672,3975,1868,1063,-1348
1176,-4046,7759,-3810,-575,-219,-205
1177,-5032,3063,-5286,-1371,-1133,-405
1178,5363,-6168,-6950,-822,1194,413
1179,5754,2161,-7556,1427,-1021,-891
1180,-1263,5515,5746,1234,-1292,1506
1181,-5136,-2710,-3835,1416,1994,1167
1182,2297,-3335,314,1691,-1742,-365
1183,5498,-1014,2971,1636,-989,-1489
1184,-567,1161,-3255,308,1383,-249
1185,4409,-1359,3406,-435,1897,195
1186,6283,5532,-1985,1709,1729,1450
1187,-1316,-3964,-6707,-1493,-757,1802
1188,6168,6635,-6812,1904,-81,-1345
1189,-7630,-4753,3016,-1593,535,-1837
1190,-2625,-7157,-5374,-1753,1456,-913
1191,-6624,-5017,-5060,491,1927,-1584
1192,4878,6892,4709,-1127,-1290,1021
1193,-2201,-3643,4323,987,-1286,772
1194,834,75,-279,-276,-332,-1117
1195,1210,1734,2074,1684,388,314
1196,7705,-5725,6647,-1957,-248,1643
1197,830,-2543,7567,-83,1939,-669
1198,4582,4642,3733,-366,1161,-828
1199,3788,5430,4940,933,974,-1810
1200,-7612,7023,1236,715,-1271,-691
1201,-4165,-7383,-4325,190,1085,524
1202,-3625,-6601,-1413,120,60,-908
1203,-1181,4831,4090,-1170,-1192,-1798
1204,3743,724,-517,1088,-1447,1180
1205,2859,2696,-6741,-1279,-1983,-383
1206,-4710,7583,-4080,1339,-362,1291
1207,2121,3070,6190,-1983,-805,-1185
1208,4742,-3036,-3666,1905,1707,-376
1209,-888,-3384,-430,-1783,-898,958
1210,-5471,-7989,-6992,307,551,1199
1211,-2543,-2495,4670,17,85,1306
1212,-6041,-3276,1673,920,15,725
1213,-1464,-796,3602,663,1638,1844
1214,3452,-6489,-6824,-293,-416,1915
1215,7523,4548,4693,1108,-1334,263
1216,4487,-676,-7885,-1307,-1148,105
1217,-7622,3554,-5801,1685,1611,-1006
1218,5974,414,6800,-464,-786,289
1219,-6025,-2451,-778,-153,1867,-1742
1220,4397,-5619,4547,1371,1733,-1461
1221,2361,-5399,-683,-1367,-1373,382
1222,-5196,-4371,6157,-874,535,-146
1223,-484,132,6185,-521,1747,284
1224,-5870,-2806,6693,1075,824,-1166
1225,-3838,3923,5350,-141,-1482,-1161
1226,3764,4792,4184,1025,-748,1824
1227,7501,6873,-3625,-46,1234,-1402
1228,4928,5980,5114,1320,-100,1183
1229,7445,-5829,-6572,1029,-1802,985
1230,1358,3848,-246,1033,-1836,-1063
1231,7428,-5805,2240,-1473,-107,-1151
1232,4836,-1823,-2746,778,-642,-304
1233,-6004,-1687,-1255,-1497,-954,-843
1234,-7338,-178,2280,-1990,614,1359
1235,-5735,5415,-3825,953,1951,1058
1236,2837,6403,-6960,382,22,-714
1237,-7455,5029,7677,811,1486,-1723
1238,-4595,7671,-5662,-725,-766,1773
1239,4548,-7739,6559,-1589,-877,-1239
1240,1433,-7723,-2119,171,-898,120
1241,-1117,-4346,2334,1225,1442,1514
1242,7744,3273,273,1284,1082,-145
1243,-4373,-4502,-6426,-431,37,-1076
1244,-3296,-3134,-6866,-658,-266,-1930
1245,393,-2511,-4038,-1455,1742,-1275
1246,7063,1495,7214,-1713,1380,-88
1247,370,-5159,-2718,-1441,1175,1092
1248,-58,-1795,5815,-1980,-1485,-539
1249,-6638,94,-1950,249,-1039,-760
1250,6063,-608,-2232,-414,922,-264
1251,-7039,5371,-1480,-43,-507,-1589
1252,4930,1500,1398,840,-379,1224
1253,-245,6632,6183,-1447,-1978,1926
1254,-3937,2837,-2204,1208,152,-735
1255,-7431,-4428,-1475,943,1374,1573
1256,3446,1922,3694,391,1383,1446
1257,7612,1443,-4515,-1332,1033,-1836
1258,7490,-2914,7455,-203,379,-1142
1259,-2047,-6772,7097,228,1315,-1567
1260,-2480,-2945,-4867,1879,1083,1925
1261,7496,1235,-7850,-1629,-778,-981
1262,-3070,-3359,-6444,-1135,-425,1487
1263,461,7770,-6142,302,782,-108
1264,6939,-2789,3726,933,-415,-1919
1265,3198,-2945,-5522,-1939,-42,-927
1266,-6550,4756,-4196,676,116,-1769
1267,6974,-286,-2785,863,498,1926
1268,2948,-3243,-5101,-924,-1676,-1882
1269,-865,4964,921,-816,-200,-1713
1270,-788,-6356,-2462,1966,-1827,-855
1271,6074,3906,-4146,1242,-1315,-1244
1272,-3203,3131,-7496,751,314,993
1273,-705,3793,-4317,-1346,1537,-1787
1274,2817,5316,-3665,1156,-1239,1093
1275,885,-7587,-7964,-1303,671,-1058
1276,7954,3755,1524,1568,146,-1088
1277,4548,6783,1237,-1836,1020,-445
1278,533,2620,-6404,-1433,897,530
1279,-3597,7814,6611,-18,1055,53
1280,4301,2947,-490,-521,-1239,1287
1281,3756,7806,-4604,-637,291,-187
1282,4946,2465,-4894,433,-1447,1088
1283,7817,-3970,-5206,-1556,-1127,-51
1284,2524,-1248,2299,-103,1664,276
1285,-1970,-5144,-1794,-1297,410,-1606
1286,497,5580,-7128,1677,-1444,-1468
1287,2096,-4387,-558,796,1473,203
1288,-4472,-6141,-431,-1802,1074,1227
1289,-1508,4111,-2047,-274,-1078,-1215
1290,7279,-3481,6783,-1629,291,1331
1291,1533,3195,6110,-253,1240,-1645
1292,-7097,-3998,7395,-446,-1766,971
1293,5050,7369,3349,579,1861,1153
1294,-4768,-1347,6537,1583,-1633,1879
1295,-212,-1740,-4504,1579,-1485,47
1296,-1501,5001,-1365,977,898,937
1297,6343,-6693,-3161,511,397,1884
1298,-3177,1818,-5361,-142,-467,914
1299,-1189,538,2972,1574,777,1187
1300,1877,-4683,2684,-1706,1267,-1229
1301,5008,-3323,2550,-929,1959,-609
1302,-6029,7730,-3410,917,-1046,-170
1303,3314,4016,6348,-1211,-1665,1621
1304,2374,-2356,-1639,-1251,-1582,-1988
1305,-3992,-1974,6848,317,1418,-797
1306,-7182,-1005,1214,-1175,-1883,-1716
1307,-943,4683,-4527,-1090,-301,879
1308,1109,-4864,-604,-985,265,716
1309,-6674,-108,-2688,1324,-442,-1634
1310,6655,3997,-4635,-1626,123,299
1311,-2953,-1579,-5016,647,1362,-722
1312,267,536,-6758,-955,-1385,190
1313,333,5146,-1544,-1070,728,-834
1314,734,-2281,5053,-344,1880,1885
1315,5659,3648,7058,594,-1486,1472
1316,720,7532,-637,-1059,-388,429
1317,-6479,-1129,-5173,1483,907,-243
1318,-3908,-1720,128,974,1070,523
1319,4444,-94,6529,1230,-1272,-177
1320,7639,-2011,-3075,-1420,-1841,803
1321,-1765,-2414,-5188,-1573,1235,1072
1322,-7322,1590,-4212,1537,-825,1946
1323,1322,-6890,1060,-591,116,-156
1324,7704,3010,5787,1237,-1573,189
1325,-5131,3523,-4242,-1717,1435,1960
1326,264,379,4442,1847,1990,67
1327,-3557,-7989,-3858,-820,-1496,-1897
1328,-2881,317,4839,-573,599,141
1329,-6307,-7326,-6601,-1756,1706,1514
1330,3243,-4149,662,-1179,94,-277
1331,7296,6229,-7176,-506,-537,1494
1332,4310,29,826,-728,-777,1484
1333,2036,-6995,848,-166,1437,-1319
1334,-3239,5150,4658,-1191,1467,1825
1335,-6177,5238,1703,-1899,432,984
1336,6899,-5616,-5305,-1135,-1138,-858
1337,4892,5903,1462,1213,526,-471
1338,-6322,3890,-4879,-581,-915,-637
1339,-4052,5597,-2403,-299,822,698
1340,2772,-4591,2657,1072,1181,-1726
1341,416,-1282,2951,967,-1364,1427
1342,-6779,-1934,-3073,1528,-736,-1964
1343,4490,-2321,-1480,313,654,133
1344,-2374,-6288,-1195,751,-779,1896
1345,-5884,-3496,6929,875,-1512,1886
1346,5874,5867,-4071,-1973,-885,563
1347,-2795,3817,-1976,1716,763,-1484
1348,2325,-6892,-1961,804,840,-1529
1349,2125,-6627,530,1471,-1292,1436
1350,5634,-4812,3756,1365,1601,1197
1351,1701,-503,-2333,1713,-914,150
1352,-6227,6084,-7674,-381,1990,1096
1353,-6645,2146,-3907,1391,-625,603
1354,6363,-825,2226,-1870,-1683,-1257
1355,3662,1579,566,640,-1967,753
1356,-2145,-648,-5050,1267,-293,-743
1357,2936,-1521,-6786,1632,-550,-1488
1358,3529,-1174,4922,890,1494,-480
1359,4637,311,-3465,1492,756,861
1360,2609,785,-1438,-1418,21,-439
1361,-1923,4660,-7745,-638,-1842,1991
1362,-6992,6394,-1496,606,1198,-171
1363,6837,-1921,6628,-1333,1914,675
1364,4415,-3085,-45,-1330,1523,1833
1365,3924,-1210,-7920,607,-495,1061
1366,-6463,-6199,5346,-310,1092,-928
1367,3194,-7047,2386,-1887,-1840,-1903
1368,2756,563,6671,295,-177,-401
1369,-1723,7157,6322,1380,-1920,1169
1370,3707,-7059,-1696,849,719,-1458
1371,-1894,4964,7101,1771,1693,798
1372,-1368,-1531,-6196,276,1549,-1999
1373,5648,-1739,5347,945,1482,1714
1374,-4670,7354,-2502,123,742,355
1375,-5712,-6304,-4922,-941,951,-1781
1376,-7531,-2917,-3333,1044,309,966
1377,-6157,-3925,-3619,-548,-328,589
1378,3272,2571,7214,-151,-1910,-427
1379,4849,-1775,6120,-1293,1332,-1543
1380,-3793,5997,-5180,-78,-1964,-1664
1381,3987,-2530,-7556,-1466,-1485,-1615
1382,-7852,3617,4060,1866,1335,979
1383,5672,-1547,7741,-363,-1482,-1808
1384,-5109,-3045,7706,-334,1028,1273
1385,5801,-6690,679,438,976,416
1386,1646,6560,3523,1149,-898,-554
1387,-4739,7637,-4501,660,769,114
1388,-3244,7175,-4713,964,-397,324
1389,-5306,-7397,-2459,619,-624,1710
1390,205,-5324,-7698,-908,431,-308
1391,2,418,3481,1180,1981,1880
1392,-6569,1163,-7524,-1552,1792,402
1393,4636,-6611,-912,1013,-1167,322
1394,-2463,2771,-5485,149,532,519
1395,-1350,333,192,171,740,835
1396,-3780,-5930,-5906,438,693,1081
1397,5466,-868,-7590,-954,-252,1262
1398,-1346,7260,25,241,-1826,-287
1399,-4224,4905,-1139,-673,1199,892
1400,-7650,-4934,6486,-1290,750,-1238
1401,5367,5504,3775,-1903,-1655,-180
1402,6960,2138,5673,-1609,12,-1125
1403,-3888,-5136,4052,-1710,-1003,-1566
1404,-4206,1320,3939,1946,1430,-1208
1405,-7279,4539,497,-994,-953,-490
1406,4298,914,2535,1650,420,-727
1407,-1384,-5375,-749,-1161,1661,-670
1408,7807,-2811,7891,-1060,-250,183
1409,6425,-665,7359,1027,450,-1157
1410,-11,-981,-4669,333,-759,1354
1411,4105,6913,-4296,1038,301,227
1412,668,-2250,4482,-1209,-1981,622
1413,4930,2136,-5616,477,1019,-1881
1414,-4670,-6311,-5059,-929,1387,1545
1415,-5198,-7786,-1874,657,-522,226
1416,7792,2633,-3704,961,424,414
1417,-1690,-1262,-5045,1267,620,-932
1418,-874,1581,578,-15,-299,-920
1419,5875,-8,-1752,-215,715,1159
1420,-1884,1068,1393,198,1084,1648
1421,-5574,-386,-6445,-1500,-980,1412
1422,6638,7359,-5274,-947,-660,-1473
1423,5000,291,4813,1724,-141,-945
1424,6933,-917,-7516,-1653,-1939,1405
1425,3887,6038,-4148,570,-1766,-681
1426,-4897,-5197,1212,589,1370,-1483
1427,-6472,-2598,-3771,70,1554,-814
1428,-2656,1748,7555,-1540,67,-1683
1429,-1015,-3216,-3951,803,570,1413
1430,-3196,-219,6609,-499,1831,-72
1431,-3658,6154,1879,-579,400,1661
1432,5916,5235,-2752,1862,264,-797
1433,4909,1461,5842,551,-107,-22
1434,3939,5727,-7714,-584,1633,214
1435,4316,-5697,-5495,-1028,1934,-530
1436,-1242,1154,4901,902,-347,371
1437,-1117,1070,7352,-311,1831,-1466
1438,4138,-4720,2420,900,1110,-1258
1439,-368,2161,5862,735,1670,1306
1440,1007,4518,7962,-40,1714,1757
1441,3539,-2737,-7805,806,-1441,-282
1442,-4095,-7853,-2527,1863,-860,-173
1443,-6870,-7350,4301,1625,1974,1089
1444,-5945,-4735,7838,-497,-709,-35
1445,3548,-1356,4410,-424,485,-1517
1446,-1525,5901,1948,-1730,1433,1363
1447,-3349,3244,-984,-1143,-274,565
1448,7437,6600,-7309,-1189,-167,1273
1449,-6649,7382,6152,-1924,1157,-1925
1450,-4235,-1850,3099,1897,-1443,390
1451,2789,-1457,-2784,1811,152,-1932
1452,-207,1836,3819,278,-1943,570
1453,1855,323,-3733,-1162,262,1421
1454,-6,-4931,4600,1718,-1095,-783
1455,3642,4486,3112,-583,89,-1060
1456,-3297,5296,43,-856,-559,-1792
1457,4859,-3393,4865,-466,1909,300
1458,-5776,556,-4886,-1409,-23,-1212
1459,-4200,3645,1648,-1081,77,-985
1460,-6097,5594,-5533,-1755,-1582,189
1461,1521,106,-1291,445,1268,1163
1462,1915,-3286,-5676,-128,1428,-35
1463,-111,-7433,6331,688,-830,-1144
1464,-6975,-7946,4074,1540,-1360,-839
1465,7203,-3236,-3977,-1133,-1801,-415
1466,6680,-1654,-2634,870,-513,-1301
1467,-6047,5127,3598,-385,864,346
1468,2791,2427,-6886,709,1818,1305
1469,5580,-6820,1304,-1071,-1046,-930
1470,1465,3119,6087,74,-1391,-1835
1471,-2085,5483,449,-1446,1575,37
1472,-3891,6337,4457,-1119,-1007,1650
1473,-5055,5266,-5262,-312,1679,806
1474,3888,5770,-1632,-1414,-1579,1675
1475,2464,-7981,6332,1016,-516,-1726
1476,-1039,5812,-3366,628,544,-32
1477,-6370,2387,4944,-51,994,1384
1478,-6929,2719,2680,-710,1568,1067
1479,6729,7719,2895,1396,1030,1724
1480,2480,98,-7815,31,1809,245
1481,4722,5080,-3539,551,-1885,632
1482,-221,6627,-5713,382,1853,-1576
1483,3021,4364,6604,789,-23,-1767
1484,-6490,-4763,-418,528,-194,1395
1485,6977,1626,-2571,352,-333,-1526
1486,469,-749,-3594,1047,-38,-1907
1487,-2772,-2722,-7980,-651,-953,-1098
1488,2667,-2684,-2808,-932,1948,-1772
1489,-1927,-2511,-5632,1377,1334,1582
1490,5267,6544,682,-1993,1107,-674
1491,-6201,3787,5703,796,204,491
1492,-7819,-6515,2845,1020,-1686,-807
1493,222,6747,-1354,1192,-34,824
1494,4435,7149,-3492,-923,-9,1011
1495,-5932,1684,3023,1954,503,661
1496,-6001,-6047,2773,-12,140,1062
1497,-4644,-7499,-2283,576,545,-1156
1498,-5556,2454,7663,239,1578,-1642
1499,-5603,398,4864,-785,477,-470
1500,4816,2899,-233,1719,-978,-703
1501,4356,-900,-871,-1805,1353,1425
1502,-5368,7917,-5920,-1725,-734,-101
1503,-1075,-5509,7672,37,-1120,1231
1504,-3171,-2250,1362,-790,-967,-11
1505,5203,2153,-215,-1252,-937,-354
1506,7085,7518,7241,-990,-180,-500
1507,7119,-4528,117,1172,1887,1373
1508,-226,1257,2333,-384,-1087,-1278
1509,6366,7424,-317,-1955,-1139,865
1510,4336,-7971,59,92,-1102,-1975
1511,-3719,-791,-4915,872,-1839,-1804
1512,-37,-7714,7288,748,678,1622
1513,4915,-4610,826,154,-342,-1365
1514,-3789,7352,5550,-1502,985,1665
1515,3569,6632,5051,702,-370,144
1516,7411,56,4793,1083,-216,953
1517,5399,3158,2458,1904,1955,-602
1518,-6183,4663,7554,-976,1846,862
1519,6452,5042,4018,-377,-1851,-242
1520,4702,748,-2021,1215,-318,127
1521,2512,-4656,-3363,-1093,188,-61
1522,3605,2342,7358,445,-226,-1839
1523,-372,-3485,2059,31,174,-1431
1524,2918,3143,-802,-1234,-998,-504
1525,3585,-1254,-3128,-930,-1966,1419
1526,-6845,-2190,-1672,-1096,-1157,457
1527,-4022,-4650,1254,35,-900,1957
1528,-5545,-1842,-2538,-1662,1726,-1149
1529,6529,-4486,4876,-987,-1019,1877
1530,2191,-747,-7898,-1635,-1669,886
1531,-7919,-6932,5079,-1699,693,1556
1532,-7131,940,-801,-69,-1686,1966
1533,-7338,1271,-6350,-679,-1861,-254
1534,5152,-4401,-4147,1097,-294,205
1535,4714,-4404,5623,1046,-1704,823
1536,767,-4429,-2730,911,1062,-1039
1537,-6446,4107,6258,-884,1435,258
1538,1956,-5061,336,-1007,-911,634
1539,-7685,-7291,7944,1526,969,-1308
1540,5172,-734,-7149,-259,1987,-589
1541,1289,1835,934,-723,96,-1693
1542,-4911,2508,-3136,247,925,-1631
1543,-6433,-6201,-2527,8,25,1361
1544,-5503,-398,5915,-616,113,-924
1545,7645,439,7242,1651,-359,1930
1546,5851,7126,2970,1737,520,-1689
1547,-3169,-6895,4682,679,-1248,50
1548,2966,7218,7083,-555,64,43
1549,337,2927,-7866,-739,476,1997
1550,-7760,3104,6758,1256,1747,815
1551,7821,-6776,-824,1660,-88,-795
1552,-4353,-4323,6729,204,-975,-263
1553,-1148,-5141,-5247,615,1105,1129
1554,5697,-802,512,-1575,1086,1568
1555,-1637,-5965,-5323,1552,957,1126
1556,-1822,6069,-1064,-1375,-1550,1030
1557,4547,-7958,-2824,334,1005,-1252
1558,-3547,7124,-3603,-1347,98,-66
1559,-3794,3004,4072,1200,-583,1422
1560,3953,-3192,-7997,-851,-213,568
1561,3533,-2462,833,-1220,-111,1137
1562,225,7033,-2467,-1917,1524,-595
1563,-3397,3528,-4999,1822,-539,1075
1564,2035,879,2565,1210,1103,40
1565,1148,1482,2082,1653,-1853,-806
1566,-2698,3451,4362,764,1611,1704
1567,-4758,-3470,-982,-311,686,-1671
1568,-3402,1834,2110,555,64,1444
1569,3971,4284,-4155,-194,-584,-1797
1570,-1930,5053,-4335,-1561,799,-988
1571,-7593,-4765,5530,696,-635,-355
1572,-7553,3687,7383,65,-1754,1664
1573,4227,3294,-595,-750,999,-1929
1574,-6320,-4765,-215,-148,-1646,-1795
1575,-7014,-6537,-5496,-138,-1208,-1348
1576,3139,1166,225,1487,-1608,445
1577,-5825,-1323,-6823,1134,-615,59
1578,4673,1966,-7743,588,-1382,-933
1579,5989,2927,7132,1014,-1545,-307
1580,-3680,-6403,4727,904,639,1908
1581,5317,6727,7796,191,-1045,-749
1582,4908,796,-158,1370,1563,-120
1583,7738,5431,2308,-612,1209,-1982
1584,-472,-3935,-4389,-312,1069,1907
1585,-4459,6355,2574,-1833,-1684,36
1586,-4995,-7501,6976,8,-251,1121
1587,-885,2144,-654,292,1318,1535
1588,7928,-4669,6848,1051,296,1056
1589,4083,3875,2454,-221,-813,-1259
1590,-7177,-4973,1846,388,-476,-615
1591,-551,3872,5624,-1669,536,-110
1592,-5515,-7366,7303,-1759,1859,-1768
1593,4140,-2680,4651,533,1754,921
1594,6102,-757,4555,792,-661,122
1595,-7704,2682,-2147,-1049,-888,277
1596,-459,3751,-83,454,921,-904
1597,2638,-7577,6005,-116,-712,488
1598,2602,-2573,2675,1379,-1111,1735
1599,3840,-5097,-3616,1344,11,-273
1600,-2858,-7725,390,874,-916,877
1601,-92,-2205,-6041,-423,-233,-1298
1602,2277,-399,2353,629,-697,-1763
1603,647,2980,-3851,-331,-1134,1097
1604,7,4433,5145,-1783,1603,-1504
1605,937,5860,-2339,1058,977,1958
1606,-3833,-4931,2974,1691,1540,1452
1607,-4696,618,-5774,187,-864,1790
1608,4153,6723,-3390,-1440,1310,581
1609,-6560,-3208,-4296,-1973,-1294,1799
1610,-4292,2862,4529,-1248,112,361
1611,-2041,6394,311,-1515,100,506
1612,-3120,-4073,7638,1405,-526,328
1613,-2950,-3053,558,1622,-993,869
1614,1247,-6206,-2653,-987,-1920,-809
1615,879,-3124,-3243,796,-203,-727
1616,-4051,-7808,6704,437,765,382
1617,-6412,2335,7948,486,-832,-12
1618,-2243,5969,-1822,755,-908,1014
1619,3188,-3962,-3854,-3,-1774,1441
1620,6539,-6654,4730,1035,-988,860
1621,1485,1810,-1859,855,1818,1684
1622,590,6211,1269,-1617,393,-624
1623,-5413,7429,-1169,-1224,944,452
1624,-3280,-5265,-1978,-641,382,1283
1625,-6642,5822,-6075,-1523,489,-1968
1626,-785,-3594,6325,-1715,-1675,-649
1627,6409,4078,4157,1582,-1835,-1238
1628,-7091,6271,-3493,-661,321,-966
1629,4987,-2642,7319,794,-1486,1029
1630,7406,-421,543,1730,545,-1142
1631,2208,1970,-37,-1195,-1612,-1434
1632,-3013,767,-3450,-1746,246,-1104
1633,-5752,-1925,77,855,1123,398
1634,193,2512,-5486,-674,1484,1191
1635,5799,6965,-1935,1075,1923,115
1636,-2615,-4720,-2418,1718,-622,976
1637,6283,6300,-5577,541,1223,1336
1638,5995,-7922,-5122,1701,-1442,254
1639,-2806,-1625,-7626,-135,-363,-1355
1640,-5544,-5573,-6956,-425,-921,-1299
1641,7412,3652,4380,-1158,562,1982
1642,1698,6760,7824,-680,-153,1570
1643,6243,-2705,6796,-223,-1661,114
1644,-5100,-640,-7298,567,-108,-1012
1645,7971,6337,-880,448,-367,868
1646,1644,-1316,6283,1953,325,390
1647,-450,3028,-6997,1797,-1595,-146
1648,-4630,-5444,121,-145,947,1272
1649,3779,-4858,-3301,-1914,1934,1335
1650,-1558,6764,6858,-1134,-726,-404
1651,-6233,-1386,-4797,410,-414,1198
1652,-2655,-5307,2050,-185,977,1694
1653,-3001,1765,2925,-1692,-864,624
1654,3751,-6369,4275,-390,-730,545
1655,-1803,1312,-3163,-1508,-1150,599
1656,292,-7953,7854,136,-676,1027
1657,23,6686,-938,1982,-666,1353
1658,2896,-2403,595,1089,-212,888
1659,2137,-7389,7079,349,1631,-203
1660,-2452,2126,3450,-991,1813,-645
1661,-6461,-4146,-766,-124,-832,1828
1662,5010,-3525,-7273,-306,-182,-1060
1663,-2708,-6312,2389,-1564,-1300,1072
1664,1607,5412,-3210,-1118,-1193,-1573
1665,-821,783,-5228,-372,-1421,-1404
1666,3422,-2502,6567,-1862,517,1338
1667,-4104,-7598,416,-47,1821,-850
1668,-6743,3431,2097,136,-1202,815
1669,-139,-815,-1222,-1665,-183,-146
1670,6604,-2830,-4944,-873,-1874,-859
1671,-590,-6701,-734,753,-1725,-1449
1672,2799,7475,2459,-1785,30,-1698
1673,2242,-5241,7146,-1710,1783,1968
1674,-5883,-2408,7456,-40,-246,-226
1675,-6362,-4429,1307,307,-753,54
1676,6195,-7022,-1360,355,-1075,-1283
1677,125,-3965,-2771,-255,350,-750
1678,-6736,7551,-6509,-585,1161,-451
1679,2306,-4101,-7883,1181,-684,755
1680,-121,7697,-3109,-575,-1423,753
1681,4229,-7069,-1785,-1375,-1912,-1535
1682,-2713,-7430,141,-1378,727,-196
1683,-3905,-7981,-1465,-186,1986,-592
1684,256,1567,1394,437,-882,-615
1685,1317,2140,-2842,-1083,-23,546
1686,6146,7488,7407,-1176,-876,1412
1687,3101,-4686,6209,-485,-1846,-1395
1688,1969,1122,6273,-937,445,63
1689,127,5685,5813,1822,1319,1756
1690,6357,3754,2170,-600,625,-423
1691,451,1376,-5561,697,-1511,-1841
1692,6662,-2707,4786,-1413,-1870,-1136
1693,7169,5162,-5772,787,1095,-968
1694,-3565,-750,-6025,1979,-1417,1659
1695,-1819,4306,-4916,-996,-1660,-1217
1696,-4007,-1805,877,993,-1310,-1172
1697,4822,6435,5531,-75,-1350,1496
1698,1660,3143,4685,983,-1837,1174
1699,97,7885,-752,864,910,1288
1700,2027,-2392,50,1019,1847,-235
1701,-5541,4529,-1835,-564,-1984,712
1702,-6277,-1657,-2650,1234,479,425
1703,5445,-3788,4730,-1440,643,-631
1704,-4663,5392,6067,379,1077,-1555
1705,563,-4803,4037,-168,-1866,-1829
1706,-6742,-3389,1773,1102,154,-1890
1707,-2464,1534,-1593,389,-862,112
1708,-4441,3283,2291,1116,-1595,1005
1709,-310,-2932,1572,-1740,-804,1337
1710,-3260,-7562,2842,-915,-1023,659
1711,-724,-6802,-6029,-1298,1324,1574
1712,4899,7847,-2606,939,-1710,1592
1713,-2356,3071,-6917,303,-753,1378
1714,3282,-7462,-3174,-1016,1590,-915
1715,-3070,-4256,-579,-227,-1533,-180
1716,2530,-2868,5757,1259,-1563,851
1717,-393,2855,-1638,380,-1491,666
1718,-3037,1661,-1086,-1698,-1537,603
1719,-2844,-7013,-4891,-1682,1430,554
1720,5640,3044,703,-894,-1756,1852
1721,-2178,6856,-2301,695,-203,401
1722,-3053,-4864,-3116,-1569,-1592,1356
1723,4850,-5650,6871,-276,1447,664
1724,7775,4529,5651,-1932,1597,-734
1725,2544,-7626,2052,-1593,-1837,-2000
1726,7448,-3926,-1743,782,1070,-1392
1727,-4963,3119,1690,-1391,206,1503
1728,-4218,-6831,-6963,717,-561,1529
1729,-6135,-4766,4565,789,1889,-1796
1730,-1857,-3818,-240,723,1369,669
1731,-5149,-3628,2540,1038,-1892,-321
1732,3782,6876,6638,-495,-513,650
1733,263,-2693,7036,634,1774,-1419
1734,-517,1758,345,-1502,1665,-1144
1735,196,-2119,6048,473,850,1171
1736,-1419,-7518,1273,881,-1961,1601
1737,-4858,5375,6245,-1991,-265,1980
1738,1672,-6948,-3441,-445,1281,-964
1739,4888,-3020,230,-184,-893,723
1740,6097,6842,-2745,84,1681,-1454
1741,4349,-5507,-5135,-1856,-1850,-1923
1742,1190,316,2910,270,-1262,-1639
1743,4537,-2927,5268,-1258,-1827,380
1744,-1596,2374,-6101,-1273,-779,950
1745,2775,-2606,-610,-136,1628,-128
1746,7424,4497,-4352,-697,1137,636
1747,83,3001,-612,-693,-1750,-1715
1748,3852,-696,4963,1633,-1832,12
1749,-6502,-738,-7160,725,-741,967
1750,5301,-3543,6306,-263,-1642,1631
1751,2382,-3745,-2131,1556,-1307,-47
1752,-6610,-3087,-2861,-1449,-1668,-1265
1753,-1732,4638,-5984,-738,471,638
1754,2357,7900,-874,-1699,1245,1332
1755,-5781,6862,7730,-1058,-972,858
1756,-6805,1764,-7520,1920,-969,927
1757,1831,-1746,362,-773,-22,-447
1758,642,-1862,3129,779,1691,-1736
1759,1430,-2063,-512,-1597,-446,-160
1760,1061,-3455,2964,-1661,-1970,-966
1761,-6680,-7958,-4431,-515,-1287,-872
1762,661,5490,5178,-1355,-1783,1516
1763,-3659,-3617,6751,624,-176,972
1764,3094,-3828,5885,-631,-608,36
1765,6385,-1865,6175,-1246,-287,1347
1766,-2736,1339,-2814,406,931,1285
1767,-3560,3098,635,-276,-1717,412
1768,5962,4465,3171,1879,-1242,1956
1769,-3937,833,-3149,1825,1084,-1715
1770,-3117,-5269,-3490,1815,-745,-659
1771,-7292,5133,-1605,-1835,-782,-1870
1772,-919,7623,-130,1830,4,733
1773,3092,-1076,-5582,-493,1092,-552
1774,6930,-5321,-1035,-1085,1209,-1353
1775,-1654,5601,-7318,-732,-1731,-348
1776,6832,3400,1353,353,-1871,381
1777,3367,3841,-7103,-1353,701,1194
1778,-596,-2328,-89,-1086,320,-1289
1779,3026,7188,6825,1559,1183,-397
1780,-3554,3363,-4009,-33,1046,1562
1781,3821,-3981,729,-301,-271,-322
1782,3635,651,-3346,-99,482,-618
1783,1423,-1516,-3009,303,1505,-743
1784,-3472,4280,-4452,1352,965,-1962
1785,-5801,5499,-6694,-1352,484,-1905
1786,-7714,2481,6505,1782,1901,56
1787,2035,-6295,3954,1559,1943,-97
1788,6300,4336,-5712,-395,-1894,924
1789,-5324,-6160,-5728,1098,-1740,985
1790,5284,4310,1661,1207,1053,1585
1791,-2944,-2885,-3403,1510,513,773
1792,1647,-2152,6113,-374,-1158,939
1793,2593,-3032,845,-1033,-231,1318
1794,6507,4880,-3488,1283,1940,-41
1795,1389,-4935,-2834,1635,1914,1649
1796,1809,-4324,-3803,-1739,-635,1221
1797,-1343,-5539,-5500,-1296,-1404,-1469
1798,-2899,-2835,-2895,-1570,-491,257
1799,1077,6484,-6049,-1447,-1509,1147
1800,2709,-6510,-7214,109,-221,161
1801,-1029,-828,-3853,-1850,-82,1495
1802,397,-6730,-6384,-1987,-1422,394
1803,-1123,-2218,3331,-1441,952,1351
1804,-3232,1224,1465,-1669,830,-1993
1805,4832,5637,-1493,-824,1329,-374
1806,2472,-7120,-341,-131,-609,-1533
1807,4902,-5664,4637,1409,-1224,664
1808,7615,4395,-859,-278,-1541,632
1809,2315,1951,2047,-1300,1881,-726
1810,-4413,-3561,5163,1952,363,-406
1811,4084,-1688,1006,63,762,-73
1812,4213,-5539,-5124,1479,196,1211
1813,-3388,-7484,-4815,1895,-1854,-592
1814,6895,-7008,1089,-1956,-240,423
1815,4447,-417,-5269,-1548,-1328,-634
1816,4165,-4844,6172,1916,-1925,-110
1817,1993,4438,1328,-397,-251,-1122
1818,7735,-2039,172,-1300,-1582,1584
1819,-755,-5488,4686,-1397,1593,47
1820,6007,2487,-6389,-1470,-1297,-383
1821,577,6380,-147,218,-1728,-1408
1822,4843,-2711,7073,-783,-1447,1493
1823,774,-4588,1067,361,564,920
1824,-1451,6692,4990,1798,801,-1935
1825,5636,-5776,5115,13,-1902,364
1826,-7254,-5899,5299,453,-1494,-900
1827,-2009,6208,1758,997,892,-1423
1828,-3600,7716,7540,-1037,49,-154
1829,-1607,5586,179,-734,381,762
1830,-7940,1156,6230,1827,768,377
1831,-748,2822,3196,1062,-848,-1265
1832,-5907,-904,7861,735,-433,-270
1833,4509,-7853,1128,-1203,-1950,53
1834,-192,3225,7333,-452,-796,-1470
1835,1461,-3749,-6263,-1709,-421,687
1836,1951,4498,7291,-132,1249,1192
1837,-3920,5748,1137,1978,1936,1136
1838,-2379,-5299,-3299,-1999,807,62
1839,-4253,-4713,-6099,1804,-1364,-796
1840,-3045,-2641,5168,1451,-1623,927
1841,-6954,3908,3689,339,-1241,-1705
1842,2447,-31,-3935,1702,664,1928
1843,-747,-6570,3382,-1325,1377,-1081
1844,506,-6007,5737,1298,1997,-72
1845,5814,409,5440,-541,468,-518
1846,-2054,7263,-2708,1618,-312,-1604
1847,-3068,-4975,7501,-648,1002,-1956
1848,1335,7779,-738,511,-460,625
1849,-3612,6291,-7376,-843,1358,1322
1850,5470,2398,-5108,1571,497,-765
1851,-1706,-765,-5091,-1348,-408,314
1852,5550,-4852,638,-1169,-979,-1593
1853,-3871,4052,4380,92,1582,-505
1854,4288,5477,5173,-24,-1453,1263
1855,-2156,-5847,1530,938,-1802,923
1856,4769,1164,7081,691,1694,805
1857,250,-2733,3852,46,-1243,-1628
1858,505,2835,-4098,730,-511,-1330
1859,-6850,-3898,-4209,371,-1136,1984
1860,-3016,-5571,6113,1437,-1526,-735
1861,-938,-7675,5034,1627,-299,-759
1862,7470,-6345,-2720,1436,-1132,1026
1863,-3703,2648,-1153,-1955,-826,-1432
1864,6745,-955,7482,1919,1434,-1100
1865,5310,-1864,6770,1897,-624,1220
1866,5553,-4411,6240,-1630,1583,1068
1867,2936,-414,5488,-1481,473,-243
1868,4385,-631,-3356,1098,-1931,-1662
1869,7359,462,-7412,-779,-231,898
1870,-3518,-3585,5457,-279,-1681,1601
1871,2834,6636,-2251,-1532,457,1296
1872,5029,2827,1557,-383,1074,1788
1873,-502,3060,-6641,-190,1196,-563
1874,322,-773,-2835,-1961,1544,-1595
1875,-1967,4281,-7264,1204,1666,-848
1876,5605,6317,7751,-514,-796,-1801
1877,2985,3984,-2460,-1914,1083,-1075
1878,1726,2807,-5451,242,768,1844
1879,7707,-403,-4003,-1695,-1268,1137
1880,-112,502,957,1947,1726,422
1881,-1393,-2040,-4212,1623,-641,-721
1882,5490,1229,5634,1241,-1783,-493
1883,7460,-2960,-7805,1297,-1480,-1738
1884,552,-4976,-3939,1268,-1350,448
1885,-4064,306,7712,448,-1730,-1426
1886,7809,-5852,4119,-1091,-393,-1390
1887,1373,903,-471,-1628,1926,-1389
1888,1504,2178,7270,-949,148,1892
1889,-7553,1852,-425,377,-1736,-447
1890,-6614,2080,-4799,817,782,1312
1891,-1885,6610,1001,-262,-18,414
1892,-466,4720,-5382,-343,1581,-109
1893,-2242,-4247,7348,86,-1417,1110
1894,6636,-2631,-4380,-123,473,1170
1895,173,596,-3578,1214,-3,-1431
1896,-831,-7520,2291,1524,-1981,648
1897,7305,7047,-635,-1598,-314,-1182
1898,-7331,3800,-6511,501,1143,226
1899,3578,437,2662,1748,-878,941
1900,-4700,-2570,-4062,-1761,181,-341
1901,6418,-607,-3859,-1663,-1373,-1960
1902,-5929,2714,-5406,-1921,-1745,1290
1903,-831,4647,95,-395,-1031,-1754
1904,696,5840,2674,1912,-1369,-1092
1905,7209,7893,-2943,1664,829,846
1906,-5020,-2006,6856,-478,-680,111
1907,-6520,-4177,2031,1247,1068,-167
1908,349,2294,3428,646,-527,-555
1909,688,7108,4211,1099,96,-1281
1910,-5931,6109,4035,-882,1855,-147
1911,-6474,2364,-7451,-1996,-1544,-661
1912,-2422,5671,4253,-563,1066,1717
1913,-3347,7585,7537,-837,-295,419
1914,2364,-483,5753,489,-117,1869
1915,1773,5709,-1933,806,623,1711
1916,-3403,-5258,-4957,71,1099,1805
1917,-5651,-5758,-6459,1832,-404,-1480
1918,4880,-4442,7144,-393,-9,11
1919,-1113,7116,7558,-1869,37,-1079
1920,4986,-1736,-1311,-4,404,1482
1921,5750,6036,-5935,755,-159,1854
1922,-3393,2006,4105,-356,1897,461
1923,5817,-729,-1932,1734,1307,-732
1924,3510,1126,-7170,703,1312,468
1925,7349,2037,-3182,274,361,-970
1926,4399,-106,1022,-1872,-1252,1480
1927,-2626,-4395,4574,-16,1359,-1135
1928,-5304,575,-515,633,-1083,871
1929,5677,-3823,2995,-924,-91,-1419
1930,4563,-6783,7904,-410,-1647,-641
1931,-2505,3198,-4568,-1107,-1414,1777
1932,-7193,-6894,-7108,209,-563,-1204
1933,-121,4615,-1236,-1166,-1560,574
1934,-2274,4513,3467,410,603,-896
1935,1398,1788,-2392,526,606,1366
1936,5892,4951,803,-48,-760,-1420
1937,-2774,-4500,-4016,346,840,923
1938,-630,343,-797,-351,-425,1237
1939,-3943,-7710,2429,-1723,1755,216
1940,4881,6469,-1153,-1572,1404,1224
1941,5093,-2330,-7311,897,-688,1506
1942,-7348,-1424,-6849,1614,1062,611
1943,4832,2993,3363,-1822,-986,512
1944,7457,5813,1040,-1609,-937,-869
1945,-3462,-2594,5815,1746,503,1129
1946,4070,690,1306,1620,681,-1348
1947,-650,2653,-6439,820,1339,44
1948,-2323,359,-5816,962,788,796
1949,667,-1924,-6355,-1072,1627,-1713
1950,-2161,-5832,-5332,-1152,1210,623
1951,857,5452,-6763,599,119,1331
1952,-227,6524,7572,1396,712,-717
1953,-5790,-113,7678,-956,-545,1321
1954,5033,-3148,-6777,-148,968,-1279
1955,1324,-5476,-3378,1103,-1168,-604
1956,-451,440,-285,585,1871,-1915
1957,5777,2001,2592,-895,-788,-1534
1958,-2086,-1320,2816,-93,340,-355
1959,298,5015,5967,1311,-869,-1605
1960,388,-4883,5181,-442,1078,1016
1961,3881,3671,-1699,1298,-1657,1027
1962,4608,6211,1491,-1694,1077,-451
1963,-7677,2709,-1839,-507,1701,-1259
1964,4704,-3096,-2368,-610,-176,-1806
1965,-5113,-6249,-5183,439,1414,1645
1966,2118,-4046,-4168,-1777,1372,-868
1967,2507,5423,7313,-1117,361,-1221
1968,3773,-1154,4090,-646,522,1347
1969,-3322,-3191,-2710,-1174,457,-173
1970,4310,-3212,-7190,-804,531,1357
1971,2847,-4780,7346,710,-914,1127
1972,629,291,5267,-768,1559,-1528
1973,5320,-1992,2693,1893,887,608
1974,-4438,-5027,-1684,1162,408,-1300
1975,7124,-2817,859,-1514,955,-1740
1976,-1425,2929,-1598,-111,-460,-300
1977,-5882,3504,84,1550,273,-1524
1978,-3518,4983,6516,733,1857,-930
1979,-1157,7721,5302,-742,887,1960
1980,-6728,6030,-3069,-621,1270,-413
1981,-5793,818,5047,-381,1461,227
1982,1460,6219,-442,-1720,464,-1639
1983,-5267,-4659,4557,1517,250,1461
1984,-2936,1452,-296,-1644,1964,1763
1985,3197,6854,1501,-1581,-1197,1839
1986,-1416,-1358,-2390,46,1642,1135
1987,3051,5524,7653,1588,1965,-1400
1988,-4000,-6089,-1908,-1273,-601,1142
1989,-4758,-6396,-5628,1113,1067,-1619
1990,556,3589,-6756,1838,-1239,1121
1991,-5139,1447,-377,-1933,-58,-1065
1992,5410,-183,-6755,1100,-996,286
1993,713,5381,4698,-703,1303,365
1994,4342,6864,-1850,-1022,1829,1935
1995,-2551,6636,619,-574,1251,1848
1996,4420,-3516,4796,1551,-1812,-1767
1997,-3330,2783,-3684,962,-1307,-303
1998,-6031,3581,202,0,-1912,-1679
1999,1405,-3765,3197,-1054,1314,1375
2000,-7739,-2974,-2568,-705,-1319,-1043
2001,7586,-4015,6571,133,1418,1886
2002,5870,-1566,-4217,187,-1027,1913
2003,-1796,-1159,3455,-1219,351,-382
2004,-1725,2651,5137,1474,72,-1588
2005,-3801,-386,1026,-1084,-1318,-38
2006,-2462,7155,-5692,-137,-1252,-1514
2007,-660,-533,-47,1456,-196,848
2008,-560,4862,3219,1923,952,872
2009,2209,-3661,-2638,-819,-1773,105
2010,7207,5178,6540,34,1326,-1318
2011,-3533,1177,4936,749,371,1973
2012,-1558,-4066,957,-65,583,-1985
2013,5284,-2476,3474,915,-1755,-1238
2014,4565,-1537,7631,601,1816,-1977
2015,-830,4814,-5074,-1473,-547,-651
2016,-6075,1442,-1195,384,1286,1152
2017,226,-5923,1031,1573,-658,1416
2018,1479,2469,-6681,1014,640,913
2019,4681,-1066,1685,-354,1272,1197
2020,-4514,-160,6434,-1637,-372,-663
2021,-3485,-4968,3261,-106,617,-1754
2022,-3075,-3472,-4411,1742,940,955
2023,6806,3051,-4396,1994,-1222,1486
2024,-2203,7594,-7640,-1189,1528,77
2025,-1119,2964,-5223,-1171,685,437
2026,5178,-7398,879,-1256,-942,-863
2027,6547,2012,3573,1076,-713,-1305
2028,6211,-2724,1758,-748,1631,-77
2029,-6786,4293,4223,30,632,-700
2030,3376,-1016,-6136,-1460,-735,-1868
2031,222,-3484,-7775,-334,1784,-156
2032,5742,124,-6749,482,-1163,-456
2033,-1714,5271,-4478,-22,791,-61
2034,2838,4147,-7269,-532,-476,-255
2035,-4830,2158,2858,-1318,337,1583
2036,-12,-3858,2553,1792,418,-597
2037,-5915,2782,-1520,184,1667,-175
2038,-2488,4705,6318,-376,-643,376
2039,-4233,-3570,2535,-1422,1455,-1607
2040,-1585,1261,7093,-418,-1720,790
2041,773,7982,-2478,-228,-1088,-590
2042,7714,5636,-4663,-8,945,-161
2043,-328,6441,2486,219,763,1396
2044,-4778,5069,2638,1006,-1028,683
2045,2426,2147,-7446,-335,-1866,-1201
2046,-4594,-6737,232,-73,1194,-235
2047,-3614,4259,7202,-736,1302,-387
2048,4326,-6559,-7483,370,-1704,1379
2049,-6066,-121,5760,1827,-766,1038
2050,943,-3856,-6690,-415,1614,725
2051,4398,7212,279,-947,1149,1667
2052,-3555,-4139,-5935,698,462,-1230
2053,1269,4958,-5714,-751,-1167,-520
2054,-4264,-5453,1052,511,-1336,577
2055,7989,-821,-7901,34,-1874,1070
2056,824,5124,-6700,-1084,-1118,355
2057,-2934,-2197,-5457,-1673,29,-807
2058,-6062,77,70,1364,-913,-1293
2059,-6749,6906,7056,1700,1658,-61
2060,2213,-6730,6386,-202,-1926,-487
2061,3523,-2874,-3494,-895,-1415,383
2062,-5676,7774,-4128,-1002,-1653,1085
2063,-6987,479,6965,-724,1910,-659
2064,-6894,4774,4320,-929,1286,1538
2065,4900,5156,3140,-920,-586,-1944
2066,-2136,-7057,-4949,101,1846,-1962
2067,-6613,-7405,6667,884,-57,1160
2068,-5936,-2371,893,-1098,-304,1652
2069,-7522,6329,2659,216,-627,-198
2070,6543,7177,137,-84,-256,182
2071,7808,-592,5420,-1346,-1866,901
2072,-3149,-898,1576,1496,1576,1523
2073,2179,-4544,-2377,182,1503,1713
2074,-383,2590,-6358,1674,-1124,-1794
2075,6303,-4297,-2070,572,-340,859
2076,3260,6885,2644,1721,1032,1477
2077,-6208,-5660,4462,-1538,-358,1787
2078,1083,2488,-1759,691,628,-1465
2079,-1520,1800,-3239,-1031,-475,-390
2080,-2710,-6823,-6579,468,1758,855
2081,3517,-3694,1834,1329,974,-588
2082,-3218,5664,-4195,-233,-1635,-1491
2083,-1202,1305,-2831,-829,1288,-1757
2084,-7913,-3626,-1644,1611,1977,-52
2085,-1425,-3336,513,-1413,1704,-1400
2086,5781,977,4994,1754,983,576
2087,-4434,5007,4065,-1438,-470,1472
2088,-5848,-4993,-1921,-1502,876,967
2089,-365,-7519,-3164,1529,-302,-466
2090,-6247,-7845,-4719,1206,-484,-1481
2091,3686,-7623,-4658,-1145,-909,857
2092,3370,160,-6537,1329,-1510,-515
2093,-2775,-6179,3008,-1556,-1619,-1284
2094,-7291,-3983,2859,-1015,-231,721
2095,-7330,-5465,6191,1184,1459,-376
2096,-1751,870,-2494,693,1994,-6
2097,-1365,5480,-2900,674,74,-1507
2098,6649,3258,-7132,339,1608,-696
2099,1765,-1297,-2116,-203,-1705,1102
2100,2526,-266,-6100,358,1597,-45
2101,1343,-7088,7377,-1180,-1091,-1240
2102,-4531,6684,2924,-1663,305,1934
2103,-5118,-2891,7030,-279,886,-1886
2104,5609,-1675,-394,216,660,-703
2105,-6764,-6522,2196,-474,-465,-1934
2106,-6887,1032,-5192,-1607,1846,-1332
2107,-7497,-3375,-1857,-983,-1766,-1731
2108,-7883,-5031,7918,-149,15,1510
2109,-5575,6219,7902,1336,-965,-611
2110,3392,-3978,-7502,585,-1609,1741
2111,2527,3494,-6727,1462,-1416,-100
2112,-5642,-4880,4041,1138,-912,-678
2113,2096,-5864,410,-837,375,-183
2114,1012,-7631,-4485,-421,640,796
2115,3693,-7242,-5304,-500,-615,955
2116,2306,1890,-1239,282,-188,-840
2117,2902,-3711,5992,-1245,688,-1726
2118,-4024,-7129,-7642,-60,564,-340
2119,2868,-27,-2688,1394,-865,1175
2120,6177,901,-327,-1004,1729,1988
2121,2773,-7991,-5556,-280,-695,1747
2122,-7533,-6109,16,666,1893,-424
2123,-1461,-3822,5987,-1900,-951,131
2124,-5564,-2224,-4231,959,1773,-942
2125,-828,5528,2357,282,-150,-272
2126,-1707,3033,251,357,1560,-30
2127,-1307,-4224,-2029,-1315,-1249,986
2128,-4085,7397,437,-395,-937,-1283
2129,2156,-1221,2463,260,666,1822
2130,-4439,-2724,4887,81,-1749,-1500
2131,2923,-5519,2135,383,1422,141
2132,-1195,4290,-6010,63,-598,-1546
2133,894,-2574,4957,1081,-1968,-44
2134,5009,-1466,-10,-1532,1890,-989
2135,2621,4937,-2434,-1802,-192,-73
2136,765,6781,-2799,-601,-767,-1581
2137,-3734,7454,-604,1979,21,939
2138,1535,3422,5231,-552,-1527,984
2139,5088,-7658,705,-88,-1301,715
2140,-7794,505,1388,-1002,-995,1574
2141,-3531,1189,-2702,410,-1857,846
2142,-1029,827,-598,-556,-1325,104
2143,4842,-7302,-2697,-987,1874,277
2144,2405,-7203,-7261,-1097,1253,-1833
2145,2012,23,794,-479,1969,-425
2146,-6365,6231,-2725,344,-1257,-233
2147,5380,-6533,3459,-1167,1710,-1532
2148,5470,7637,-3869,48,-1641,1871
2149,-3340,1265,-4574,-413,-383,-238
2150,3089,6769,7937,1621,-1709,-991
2151,-6282,-164,1679,1319,-420,1192
2152,-2415,-3301,6901,-1019,148,41
2153,-2966,-4687,-7934,-1483,-1810,-707
2154,1760,7522,-5042,1489,-645,142
2155,-6874,4097,3398,-1345,1630,30
2156,389,-6400,-3496,1929,444,-320
2157,355,-4223,6153,-1882,225,-605
2158,-254,-79,2591,-152,-1087,805
2159,-860,1297,-3828,-1631,-1308,742
2160,640,1145,7776,1639,353,-1209
2161,-7862,-6255,5600,1845,-1213,-1289
2162,866,-5291,-5166,1387,-1740,690
2163,4212,-1550,-5162,-1491,-285,-1160
2164,-3368,5444,4400,-1246,-526,-721
2165,6381,2890,-5362,757,1620,839
2166,5508,-2025,3689,-1439,223,1673
2167,-1278,5615,5123,1098,1830,846
2168,-6131,3912,7016,-1664,1794,1049
2169,-3585,6930,6571,320,-905,549
2170,4716,-5288,-5990,593,-199,-861
2171,-2724,-5922,-4375,-1518,614,-1692
2172,2389,-2663,6177,-392,-1827,1825
2173,-7512,236,2007,1218,422,-1827
2174,-4328,1752,-4336,1181,-87,1710
2175,7565,-5419,5398,-1095,-964,-1645
2176,-567,4662,-271,-1621,-944,-1413
2177,-5647,2699,-7980,1851,1113,1513
2178,-1620,6841,-6668,-375,-235,-934
2179,-5547,-5735,4732,-18,220,-71
2180,7617,3071,-7672,-572,312,-38
2181,-396,-3251,409,-663,-1848,1840
2182,-1650,6940,3442,1603,-26,1868
2183,7456,-5644,3474,84,-1214,996
2184,6723,-96,-6783,-1160,1732,185
2185,5772,6107,-3059,-754,138,510
2186,14,3898,7888,474,-764,132
2187,3904,-810,-1997,673,-1051,-822
2188,892,6483,5728,289,542,1038
2189,2009,-2055,-985,-63,1953,-1656
2190,967,5047,6173,-893,-934,-1056
2191,-4193,4499,-3526,1743,265,-429
2192,6873,-3122,-6237,-293,-413,-490
2193,-3237,-328,-4603,1804,-976,-1867
2194,4231,3032,-6940,-1441,567,1110
2195,-5275,5975,4827,-793,1249,168
2196,721,-7961,5416,-161,1684,-1206
2197,-6067,5739,-5785,-1208,-9,1237
2198,4819,-657,924,-1987,-349,1519
2199,7064,-6998,-194,-1625,1806,-1547
2200,660,-7202,-1763,-1863,1590,1307
2201,-1574,-1188,-224,-378,-1736,1563
2202,7891,2076,3116,-1849,-120,-605
2203,1099,-2850,-4326,1837,912,-1982
2204,-3860,-7388,1490,-1985,-1376,-628
2205,-2521,-2026,-1797,-959,-578,-232
2206,-2084,773,4449,1832,-380,-818
2207,-674,-3706,5309,75,-312,962
2208,2603,-6786,-7080,564,-1221,327
2209,-4328,5201,1677,1311,473,488
2210,-5005,2045,-7911,-1729,-1228,-199
2211,-4628,393,926,-1149,-611,676
2212,6715,-3185,-7460,1773,-1806,-311
2213,-5066,3687,4353,-1506,198,-1363
2214,5523,-4417,2723,1118,1295,681
2215,1043,5714,-4978,-1734,282,1596
2216,6718,7892,-2113,706,-1128,173
2217,6718,2590,2,-1471,-1754,69
2218,-4699,-1752,2321,-948,601,-1512
2219,5646,-5448,2582,-1414,490,-575
2220,6590,7767,3921,1837,-938,-39
2221,-5060,-2209,-4635,-488,-565,-293
2222,960,2906,521,791,547,1813
2223,-578,-1872,-3191,-1863,1344,1080
2224,-5925,-6441,6336,-364,1136,-987
2225,-6956,752,520,-175,105,501
2226,5047,7378,-1383,1584,-1693,1169
2227,7062,-2436,7840,751,62,1615
2228,3472,-5361,-6376,153,-1218,-614
2229,3548,-2156,543,1633,-1521,-230
2230,2268,-5970,415,1550,1836,65
2231,-4166,-3071,-7677,-26,1774,-1852
2232,-6965,5803,-322,168,-603,-604
2233,-3376,1478,1080,-243,-185,82
2234,-1297,-6653,-6321,1340,1782,28
2235,2980,-6953,-7702,-590,-430,-1261
2236,1382,3667,-4480,-354,1157,-1962
2237,3103,5235,5661,1695,-1392,652
2238,-4779,-316,419,1835,-1412,1652
2239,-277,-7214,3544,-554,1811,1552
2240,3480,-6333,-592,1299,1766,-1070
2241,-3785,4761,5575,-300,388,-822
2242,-2580,-2313,6473,795,592,-1336
2243,-6958,2164,-2193,-358,1677,-510
2244,7487,-3247,799,-376,-1717,959
2245,7216,-1181,-5317,15,1381,-235
2246,7133,6173,-322,1945,-1620,1858
2247,-6016,1566,-3703,856,-1793,988
2248,-5251,1644,3458,1603,-1272,1196
2249,2683,-980,-5297,812,-941,1747
2250,-422,3597,-7312,-884,-1522,-1307
2251,4252,-1152,6931,1213,578,-1030
2252,-904,10,3789,533,969,-1654
2253,3539,3307,-1941,-494,1304,-740
2254,4939,-1621,-5670,-1698,1519,1474
2255,3386,-7631,4065,-1017,-851,-345
2256,2221,3867,-3161,-1336,193,1024
2257,895,1764,4167,-379,1070,1776
2258,-3422,2356,-2872,-409,-1026,773
2259,587,-4719,-3777,-647,716,-1189
2260,-3501,-6726,-503,1121,-33,1398
2261,-4118,4695,-6464,-1928,875,255
2262,-123,6427,-2359,1816,-663,-383
2263,-7791,6799,-6070,1054,383,-964
2264,-7651,6634,-3860,-1888,-72,-1397
2265,-664,-740,-6979,1841,-1340,605
2266,6763,2946,-3146,1745,-1123,727
2267,-2928,-669,-3116,1448,1325,210
2268,1946,-3365,4235,570,-1792,-1969
2269,6970,-3339,663,-902,-658,1241
2270,954,-1344,-7399,-1694,419,636
2271,993,-5774,770,-1196,-1512,-850
2272,-1235,5221,-6726,-1081,-1431,-691
2273,-3248,-3860,916,-1572,527,-40
2274,-7467,3054,2560,184,-1374,-1835
2275,-6008,-3819,3070,-478,686,-1952
2276,7369,-429,-775,1642,1317,1916
2277,-5750,-3646,-132,-265,1926,-1677
2278,-7678,1479,-6926,-1214,1091,-1342
2279,3567,-6504,-4123,-1113,1704,-596
2280,-4367,-4399,-5352,982,650,382
2281,6397,4335,12,512,-1813,663
2282,7187,-6496,-5213,-538,-31,884
2283,7076,-3338,-5325,490,768,1217
2284,-121,4269,-3174,-1364,329,-1617
2285,-4248,2888,2485,-230,894,-1924
2286,-1897,7273,-3213,-1148,-304,1797
2287,2014,2245,-4669,-1648,1296,422
2288,6594,-18,6477,-1296,804,-181
2289,1501,-246,7687,-1469,1280,-565
2290,991,2474,-6995,1025,1647,1501
2291,3863,-5717,-5833,-1922,868,-326
2292,3960,5130,-3787,497,207,-1653
2293,3834,-7538,7426,144,484,-1544
2294,5734,698,3436,1050,-1787,188
2295,-7198,706,5415,-59,194,310
2296,6485,-5162,-3106,-981,-561,295
2297,4568,-2075,-32,1646,-648,-1264
2298,1634,-2700,-42,-475,-1043,-427
2299,-2324,-5169,-1227,-17,1325,-297
2300,-2789,-5121,6911,-893,1194,1761
2301,-328,-4947,-5161,-1735,1400,-767
2302,1132,-1246,-3834,-1178,-719,-1797
2303,5343,-2458,3601,-1406,1703,-370
2304,-667,-4320,-6137,-1346,574,-745
2305,5341,7162,5868,-170,13,694
2306,-1616,-6360,936,77,387,1386
2307,-4898,-1483,3165,-1069,-1831,599
2308,7455,-15,-2209,995,-213,-198
2309,5944,-5213,5885,-373,-410,-1277
2310,2745,816,4019,-1514,-1610,1232
2311,-6430,-2867,-151,-623,-331,879
2312,-1666,6544,-2640,1488,-1051,1619
2313,-6761,-6523,673,1890,-737,1991
2314,-1230,2887,5565,-1587,783,-598
2315,-7455,-2579,-6236,-1977,-1296,-992
2316,7149,-4061,-5469,1024,451,1251
2317,-2718,2108,4053,1702,-1836,499
2318,-579,-5322,-2315,-796,-1897,566
2319,3371,4002,7545,281,1381,1177
2320,-57,-3068,-1290,1326,1845,-219
2321,6341,3570,-4034,439,1167,-493
2322,1424,3700,-4520,-106,196,-1897
2323,6076,633,2081,-1449,-147,-1191
2324,-1087,2042,-3367,-674,-273,1854
2325,-6484,5362,-5941,-1556,454,-1606
2326,3536,6742,1525,1158,1666,-213
2327,6049,4038,-7059,-1783,1189,703
2328,-1346,-1628,2909,1781,1700,-1841
2329,-3144,-7600,4107,1089,-1774,712
2330,-7957,2561,5526,-1329,618,-1372
2331,7417,4510,6046,1549,-293,-1781
2332,-3488,6737,5818,-290,-1866,1457
2333,3996,-727,5465,-1275,212,1848
2334,7816,4425,-3943,-112,239,1691
2335,7231,-4239,2348,-926,-864,1658
2336,-3089,1427,6923,1019,-1721,-1288
2337,6290,-2830,7745,1517,-528,-1549
2338,4235,6426,2290,-1924,215,-1145
2339,-2389,-7529,-2047,-1089,-528,-598
2340,785,1766,983,1032,-234,-864
2341,-3000,-3650,7243,1975,320,-1333
2342,6145,-5496,-6281,489,1243,411
2343,-6455,-538,1433,-592,620,590
2344,-810,5332,1159,-1707,-986,-1753
2345,5559,-2692,2079,710,1563,1149
2346,-4528,-3765,-3610,1741,-1007,-1580
2347,7447,3075,-1309,985,-1942,1157
2348,-4147,5382,1279,617,697,722
2349,-261,-1586,84,601,54,332
2350,-4105,6206,3067,612,1432,1205
2351,-2411,-7700,-3626,-1689,-764,-1492
2352,-7547,-5755,653,1278,-1478,389
2353,-3947,-4880,1434,-1894,1493,-1231
2354,-1345,5575,5769,1555,1822,-1195
2355,-2532,-3231,-2992,875,1572,1964
2356,5927,3698,4175,1046,1313,585
2357,-6784,686,-1545,-1914,615,-1925
2358,-5552,4653,-7617,-671,-523,1705
2359,6139,4675,4153,1436,-235,-375
2360,-528,-5659,-7410,-1231,-152,819
2361,2050,244,6647,-1498,1379,-1558
2362,2488,-2507,-7737,1507,-495,151
2363,1392,1387,2594,-1493,1,1781
2364,-332,-549,-4657,-791,-1683,-1744
2365,-5802,1766,5735,144,1376,-1056
2366,2244,-5030,-4318,-1481,955,917
2367,7112,7774,-1412,348,-1263,580
2368,-1813,-3566,-3780,-885,1271,-989
2369,1267,7731,-3286,1444,-436,-72
2370,2995,-4707,6226,-907,-1377,-1563
2371,3134,-1039,1832,1832,755,-1503
2372,7662,5395,853,183,-1439,-956
2373,-2758,1537,-7051,358,1616,-1181
2374,660,1211,-4945,580,1992,1310
2375,6374,5249,-6541,-1232,1941,-1159
2376,1835,-6858,5910,823,808,314
2377,-294,6447,7981,-1181,980,1138
2378,4190,-6385,-3246,745,-717,1291
2379,3591,-1171,-4647,234,-111,-1048
2380,3717,5886,6936,-665,1429,1995
2381,-7047,104,1170,7,-810,-1552
2382,5192,-4141,2599,-1426,45,-874
2383,4082,7264,7875,-569,1895,-306
2384,-4453,2474,-4018,1756,-1788,1242
2385,-5701,2470,2707,-157,-1373,867
2386,5078,-2731,2419,-1461,-627,-1772
2387,4022,941,5647,1878,423,748
2388,-3949,3345,7278,1528,-374,-914
2389,-7422,67,-247,1420,576,-1839
2390,-6826,6274,4480,325,-97,1484
2391,-3049,-5343,5834,546,235,-644
2392,-7190,5185,6624,813,1774,-609
2393,-3948,4622,-5317,-326,-105,-1997
2394,5255,-1342,-2978,72,-1593,1435
2395,-1749,2631,6481,-553,-241,1850
2396,6638,-3040,6110,-157,439,1564
2397,-4349,-2204,-6620,-1181,448,-819
2398,-7240,-3589,-5250,1629,-502,-125
2399,1438,-4536,3030,-1972,-1809,1752
2400,-1076,-340,-4678,1007,1426,1187
2401,2669,1204,4376,1972,1748,94
2402,7341,-1019,4487,770,1590,802
2403,-4535,-2253,-305,1622,-1927,-1230
2404,-3476,-3333,-4379,73,-1509,489
2405,-7238,277,-2308,232,-67,-1570
2406,3596,-2113,-2065,-725,-1905,-1572
2407,-291,6824,-2021,-1370,-802,805
2408,1928,6463,-747,929,-1325,-3
2409,4359,-6679,-79,-1063,1445,1150
2410,2242,1062,2292,-597,-846,633
2411,-7935,-5460,-6146,-137,-958,1110
2412,5003,5877,6829,-146,1571,-1612
2413,-2731,7321,-2338,-939,-705,1842
2414,-5704,-5669,-6640,1280,-514,-1483
2415,-2371,-7936,-3529,-548,-366,1958
2416,1808,4287,-6548,-1912,816,-411
2417,955,-5794,-4186,1238,1074,507
2418,-818,1682,3235,292,-1662,39
2419,7053,-2176,-1706,-765,1039,-1377
2420,-5769,-7070,-4053,1479,-873,-582
2421,-1277,-3750,-6905,1482,-1758,513
2422,5526,1931,-6095,-489,-474,-1572
2423,-7093,-2011,-5794,601,-1562,-1447
2424,5947,4343,5666,986,-1745,-663
2425,4194,-7183,2890,447,-450,1819
2426,4641,-3681,3293,-1302,712,-39
2427,2835,6361,-364,1914,-1963,-1929
2428,-392,6571,-7584,-1282,-1586,1840
2429,-5682,-7737,6601,1595,-1087,1389
2430,-2486,1606,5392,-1469,1754,1453
2431,3425,6453,-6011,150,-1662,1710
2432,-7557,-4020,-1455,-1764,1880,-1751
2433,398,7392,-5555,-640,-211,1274
2434,1002,-3698,-863,-1511,-624,-629
2435,5183,5095,-2853,103,1213,-1994
2436,2646,531,-6820,-1862,-1460,209
2437,7988,-2077,4578,239,-332,727
2438,-407,2116,6374,-211,65,1751
2439,-3616,1316,7821,1466,-1083,-303
2440,1234,4472,-4741,377,-1632,-1643
2441,-1718,-3468,33,-243,1360,-1053
2442,-2793,-4019,1456,-1322,-1416,976
2443,-5162,4440,-2040,-58,-1742,-1035
2444,5503,335,-7146,300,-1156,998
2445,-42,-765,-3060,615,-617,-150
2446,-4012,-2157,-2351,341,1305,-597
2447,7084,6669,684,-1227,-454,-1375
2448,2111,-4142,-6600,-1275,1712,152
2449,5470,-6169,-5537,-491,371,-858
2450,-4040,-7814,824,956,-140,1027
2451,-7118,1238,-1295,818,-580,1646
2452,7862,-7717,-5019,309,946,924
2453,-2160,2978,5183,-476,-755,1720
2454,-6117,-3432,-5218,1405,435,-195
2455,2768,-3808,-7152,-48,1620,1174
2456,5973,-6029,-4992,-1534,-1954,1649
2457,763,-5030,4402,-986,744,-1511
2458,1459,-6037,-2035,-1491,737,1890
2459,3427,1110,-2975,107,1888,444
2460,-5325,7095,-860,1143,300,-187
2461,3854,5855,-4803,-719,-1146,-1390
2462,-7180,-6945,-6925,-318,-1800,428
2463,3283,-2722,-2307,1719,1028,469
2464,1486,-2957,3475,1872,999,-923
2465,7534,-7029,-6055,-152,1606,744
2466,-739,3453,-7857,-1580,-1569,73
2467,5599,-4100,-6723,326,-1655,-771
2468,3137,7693,5366,1444,-1117,-659
2469,5022,-5295,-2195,-721,-935,-1773
2470,-52,-2348,2346,-1647,-1681,939
2471,781,-2670,5596,962,-310,-1460
2472,2777,7455,2094,-821,-303,580
2473,833,-2913,-6464,137,734,-1832
2474,1108,-3283,-891,508,599,339
2475,-7231,4071,1201,169,-1965,-62
2476,-3983,845,-6423,1442,1845,1294
2477,-4832,-1014,2808,1474,1465,638
2478,1543,-706,7891,212,1878,-300
2479,-4823,1327,2911,-908,-1712,1463
2480,2098,-6818,-7324,-1683,-1931,-1855
2481,4911,3878,-5747,-1723,576,1354
2482,-837,4375,6795,691,1624,1394
2483,-7204,-4044,1969,915,450,-448
2484,5510,2840,1695,55,-1656,-252
2485,3334,2333,1166,232,1869,-1069
2486,-3897,-3024,7038,1561,896,-228
2487,7078,3712,-3986,1092,274,1616
2488,371,-2267,7364,1559,901,-465
2489,-2258,-3869,-3500,1365,-988,812
2490,-4067,3273,-7734,-968,948,-878
2491,7991,-5484,-7549,-165,-912,-393
2492,1227,4139,7411,-227,28,-709
2493,-1274,5080,2451,1017,856,-1116
2494,-4197,6249,5540,-15,-691,-361
2495,-6929,-4422,-6273,835,615,388
2496,-5908,5078,5149,-314,560,-1856
2497,7653,7016,3040,-1762,576,-455
2498,1331,2305,-3953,655,-1118,468
2499,-734,980,5717,213,34,-228
2500,-6046,218,-2302,-1033,1106,-881
2501,502,-4330,2374,689,-1184,-722
2502,4394,4367,-670,-632,-553,-520
2503,-1914,3587,6831,-1418,1812,-620
2504,6919,1726,-3364,980,908,1666
2505,-2975,4794,3724,-377,-1347,-1374
2506,-4116,6722,-7346,-1626,637,433
2507,-3030,-3893,5946,-731,174,-683
2508,851,-7223,3059,148,1312,620
2509,3199,-2639,2208,477,1454,-880
2510,-6468,6840,-179,1815,230,-1017
2511,-147,4916,2532,1502,-1914,-1134
2512,3592,-5420,-2825,-1300,-207,1248
2513,3918,-1117,7730,-1033,-1892,-775
2514,-2180,-1577,-5620,61,1972,-722
2515,-6073,-4171,-5438,-1156,-572,1248
2516,-4266,-1418,-7239,-1546,-1734,-1766
2517,-3739,-587,5245,-657,-1901,-16
2518,-5446,6517,-6010,571,1893,-1960
2519,-6012,6162,-1916,-1802,-94,-486
2520,1745,997,-3343,-27,-1503,1852
2521,-4742,6156,2366,-1149,-1931,1537
2522,6994,3442,6675,592,-99,96
2523,-3723,4808,-568,1777,-378,-1778
2524,-1301,800,1491,949,-699,-1878
2525,6415,-4122,-672,1455,-421,1401
2526,6114,631,350,-354,1175,-641
2527,-1709,-6942,-2112,688,1731,603
2528,3179,-7694,-6238,-157,291,-1647
2529,1003,-2163,2525,1196,704,-898
2530,-1853,6317,-6026,-1576,-1713,661
2531,6362,-975,-2925,-671,1945,-78
2532,-601,5561,7094,122,1582,1075
2533,1575,2767,2887,-283,-561,-206
2534,1568,-2313,-4303,-1206,635,66
2535,-7228,-2883,-1737,607,-1844,-1653
2536,6821,-5161,-282,-82,201,1298
2537,4354,6782,-7008,-568,895,-41
2538,1933,-5907,-1427,1298,1827,-122
2539,-5107,4264,4348,1832,-565,-662
2540,-2726,1911,-4061,-1037,1699,-1253
2541,3667,6114,4093,960,-1404,173
2542,717,-7109,891,-1647,-308,-290
2543,3060,6226,2062,-1802,-1430,1905
2544,-1849,-2923,577,-730,716,-350
2545,1593,4253,-7063,1944,-1839,-1408
2546,-6872,-3102,1739,667,-1308,498
2547,5197,-6925,2677,-1623,-1433,1928
2548,-3230,6510,6972,-1812,-767,1988
2549,-6066,5096,7156,-173,-1619,66
2550,-1804,-3747,4514,-1643,3,1403
2551,3611,-1948,4946,1747,-387,148
2552,3649,3951,-2778,16,-1618,-1464
2553,7450,-348,-1106,1917,1007,488
2554,6025,6456,1289,-1740,1277,363
2555,5479,-2828,4351,-1081,1307,1097
2556,7177,1092,-4178,876,-1629,-17
2557,6008,-6856,-3342,-916,-1964,-1022
2558,6524,-1099,563,-1244,413,247
2559,808,1381,2981,-244,237,122
2560,-6825,6351,-1472,-952,476,-1257
2561,-2876,-6766,985,1257,-381,8
2562,4998,-7314,1767,657,354,617
2563,-4035,7405,-1534,1023,402,-1265
2564,-3073,3230,-260,700,776,1334
2565,5097,-3125,-4258,-1495,1231,-1907
2566,-461,4045,-6575,1960,1471,1574
2567,74,2052,3287,1800,-988,-1598
2568,91,-7738,-2333,-605,495,-1674
2569,5978,6956,3260,5,1745,602
2570,7060,7387,6434,-1060,-1084,-465
2571,6700,7055,-7685,-1227,-814,-395
2572,-7419,-6987,-4958,1134,-1633,-1909
2573,3633,-1014,-3081,-1067,500,-987
2574,-7650,2218,7412,-1870,-1200,898
2575,-5185,-3322,2617,1194,-1689,-1226
2576,4373,-146,-6550,-1567,1643,-358
2577,3081,-4346,3859,-1438,122,-1672
2578,416,2472,-3010,191,501,-1923
2579,-6918,1163,-4133,-1945,-101,897
2580,-6635,-2989,3790,495,1886,-838
2581,2224,-2518,6990,-304,-405,631
2582,-2771,-5870,2643,-620,-788,1196
2583,4208,-5654,-2866,494,-944,-1952
2584,7271,-5551,5726,-1486,-816,886
2585,382,-4073,-1794,-484,990,1584
2586,4193,-2821,-3774,-362,662,-983
2587,-1312,-7406,3438,1381,-1650,117
2588,-463,-4355,-3383,1062,-65,758
2589,-1630,-1333,5146,1732,-865,1808
2590,-1495,-7510,-96,1044,1467,-1667
2591,-4448,-713,-6627,-1351,-547,800
2592,-4379,3375,-1571,250,-220,664
2593,2784,-4223,3437,358,-1239,1714
2594,-3133,-4980,3418,-694,254,-1924
2595,6141,2239,-4100,-134,956,599
2596,-6809,6606,-1587,-1829,-254,-160
2597,-5248,5934,-4333,991,1047,751
2598,889,-5992,-1034,1551,1217,1077
2599,-81,-3344,-3853,372,-269,1433
2600,1765,-4122,-146,9,1504,1515
2601,-6985,2468,-7208,1450,1533,1460
2602,-7818,-3728,5444,1298,-129,1145
2603,-2545,-1744,5832,-1432,-1501,192
2604,-1945,2082,-4442,-1446,-1838,1514
2605,2636,-1981,2055,957,1600,169
2606,-1925,4114,4430,1398,690,-1338
2607,49,-6668,-7948,743,-1793,1446
2608,-5185,-6150,-6372,-1021,-957,-183
2609,-5127,-2164,-1688,-1144,459,-1338
2610,-6972,-6725,3220,-1191,-1157,-516
2611,7411,111,103,-305,-79,1049
2612,4189,-4815,1349,1173,487,1097
2613,4840,-7099,-178,-1567,1887,436
2614,-876,-4217,4034,-1932,1205,1125
2615,7386,2342,4719,1273,293,-1755
2616,4772,-3909,3721,847,63,-1451
2617,-6673,-3745,277,733,1125,664
2618,-2097,4802,3915,735,990,1349
2619,1237,4026,3706,-29,-1865,1883
2620,-6702,-197,4498,-1698,1841,1
2621,-587,-7144,-2094,222,339,1771
2622,4509,-5756,5367,-47,-339,-742
2623,5680,5279,1863,-643,432,1758
2624,-3653,-4269,-5038,-1006,558,-155
2625,326,-3536,3670,-1179,-1623,-1847
2626,7740,7305,7827,488,-566,-238
2627,-6028,6665,-2237,-1007,-73,659
2628,-2272,-5813,310,-665,-29,605
2629,-6091,6259,-7748,-1809,-1433,-690
2630,-5770,-5748,-4468,-636,-578,600
2631,7686,-5085,454,1356,-974,-381
2632,2605,1761,-6487,751,-159,-60
2633,3716,-12,4698,1850,-690,1016
2634,4975,-799,-195,-141,-1216,-1186
2635,-2982,305,5976,-650,510,425
2636,-2688,5497,2455,1253,1921,1526
2637,-275,1793,-6286,1650,1622,-620
2638,-291,-6225,651,-1834,1054,-1576
2639,4325,-261,-5862,1298,-1278,-686
2640,2769,-6875,-2646,307,374,-1325
2641,-5397,-4082,7728,1141,-1947,722
2642,-6459,4772,-1500,-835,243,-491
2643,-5662,3972,1424,217,-209,-1999
2644,2492,6562,-4585,-37,-167,239
2645,-7864,-5748,-3097,415,-1761,-1034
2646,-946,2966,-6578,1024,130,368
2647,-7153,-3116,4779,-600,1443,-643
2648,4925,2735,6403,1247,-435,545
2649,788,7844,1722,1545,-539,-1749
2650,5962,5865,4062,371,1670,-1018
2651,-423,4033,-1615,-982,-1245,257
2652,-1744,5142,-6987,-1411,1423,-5
2653,1020,-6278,-5182,-510,640,1406
2654,-2521,7350,-3214,1835,-346,-951
2655,-1088,-725,3148,-1250,-900,1250
2656,2418,-5367,4859,403,1998,-678
2657,-4621,-596,-492,-1184,-736,-1369
2658,-1603,3223,-7471,1403,253,-436
2659,-7603,7077,-7649,-521,788,-1752
2660,-504,-1778,-3775,1371,-148,1303
2661,-2038,149,3579,1378,-1744,-1981
2662,2501,-2772,-3379,999,-1103,1639
2663,-3606,2006,-1993,1359,-1205,-959
2664,1182,4873,-3218,-1383,-1527,-1953
2665,-5313,-6274,6972,-1461,1884,1872
2666,6486,-7060,-2314,-661,-1412,-1963
2667,136,-2052,-807,1181,-344,-561
2668,-3976,-1828,-262,-546,-957,1360
2669,-5153,1735,562,-446,-891,-353
2670,5461,5824,-1498,-38,1777,213
2671,-1022,-6054,-4806,1823,-1508,-1093
2672,7951,5094,1705,-1698,-1603,-1149
2673,823,7028,-6767,-885,310,-1475
2674,-6336,39,-1496,1943,-1063,1316
2675,2161,-2571,5562,-1778,444,923
2676,-4606,3777,2448,326,403,-1977
2677,-5186,-1998,529,-1471,867,1828
2678,2888,-3971,-4057,1561,-965,1641
2679,2457,6325,4608,-1870,-1350,-1300
2680,4838,1745,-2557,1221,-224,1098
2681,1027,5138,-5475,508,-764,1121
2682,2709,-274,2934,-1959,-889,1448
2683,7739,-6470,-7268,1629,1508,1885
2684,-4399,-1312,-6493,-1325,-1602,-1868
2685,6733,-3435,6559,-721,-233,521
2686,-1594,277,5353,-1345,-1061,-1992
2687,6306,-4853,250,-1286,668,-421
2688,4318,-4463,5337,-1265,-143,1866
2689,-4861,-4397,-5082,-823,-474,894
2690,-4067,-495,-1607,1421,1233,1376
2691,5628,19,7850,-1627,783,1916
2692,-749,2351,4594,-1910,-202,858
2693,-4484,46,-971,1162,-1025,-30
2694,5576,-126,-6499,-1565,920,606
2695,5666,41,5818,-440,-227,1830
2696,-3142,-2116,6062,-1375,-1751,753
2697,-4332,2622,-5777,-587,-326,1314
2698,3919,-4643,-6337,227,1365,-974
2699,-1373,5204,316,-1743,1756,-377
2700,5672,-5955,2265,1782,-756,1232
2701,7459,2208,-2230,1140,1175,-661
2702,5782,-6986,75,1743,1830,-1811
2703,3981,-6746,-2376,-137,-1236,1216
2704,-1834,924,-2835,-1927,-1438,78
2705,6439,5269,6111,-1019,213,1477
2706,-7202,-301,5119,-1479,307,1801
2707,-7100,5207,-2694,-459,1148,1008
2708,1469,3415,413,368,74,468
2709,-2583,-4681,-3109,-1361,-158,-425
2710,-1086,2428,3743,565,145,447
2711,-2280,-6027,-6688,-155,-343,-1155
2712,4351,-6166,2222,-1493,-1635,-1793
2713,1262,7149,1208,1226,892,-109
2714,-1548,2146,-6578,1586,1374,-277
2715,4181,3744,2351,76,-1390,1274
2716,7002,-5822,-6791,-1461,1277,1349
2717,2787,256,3578,-1710,-810,887
2718,-1225,3622,-4231,-725,451,1473
2719,-4422,-3973,-7518,-867,1158,1260
2720,-3843,-1431,5805,1484,-202,1526
2721,6105,1433,5373,-1183,764,1566
2722,-755,4736,1316,1341,604,1825
2723,-1654,-2179,407,1070,-1792,589
2724,5565,1294,-4443,-1409,1641,1487
2725,3908,752,-356,-448,-1794,1945
2726,-4899,5394,4008,1922,1895,937
2727,5477,364,-7477,-1611,-765,1593
2728,-4703,-6582,-3401,-1853,-1856,-458
2729,139,-6386,3720,1485,1699,-699
2730,-3397,5903,-6054,-1609,1073,898
2731,-586,-1537,-4000,434,-1963,-674
2732,3213,-6800,-584,1263,1847,1544
2733,1159,-4196,-2418,-441,554,-1903
2734,-5899,2163,-3076,-450,-1196,1466
2735,-5390,-5226,17,1996,848,-684
2736,5635,-302,7546,-1193,-1974,-255
2737,7884,5130,4512,-1591,-1119,-556
2738,3736,6471,4349,-1990,-1236,650
2739,6065,-3470,-5953,-424,590,-220
2740,7173,7766,368,188,1787,-634
2741,-6427,-1314,-1695,-1739,1350,-1893
2742,3795,1377,6540,-1894,1595,-1616
2743,5140,-5374,2920,137,-636,1809
2744,-2223,5825,5147,1408,1296,816
2745,3623,-2987,2395,77,-1076,1626
2746,-6133,-6612,3634,-908,308,-903
2747,-3509,5622,7705,-43,-1131,1880
2748,418,-1149,3781,-1968,713,1597
2749,3613,2120,-2176,-1184,1962,653
2750,7250,4572,7223,149,-1942,361
2751,-1104,-3427,3103,-1952,-384,-657
2752,-4503,4599,3513,912,-903,1947
2753,2635,-2956,666,305,792,-762
2754,-3620,-731,-7137,1412,1206,-1150
2755,-4910,-2956,2919,1565,67,1317
2756,3648,6197,-4200,-669,-224,-1921
2757,-6582,794,6455,1847,-1275,872
2758,6147,-6717,10,-1544,78,783
2759,-1011,-3271,277,629,198,-522
2760,-43,6821,-6014,20,1340,-509
2761,-5932,1785,-1231,-487,-187,-1358
2762,-1789,-2705,-3065,-323,-717,-645
2763,6295,-5123,476,1492,1471,-661
2764,6480,-6535,-2494,-1442,-614,-854
2765,7663,2953,-7149,-373,-677,1360
2766,5691,-2711,-4388,-1856,1726,1163
2767,5297,415,-4830,1247,-150,-697
2768,-7363,-6754,3685,-253,487,-1555
2769,-2327,4257,-6419,1414,-1450,1545
2770,2189,-4967,-4974,-581,-1070,322
2771,-3502,7383,-116,-1929,-1844,251
2772,6884,-571,5402,-1213,-1092,393
2773,2631,-5518,-3807,1945,62,-213
2774,5007,2117,5966,-1262,-526,745
2775,5198,1653,687,1619,390,-1917
2776,113,-1578,1682,1332,-1722,632
2777,-6040,-3280,2574,233,-94,166
2778,1522,-3249,-2284,299,-1099,-1401
2779,-1242,-7339,-2008,-762,-1619,495
2780,-7656,2645,5816,625,1563,1287
2781,6168,4470,2099,1782,1317,1872
2782,1441,324,-6192,-1507,878,262
2783,869,-1726,-3176,723,370,1664
2784,5965,7469,-7296,1127,932,344
2785,2976,2910,3407,1760,-1437,1001
2786,-4812,4486,-1762,-1114,78,-1171
2787,-892,-7249,21,936,1925,-1040
2788,-1640,1633,3434,73,-427,188
2789,-1423,-6452,-3753,-1806,-934,470
2790,-2215,-6916,-2863,1883,-950,1855
2791,5507,-1449,6555,1233,1305,131
2792,3997,-3784,-7142,-118,-69,-248
2793,-7273,5503,6921,-1796,542,1592
2794,5899,7823,7697,-1879,-1637,-1462
2795,3152,-7462,2402,1454,274,-1775
2796,-6715,1310,212,-1071,-1442,-51
2797,-6016,3435,5225,-544,-36,-40
2798,-7702,3096,5529,-1018,-225,19
2799,3158,1485,-2503,847,-430,-1600
2800,1721,-7672,-5265,-740,205,-948
2801,-5544,-5133,499,75,-885,1751
2802,-2795,-2164,-6887,-1701,1188,56
2803,1352,-659,-6570,970,770,-575
2804,-1422,-2995,-2864,-1779,-1306,-45
2805,3197,-4583,7285,-1082,-364,-460
2806,-1126,2866,-2543,956,1373,779
2807,-744,-4908,3189,-1752,-1456,709
2808,-2793,2214,-4503,1517,-1055,-339
2809,-4128,3308,-7041,-173,918,1622
2810,6874,-1515,7679,1084,-1418,1498
2811,5475,5905,-3512,1281,521,350
2812,537,3918,5394,-1425,-529,-381
2813,-7088,1398,-764,-1942,1921,606
2814,3886,-211,-4939,554,-1905,944
2815,-5584,-6402,-1091,175,-46,-1069
2816,7763,2180,1600,1805,1116,788
2817,3915,-2469,7290,-356,-1127,1877
2818,-5891,-1202,-4720,-796,-957,1668
2819,7882,6867,361,-910,-513,-622
2820,-7281,-526,-4312,1342,850,-1217
2821,-455,1565,7623,899,1926,1664
2822,253,85,1091,1619,-1433,-1193
2823,-2615,-2111,-792,1703,-987,738
2824,-2836,7643,2080,789,1292,-1097
2825,-5271,-3781,-301,-690,-1261,646
2826,6272,4800,-3615,-1329,-1447,1513
2827,1183,6941,-4779,1299,262,215
2828,-6545,2063,7959,39,698,1471
2829,-4172,7087,2243,1746,-546,1062
2830,3094,2294,-1799,471,1185,1665
2831,-1120,-611,-3067,-540,-1858,-1815
2832,1180,-2392,-5916,1390,1612,1010
2833,-2974,-4958,6364,-1840,1729,-1714
2834,-2350,6036,-5247,-1816,1819,1934
2835,-5428,-4177,2001,1876,-29,1901
2836,6471,3987,3647,-1337,1042,1104
2837,455,4704,1636,-361,1765,1035
2838,1560,4907,7840,-876,1360,111
2839,381,-7463,-2208,-555,1867,-1445
2840,-4834,2520,2349,745,329,799
2841,-4219,-4765,1163,-578,-1874,1265
2842,-6320,6206,-3500,854,-23,-680
2843,-4244,2679,7486,803,-1777,977
2844,-7051,2154,-1712,-1976,1873,-257
2845,-2553,-6509,7911,1043,-1117,-1433
2846,-3354,7694,-2324,-1629,-1724,-1715
2847,668,1404,6505,-1461,407,426
2848,4715,-2768,-3408,-950,-323,-1018
2849,-3412,-1733,5120,870,-819,-1522
2850,5134,2606,-931,1717,1324,1194
2851,-1677,-5239,1903,1010,1999,1793
2852,5503,603,1942,255,-103,-7
2853,3272,1081,-7394,688,101,-466
2854,-2237,-243,-2183,869,-569,136
2855,-1671,3363,318,1474,1553,-1051
2856,-3623,-5149,5938,1324,1699,-887
2857,-6727,-2674,-415,1968,1103,1751
2858,-5046,-6033,-6851,-1579,1145,329
2859,-7345,-3219,-1187,-1956,359,1268
2860,-3040,-5610,-7456,892,-1357,-660
2861,-1514,1408,5421,-1450,-494,-815
2862,2064,-2494,-7733,-1136,1580,-631
2863,3437,-1370,-287,314,-1919,-1141
2864,-2252,-4572,-6865,115,-73,-1049
2865,2461,6148,-272,591,-1669,-1387
2866,-7401,-6150,-2847,-620,-1949,-1841
2867,-2967,6639,863,1401,-18,1516
2868,-4531,582,1947,-1781,1580,-1722
2869,3491,-5866,-7523,-1592,-1595,-569
2870,-1951,1019,2305,36,-345,1299
2871,1925,-4226,-4538,134,1721,1804
2872,7233,2111,-3757,-895,-677,-1571
2873,-7490,-3799,-5605,-996,-236,-92
2874,6837,-1166,1793,1910,-976,1185
2875,-4453,-3945,-5570,84,1218,-1670
2876,4047,6159,-5792,1641,1202,-11
2877,1468,984,676,-1004,-415,556
2878,1515,3785,6513,-1042,-35,1984
2879,301,-4643,6526,395,1363,-1437
2880,-5584,-2339,6915,1262,-1301,141
2881,1160,5147,3740,-938,532,437
2882,3869,3586,-5225,1224,-1395,249
2883,-820,6573,5356,986,-937,745
2884,2921,-5121,6408,725,712,-272
2885,-4040,-49,3960,280,-1072,-270
2886,-6240,-832,-4259,362,159,205
2887,-7929,2782,-3845,186,-1908,598
2888,1034,7992,5051,-637,1102,96
2889,-1277,7513,6415,644,432,1559
2890,-432,-6971,5301,1885,963,454
2891,-7807,1295,-5428,1643,-427,426
2892,3371,-4218,-7363,1594,285,-1803
2893,3142,-155,1446,1442,-589,1232
2894,-3563,3862,-1781,-227,1901,-1772
2895,3411,-4387,-7824,-1417,250,1334
2896,-6878,-5081,3811,-1820,-662,1454
2897,7673,1304,-7501,-428,1743,-292
2898,6980,-2570,-1926,-1616,61,1870
2899,-7070,-5800,-4082,-608,-1084,-1346
2900,1157,-1253,99,1781,1989,311
2901,-634,-361,5297,888,-984,-909
2902,2335,-7666,-4676,363,325,1697
2903,7328,-6901,1520,-864,-1343,-46
2904,-7634,7865,974,308,-1780,1492
2905,-3203,-5384,-1630,-600,-1929,-1843
2906,6451,5945,3722,1704,821,1793
2907,6560,-3372,3772,667,867,-283
2908,-2138,6178,1519,1571,1220,1769
2909,-416,3052,4361,1220,890,1715
2910,2799,881,4533,1149,-312,48
2911,-6578,-4474,3661,1511,272,1977
2912,4064,5382,-7470,1926,723,974
2913,4290,297,-246,1728,-1415,-1097
2914,4703,-1039,-7605,1096,-737,-976
2915,-4364,661,-1388,1553,-501,-958
2916,4839,-3423,-5840,312,-1483,-1728
2917,1657,-1692,-1171,1416,1380,-1917
2918,-4167,5107,-7318,-1114,1650,-715
2919,6652,-4506,7041,1163,-273,-1211
2920,1624,1904,-232,-561,-187,-1376
2921,-1992,-6962,-5997,-1882,-455,1810
2922,1272,-6111,-7640,-1105,149,-51
2923,6384,-5766,-2975,812,-920,-1891
2924,2472,3379,1334,-1696,-295,-784
2925,-6794,-695,-5333,-1375,1597,-12
2926,5570,1387,-3865,1675,1935,-1309
2927,2127,-3705,-2067,-1108,-199,-490
2928,1040,7491,-3491,1010,-563,-585
2929,-4975,7011,813,1503,685,-1817
2930,2789,6950,-1896,-448,-1132,539
2931,2365,-4352,-976,1125,-1695,1304
2932,-7022,6599,994,925,-225,781
2933,375,-6587,1587,387,320,313
2934,2223,-2564,5440,-1980,-589,639
2935,-7301,-1578,-1727,-821,1988,-1388
2936,4629,1422,-7849,1711,211,-916
2937,1428,-2975,5594,-1923,-1991,-1598
2938,5961,2747,4410,-775,-370,995
2939,-3878,-7508,5654,-1440,1945,-1116
2940,6160,-1095,-2162,-920,1939,-1887
2941,4761,-5978,7473,1204,-491,-1854
2942,4783,570,4520,654,850,-843
2943,-4143,-4930,2068,-186,-1322,25
2944,2594,2178,1496,-242,658,753
2945,742,4551,-3451,-1467,-1024,615
2946,-7571,-4601,-5328,1902,-591,1020
2947,-1984,-6102,4240,1577,-486,378
2948,-3587,-5996,-2448,1592,610,619
2949,-7433,1877,-7264,-393,91,1709
2950,-2106,6832,1326,1960,-1813,-380
2951,7748,3096,-2810,-1907,-1369,1932
2952,3715,953,4728,548,-392,-1631
2953,-3934,-5879,-2367,-756,-21,-1186
2954,-4509,-3696,6247,1670,-261,489
2955,-5984,-5799,7123,1951,-1926,164
2956,-2178,7377,2017,433,-307,166
2957,-204,-6529,-6738,1982,-722,-1185
2958,4145,1051,-2805,1172,-1117,879
2959,-4621,-3756,6614,1291,-150,-300
2960,-2085,-970,-909,420,-1725,589
2961,-216,-6436,-7196,916,1419,-1132
2962,790,6672,1635,227,-350,-1830
2963,-3472,7,4394,491,-1181,-1578
2964,-3518,6366,-1653,875,-1701,1223
2965,5421,7906,826,-828,-1939,134
2966,-4287,-7335,-350,-1975,623,566
2967,3254,7499,-4509,603,1075,-1279
2968,-5559,5809,-7936,-456,-748,-858
2969,1775,-3696,1836,760,26,1594
2970,1352,1756,-7017,1750,-476,738
2971,102,1470,70,547,-1390,486
2972,28,4668,-7882,-905,-909,-1287
2973,6471,-6200,2251,-862,-1546,-1246
2974,-3881,898,6422,937,-1867,1562
2975,-5804,-2378,1396,-789,-1987,1351
2976,-1659,-1067,-5022,-10,1141,-1413
2977,-5883,-7117,6027,1349,-1094,-1856
2978,5923,2446,-3999,325,-1478,142
2979,7513,-2877,2480,1838,-1706,51
2980,1569,7118,-7879,595,-636,-1253
2981,-1954,1128,7327,385,1111,-203
2982,-5113,-2115,3811,920,799,1553
2983,7498,7608,-7206,1236,-1828,1589
2984,1956,-5969,684,-96,1814,1100
2985,-5906,-3485,6668,-1175,500,-666
2986,-1532,1299,7247,1020,-739,-364
2987,-7609,4697,-5785,1577,-1064,-329
2988,4438,968,-4713,-21,511,1277
2989,5813,5911,-3562,1399,-1164,-1693
2990,-7978,-5850,-1958,-658,1195,1325
2991,5122,1768,-7433,381,-1874,983
2992,418,-1050,-6964,-1543,1284,-1482
2993,6358,-6657,3367,158,-1933,1100
2994,-740,1357,-411,-638,340,935
2995,2075,-5787,-1307,-574,463,-682
2996,5722,4799,-2882,1361,753,1828
2997,1566,-6381,4641,283,-1219,-778
2998,-2659,770,-3425,-1514,1415,-160
2999,461,502,4019,331,-1441,-374
3000,-7620,1769,7620,869,1876,1304
3001,-6931,-1350,1197,-545,1683,1617
3002,1209,-5806,6608,-1830,-210,441
3003,-1605,-6798,-5499,-769,276,-114
3004,-3155,-7120,6246,1973,1564,-1438
3005,-2578,247,-4769,-1779,278,1218
3006,-1115,-7603,7427,223,1199,-1748
3007,2134,1530,1055,-1182,-1388,1550
3008,-1675,1084,2620,1320,-719,-1351
3009,-1222,-4957,6388,1374,-92,815
3010,3524,-1112,1694,-1063,-1059,1623
3011,-3308,5513,-5969,-930,380,-1220
3012,7789,4885,-3901,1530,780,-979
3013,-1019,2848,-263,-1596,-1108,-971
3014,1905,2985,5036,1059,1520,-1954
3015,1585,-7149,788,1179,-184,-1862
3016,4437,-4593,7813,-51,483,1644
3017,-2345,-6978,6701,-932,1646,-397
3018,-6084,3601,6361,55,1340,-1595
3019,-324,1970,1173,-1222,-1174,558
3020,28,-335,1018,-14,-910,1387
3021,1330,-5246,-5919,1540,-1263,-1388
3022,-5236,-5408,2743,-1286,-629,149
3023,-1545,51,3188,823,1447,1863
3024,-4213,2500,4545,-1949,-885,-1970
3025,7500,-1078,5717,1160,-1138,-1744
3026,3255,-1003,3581,297,-1180,1555
3027,7057,4268,7419,1546,-1367,1810
3028,4317,4206,4565,1806,1090,-1151
3029,7410,-7751,5858,315,-552,-1878
3030,-6073,-7345,-7466,1835,-1142,387
3031,-1350,5302,-2025,1461,-1809,-736
3032,-5487,-2541,-5811,-757,-1396,-853
3033,5430,2607,-1386,395,-97,1578
3034,2176,3777,-6540,1081,1732,1706
3035,7982,5770,-4462,1704,-1651,793
3036,2553,7965,1483,1851,-544,-1226
3037,7255,-3872,-4656,767,-130,-1459
3038,-5949,5893,394,133,969,709
3039,-162,5810,-3468,-276,1388,77
3040,-6531,-3477,-3433,624,-205,1937
3041,-7260,-2929,-5364,325,-185,1579
3042,-2172,-3269,-2205,422,-933,-1129
3043,-1499,-6985,3715,-531,-1956,1941
3044,-6006,7661,-6877,461,613,-1296
3045,-35,-2489,4968,-1918,1815,-1140
3046,5500,7901,7374,-1987,-1797,1988
3047,3199,-1050,2207,320,1201,-544
3048,-7349,-1266,-6287,-911,-1635,-1006
3049,-2062,364,-4219,-1431,1848,-1125
3050,465,-6678,-2112,1485,858,-1978
3051,-3206,2692,2398,-1674,1482,-1992
3052,-4258,-722,-2400,29,-1697,-56
3053,-1631,-3066,-1215,-1563,1399,1859
3054,-2574,6465,-4566,407,-347,-408
3055,-6809,-5639,-4518,-741,1930,1272
3056,-7852,-6339,-7395,-1088,-1941,-1974
3057,3436,4997,-4566,678,-636,-800
3058,156,3923,-1073,-1093,-1714,74
3059,-3037,-1271,2534,317,797,667
3060,6104,-2394,-139,1995,-1643,619
3061,-2055,-1037,6895,1445,-302,388
3062,-3639,-1116,220,-350,560,1599
3063,5643,4274,-1740,-935,591,-383
3064,-7052,4516,3176,-744,715,918
3065,1749,205,-923,-67,1131,-817
3066,-4688,4266,2704,1322,-421,-888
3067,-1572,4333,-4231,-1123,-59,-1725
3068,-2091,-3823,4350,-859,1062,-268
3069,7915,-3984,-7563,1465,1738,1790
3070,1815,768,1533,-1649,-1081,1238
3071,7461,-5282,-6283,14,-206,1444
3072,-2849,-7511,6089,-708,-448,-339
3073,2917,4238,-1028,241,1429,723
3074,-5679,-2899,1444,-138,-951,-1372
3075,-7817,-3730,3571,462,-1000,1989
3076,130,3173,-3967,1909,329,1221
3077,-1292,7326,-4005,899,861,-1027
3078,-3152,-4819,-4033,865,970,-631
3079,-5187,-2978,-5766,-997,257,1047
3080,-3540,-6431,4573,1673,-1561,542
3081,-5078,-5622,5853,-1380,-982,785
3082,-6647,-1048,6458,-235,-1187,8
3083,6988,5376,3559,1093,148,223
3084,4652,-6545,-6138,1108,-1573,1030
3085,-1446,-767,2860,1804,1691,948
3086,928,-4824,-3144,-715,-1578,-511
3087,-2445,3684,7399,144,-1390,1950
3088,-5970,-3217,4034,-1783,935,652
3089,-57,-355,-6491,-1248,1281,-1334
3090,3876,-2278,-919,-762,513,121
3091,7370,483,-7206,-434,1168,1616
3092,-1566,5966,7758,-1610,-1785,-368
3093,387,-7269,-675,138,-930,-1348
3094,4870,-5489,7625,1707,76,-1805
3095,470,-7989,6530,-18,153,420
3096,-5423,5723,-1430,-181,261,1555
3097,2699,1213,-4667,-100,1172,-1486
3098,-1083,-3749,3618,-1575,-462,994
3099,6050,-4034,5323,-408,1122,-319
3100,1765,-2913,-4633,-801,-371,1743
3101,-6734,-682,2370,-1417,-1977,723
3102,3488,-5001,-7814,1047,629,-1401
3103,2310,-4543,-4370,992,-1050,-1250
3104,-3902,-6882,-2351,-1345,1005,-1875
3105,308,-1275,-7483,900,315,536
3106,3073,-7630,-2546,-1884,-342,1946
3107,6070,-5386,5342,1758,-1919,-1517
3108,-7335,-2786,6403,-1131,1196,-1595
3109,-1131,6794,-3733,496,-1354,-376
3110,-6884,-333,560,1441,-1277,1537
3111,7301,3591,34,-59,-1057,287
3112,3655,3883,-1728,-1692,176,1822
3113,993,5516,4634,-551,34,-545
3114,6449,-4052,-7012,-679,-1660,825
3115,921,-1276,-7144,486,1893,1196
3116,4416,5025,-566,1145,97,1547
3117,2377,1118,-446,-246,1623,1106
3118,-1664,-7118,-4459,1154,1982,1120
3119,649,-4839,-7913,-578,-451,-403
3120,-4004,-1746,-2690,-17,192,-1980
3121,-151,2113,-24,-510,1643,-878
3122,-1496,6887,578,-1957,-515,1179
3123,7694,-3506,-2588,246,-1285,-695
3124,-7731,6684,5190,209,1467,-1449
3125,-7541,-6420,-3473,557,1579,-790
3126,-4258,-1857,4849,495,294,1974
3127,6155,2975,-3839,1450,1025,-725
3128,-4011,-6914,-1667,1291,-1656,-927
3129,-2263,3520,4638,-913,535,1642
3130,1103,-197,-4418,1305,-685,440
3131,4621,-5386,-7208,1174,1954,-1043
3132,1693,-6202,6355,-414,-724,1510
3133,1612,7325,2685,1060,909,-1596
3134,-6363,-1747,4820,607,-1244,-930
3135,1181,7951,7090,1861,1287,-1238
3136,-7011,4866,-5593,472,250,-568
3137,5558,1370,7648,1323,-620,-356
3138,3714,6509,339,-315,-815,1781
3139,-7806,810,-3002,213,-211,-136
3140,-5173,-6770,7481,721,-1241,-228
3141,4986,-893,-7748,-271,-1724,757
3142,5763,-1592,327,69,458,-1079
3143,832,5662,857,1004,-929,-1719
3144,2542,547,-6475,1781,1986,646
3145,4265,-1183,7402,389,87,1940
3146,3447,6980,-2186,386,375,1228
3147,5908,6394,-2557,-241,153,-868
3148,7965,954,5528,1141,-242,-1365
3149,-3248,7739,5120,-1536,-1172,-899
3150,-7835,5643,-3017,1905,-928,-695
3151,5647,-7522,-3925,-1065,-227,1020
3152,7567,-4877,6870,-133,-1906,371
3153,-4610,-5733,-6842,-5,-106,-559
3154,738,-100,-2843,-515,-1698,1059
3155,4870,6731,159,1539,1960,-1250
3156,-5219,-6223,5114,-1111,-1649,873
3157,3879,1244,1170,-530,-1450,-467
3158,549,-1641,-3565,834,-53,773
3159,-6042,4514,-5961,-152,65,-533
3160,1429,-4563,2866,-1074,1122,-1116
3161,-6649,-5720,-7572,-815,-1477,1176
3162,1784,7374,2095,1780,881,-1654
3163,3540,-5464,3833,848,717,249
3164,-1384,2597,1323,-892,1770,-882
3165,-2172,-3825,-1242,-109,1594,-619
3166,375,-857,-6219,31,-673,715
3167,4504,5668,3201,1156,27,-1132
3168,-3233,6682,-6739,1395,-1038,-1596
3169,-1453,6069,925,-293,265,-914
3170,-182,1932,3071,-708,-958,901
3171,6997,-3783,-3561,-495,-337,-1290
3172,818,-2817,1841,-901,-383,-1701
3173,-397,-1783,-816,-217,-1495,968
3174,-2164,2463,-5008,38,-1153,357
3175,2379,-5016,7016,-1037,495,-1370
3176,2214,-3381,-4751,1843,-999,-862
3177,-3247,-2556,57,1153,-651,499
3178,199,-3775,496,-164,-1366,603
3179,3284,-7752,-2680,618,1790,-564
3180,5895,-392,754,1991,-419,1828
3181,142,-1758,-1630,361,1169,1387
3182,7498,2253,-2678,-147,382,-188
3183,-1418,7065,5033,-1528,-336,-1118
3184,6975,-4987,1757,901,-459,720
3185,-4054,1932,-6318,-1318,-1455,109
3186,5379,-1641,3710,-801,387,1239
3187,-7466,-6502,-1914,-1426,-1783,460
3188,4753,-5919,1022,-604,1684,-1299
3189,1389,-7911,6401,-1695,1016,798
3190,-3100,-5062,-1089,1080,1928,924
3191,-4054,4734,7174,1707,886,-283
3192,-6148,-7739,3392,1068,-462,-1326
3193,1755,-1794,-4109,-1954,536,-812
3194,2757,2928,7018,1813,1083,1115
3195,-1894,3712,-6479,1229,401,727
3196,-2233,-966,-6971,1731,-990,908
3197,4468,-446,5862,-1284,-606,1781
3198,3471,2658,-3360,-1319,-1526,-1506
3199,-2179,6955,-2458,224,37,1881
3200,4597,-1808,2024,1479,-159,-1067
3201,5138,-7723,4376,843,-577,-598
3202,-2561,-4547,-4920,615,-1991,733
3203,5104,-1974,-6328,-350,-1935,1682
3204,208,-1049,-2156,95,-1789,1379
3205,1929,1645,3462,-959,-1814,1932
3206,-1598,-1558,-2730,1379,-339,-1970
3207,-1679,-3039,-4096,1556,1973,-1185
3208,4576,4134,16,-609,-1058,1913
3209,-6355,3663,7186,-742,889,-806
3210,-5207,-3031,1902,46,-1369,934
3211,448,6847,3305,807,-394,-1416
3212,-4827,5595,-4488,-1925,403,-1663
3213,3551,2857,4022,-955,-1967,1175
3214,-878,1372,-4084,780,1290,-632
3215,-106,-84,7976,-1077,1593,-1632
3216,-1862,-295,-879,773,361,-53
3217,6839,1909,-6295,757,-465,293
3218,-7346,-1635,889,1430,1816,-601
3219,-1276,-2417,3549,-350,1537,69
3220,-7927,3964,3232,-1637,-1215,-63
3221,-4882,1853,1900,-207,970,-1130
3222,-7246,-79,-4340,1476,1906,154
3223,-2366,-5562,2898,-1794,371,-619
3224,-4678,-3267,-3640,1234,-496,-535
3225,4385,6115,-2102,-1812,1930,528
3226,-5542,-7174,1972,-271,802,-5
3227,1267,2326,-884,975,1894,-395
3228,-7515,-7836,-2279,1044,447,-342
3229,-3419,-4016,-2926,1983,1045,1095
3230,-4235,2798,7371,-48,-991,-767
3231,4425,-5463,1403,1188,-458,1679
3232,-5042,-4457,7703,664,1664,-780
3233,2745,-5396,450,-1095,-1460,-497
3234,6240,6557,4534,657,-396,387
3235,-3367,-1735,7175,-1972,-630,1308
3236,2383,-6045,3808,1155,-1132,-1523
3237,-4852,-5418,-7495,-439,-1298,-172
3238,4319,7471,-2372,-1227,563,-1619
3239,-2126,-1911,3099,311,-513,1354
3240,-3100,4862,-1045,13,1960,8
3241,702,-2567,-2407,-1975,953,1710
3242,-7478,-6337,-4134,799,-1207,914
3243,-3639,-3051,3759,-1249,1474,-261
3244,1714,-5669,-6269,433,1106,-1952
3245,6558,5233,-3812,1639,1184,-239
3246,7142,-4140,5425,-1901,-1701,-1985
3247,-6422,-4355,7905,1428,-884,268
3248,4194,7792,6666,382,-1110,637
3249,5080,-6023,4685,354,-1216,-311
3250,-6725,2379,6528,-64,-1844,-1002
3251,-165,-2289,-6661,500,1739,-1894
3252,4043,-2195,7949,588,1418,45
3253,5002,2814,-2244,731,-1263,1462
3254,-6018,2724,-3548,731,-647,-1907
3255,2188,3748,-3285,-1226,175,64
3256,2713,-3416,7383,1818,213,825
3257,-5122,2058,2716,87,-1370,-919
3258,2216,-1380,-279,399,1403,-1220
3259,-2122,7998,236,-1301,-1392,585
3260,-1864,-3737,3749,912,1084,-1102
3261,-3977,4464,266,1772,-1304,-175
3262,-2671,-6258,-4380,679,333,501
3263,3872,-1678,2811,748,-1093,1809
3264,-6942,-5000,6679,1093,-41,1469
3265,-60,1610,1406,524,-42,789
3266,-2129,-6798,6491,-1720,-1264,-1306
3267,-2106,-7167,2125,-834,760,657
3268,939,-5061,-1726,-1909,-860,1971
3269,-5243,-5605,-4224,-1454,-159,157
3270,6123,-1214,-2183,-1489,1128,-810
3271,-7065,-6619,871,-1637,1217,-1049
3272,6933,-2973,-6315,-295,-991,-1875
3273,7883,3557,3564,-1693,171,709
3274,5783,-4836,-1346,-1609,1623,1545
3275,-837,2099,-5142,166,-1939,955
3276,6736,-7351,-7717,1177,286,-1866
3277,4463,-977,-1419,1648,80,86
3278,-1877,2216,-7181,-203,1427,-1896
3279,3531,-3935,-7204,1482,-1306,-1435
3280,7483,706,-3989,1294,-239,433
3281,-6841,-7544,2084,-240,-1192,1723
3282,-818,5658,-982,-939,1655,908
3283,-485,-1677,-5912,947,355,1909
3284,-1531,-1370,-5510,1274,-446,-1350
3285,-2213,2240,-2378,619,755,-227
3286,-3851,7840,-6761,1175,841,-592
3287,3859,-2520,-4981,-808,-1314,-515
3288,374,-4982,-6094,1042,-1319,389
3289,-2519,4790,-7463,-25,1483,-228
3290,6018,-6676,6537,-1643,-181,-43
3291,-7626,-2327,6692,-1686,-113,-1375
3292,-6661,-7467,6431,1293,-327,-544
3293,-4496,-5243,-1803,-1660,1095,1982
3294,6577,4689,-7773,-559,1788,-1019
3295,1211,-1788,7459,-423,-1350,152
3296,674,-261,-3491,-1378,-1862,-1524
3297,3877,-7463,-2389,1812,-1268,-1280
3298,-3400,-2579,-3120,-1237,1952,-1822
3299,413,6162,-619,1817,263,-966
3300,-3037,3494,268,961,1494,-91
3301,-6562,3367,4740,-97,-353,598
3302,30,-4943,2550,-1191,-700,-1350
3303,-1584,-4850,-851,-595,712,24
3304,7815,5604,-7937,-1129,388,1743
3305,-1860,-1724,-3382,-354,555,-1672
3306,-1326,5610,-2597,1091,-1155,-266
3307,-3875,6739,4104,-677,-429,747
3308,5042,-2903,2963,-312,-521,1168
3309,-4022,-2470,3945,-1766,-1085,-618
3310,-2423,672,3836,-1544,640,-759
3311,3491,180,5326,-1617,911,-1830
3312,-6470,-1257,-3157,1333,-467,1040
3313,-7815,5696,-3903,1208,1569,618
3314,4785,-3349,-4431,439,45,-808
3315,-4107,-3160,4257,-1166,-1122,1938
3316,-6319,-6112,1932,-992,1106,-548
3317,-5570,-5507,3519,789,-947,-1294
3318,-5006,4721,-5518,499,-386,536
3319,3691,-7932,3935,-1619,1638,566
3320,5603,-4959,5543,421,-1393,743
3321,-351,-3430,2782,1508,-1531,1019
3322,4878,-5793,2058,-767,-766,57
3323,5300,-7021,-592,661,-844,-1384
3324,4700,5217,-1364,1216,1283,-805
3325,2296,3136,-7213,1396,-990,1676
3326,4860,-5207,-4845,-1143,-909,1646
3327,-7568,1022,-4059,1609,1488,-1384
3328,-7894,3802,-7317,-961,-1666,-1593
3329,7378,4077,-1961,-321,1268,556
3330,4205,-3757,-1681,1114,-771,-99
3331,-5223,6700,1392,1047,-1446,1227
3332,-3151,1184,1622,-973,1174,-992
3333,-396,5374,6360,254,-483,261
3334,-150,6424,2697,1446,1779,1093
3335,7698,-6283,-6556,-214,453,1729
3336,3344,760,4036,-1485,-1200,-307
3337,-4438,-4277,-3212,-671,1141,605
3338,-6070,361,-6130,56,-876,1449
3339,1306,3797,6738,1820,118,-1459
3340,6117,-5213,4838,565,183,-1460
3341,4711,7638,6450,-1363,1348,-730
3342,-6412,-6691,6498,-1488,843,217
3343,-5742,-7150,2611,1316,-917,1030
3344,-1923,-1928,407,-1540,-483,462
3345,-2957,2407,7206,-396,102,-1451
3346,-3219,-7152,-5549,-1359,-219,-1954
3347,4091,-6490,720,643,-1445,1128
3348,-4014,-7938,-527,-138,111,1193
3349,-3359,2004,-6071,947,1822,233
3350,6193,4176,3079,1642,71,-1268
3351,3930,-2883,922,-534,-885,909
3352,-7540,-5899,-912,-961,-691,-329
3353,-881,-5905,2642,-905,1598,-548
3354,-3366,1836,-3980,-545,552,-598
3355,-3785,3172,2719,-539,509,1554
3356,2711,-1031,-556,790,-1092,-1779
3357,1220,-1425,-4977,1813,-1023,144
3358,-7184,-4302,-1003,-1919,1880,282
3359,-6569,1194,-1720,-961,-71,-1749
3360,-6805,7567,933,916,325,-1655
3361,1929,-3009,-1979,280,189,52
3362,4496,-4132,-1173,1891,916,530
3363,-1468,751,2672,894,-1572,-773
3364,-6325,-7607,6697,-837,441,1324
