Sample,Ax,Ay,Az,Gx,Gy,Gz
0,-4605,-1146,266,-1465,-614,915
1,-5434,3024,1919,-1194,213,-1404
2,7390,1710,4405,1113,-1592,-887
3,1465,-5042,-1646,-1791,1967,-1830
4,-2900,7383,4442,1415,-1433,-552
5,-4027,-2732,-5820,-1691,803,1458
6,3904,197,-1097,645,-1448,1333
7,-547,3180,1578,1591,339,1692
8,-5531,-5771,3956,-45,-327,487
9,-6759,6733,1365,873,-940,100
10,-2408,6716,-119,-1975,813,1076
11,-4895,-753,-6687,-1998,-1709,1106
12,6896,6683,-4823,-1765,-369,717
13,-6997,-1346,-4657,-1475,-1044,-1827
14,3087,2638,5118,-395,1559,-1407
15,-1653,-2595,-5005,807,864,-1683
16,678,-3703,-2656,-906,633,-631
17,5276,-2976,1520,1019,1387,1483
18,1903,7331,582,1808,1081,416
19,7532,-5006,-3306,1917,-1072,1389
20,2062,-3808,2962,446,-838,-966
21,-7414,7475,3566,180,-1802,937
22,7670,6365,-120,1293,-1261,-635
23,476,376,-5752,-1355,-116,-240
24,-4760,-3167,-476,-1810,-603,335
25,-534,-3366,-1259,-1964,1824,-1302
26,-2379,-6883,-7684,-113,308,-226
27,-2100,-7880,-2845,-294,1482,1835
28,-7466,7269,7676,489,1346,402
29,1435,6952,1443,-1866,-856,-537
30,-7677,4419,-1349,1942,1982,-1460
31,-2888,-7670,2087,-1390,-1932,11
32,-5370,5467,-7500,1738,1870,1481
33,4239,-3615,7514,-333,1833,760
34,-4066,2153,-4753,224,423,1097
35,-5433,-369,6891,1811,-978,-1458
36,-6677,3737,-4266,-932,-768,1161
37,1082,-1407,-1195,1329,554,1217
38,-6436,2347,7798,1847,-82,-1039
39,7410,4442,3015,19,-1585,-46
40,-1920,7132,-2801,281,1794,450
41,-7501,-7748,-2573,-488,1689,4
42,-6890,-3048,-1705,1518,1811,-1442
43,6401,6626,-2466,833,-44,-1060
44,5303,-7124,5378,-235,-1313,859
45,-6503,1094,-6764,-1971,470,252
46,-4198,-5649,-2945,-601,-1830,-450
47,2417,7032,-3933,1463,313,-1498
48,6055,1768,-6972,-530,1582,1627
49,-3440,5079,-6383,50,-1654,-927
50,-4247,-6654,-3144,520,-497,104
51,-7204,3870,-7276,-32,1014,833
52,3482,-928,-6115,-440,1306,284
53,6750,4556,-342,-673,1406,-818
54,-7019,-1050,7278,-1190,-1227,1028
55,-2086,988,-936,-391,-1281,914
56,-7106,-7666,7579,614,750,-836
57,-6154,1373,-4175,1649,1766,1878
58,-5641,1461,6093,73,1836,1636
59,-6067,-3945,6449,604,-1283,-421
60,2032,-4191,1159,788,1558,1136
61,3597,-6126,-939,-766,326,-743
62,-1875,2911,-4203,-1617,770,-1517
63,-4177,6469,-2090,-944,1328,-1709
64,-3668,-2100,7134,-1024,-126,-197
65,2815,-6899,3481,264,-1771,-1158
66,-3613,-3434,4726,-1878,1178,665
67,2958,3940,5715,-1832,-281,-1630
68,4766,332,6653,1804,1600,-792
69,1937,-704,283,8,1320,-1969
70,6866,-4823,-3672,1032,283,-1005
71,7888,7211,4141,-449,1731,549
72,-7452,-6398,7182,-1993,-1440,706
73,-6573,-3438,5428,1388,244,749
74,5331,863,-3517,-131,-891,1926
75,-114,-2671,-992,-1900,-1231,329
76,-3347,6499,-7603,136,1822,-1975
77,887,-2148,-4202,-678,532,56
78,3393,6393,3056,467,797,1275
79,-2918,-6704,-2039,1134,-1034,885
80,1927,7456,-5424,-1928,-1443,-687
81,6489,5880,6745,-225,1633,195
82,-4276,7303,7113,-1921,-1549,1449
83,2875,4455,6368,573,1632,1816
84,-7738,-2242,-1732,1910,1872,-890
85,-6538,-5889,780,-1269,-1171,-1563
86,-3354,-3684,-4751,-1046,-1140,-1896
87,576,-2687,-1768,-819,-827,-1200
88,880,-2960,4129,-974,-1318,-1097
89,-457,5408,-6812,1309,-275,884
90,-3296,-323,6090,-685,1687,1542
91,2512,6851,1196,-548,975,-1251
92,-2301,-7737,1439,1286,1670,-1267
93,3024,1429,530,563,-96,-340
94,6170,-5348,-3118,-1919,756,1158
95,6005,-5327,1034,-335,-1932,1425
96,1700,3938,2401,1028,-221,861
97,-443,1846,-6139,-1310,120,-575
98,-7627,-2068,4684,-923,-1487,-1847
99,-5615,5027,-4704,-415,-256,-458
100,6213,-4086,-5155,-689,1134,-665
101,-5897,6361,4322,-697,-955,484
102,-1846,-2084,1988,830,112,-949
103,6979,4686,5007,196,-1723,-1919
104,6867,5270,819,1533,-1552,433
105,1947,2335,4106,-329,567,-503
106,-807,3530,-7052,1365,-1159,288
107,5677,-7395,7019,572,1684,-992
108,362,3862,5281,1330,971,1758
109,7480,-532,7291,-10,1025,412
110,4430,5451,-6664,-278,527,-1798
111,5819,-4291,-4003,571,1004,431
112,-357,-1197,2091,57,1601,-557
113,3859,65,7261,1855,315,-1250
114,5157,6791,-4825,1917,1268,503
115,2611,2865,-4074,-936,-1658,-1196
116,6157,-7587,3845,1816,-348,-598
117,-3799,5441,-5015,-465,1513,364
118,-1049,-4250,-2075,-1409,1686,-739
119,6165,-4509,-7871,1623,-1288,1326
120,-2199,-2271,1064,-1879,-71,-1511
121,-4733,-4243,-6846,-315,1455,1854
122,-3772,1337,6098,1435,142,1871
123,-237,1360,7404,308,-274,-1705
124,-4428,4415,-3210,699,-818,861
125,1203,-2506,4958,1865,-758,1371
126,4527,6890,-4591,-155,1911,-276
127,7065,-1533,1724,-915,807,-1015
128,389,4634,-1301,-843,-736,-646
129,1238,6714,-3677,-445,401,1760
130,4632,4254,-4292,-222,1494,1944
131,-6729,5959,-3718,-1729,1888,-1805
132,-1517,-6763,-7402,-1418,-134,1613
133,-3778,-1839,3832,-1014,881,-1514
134,-1396,-7076,-5321,-1528,628,1320
135,938,3333,-22,720,312,-724
136,7489,-5282,3852,220,1257,1155
137,463,2734,-3302,-624,1283,-927
138,-1485,-6864,3986,972,-1281,8
139,-658,-6788,3713,-1177,-796,-1110
140,2908,-4614,-3588,-707,298,1839
141,-250,7366,-2630,-111,-692,1983
142,-4149,6716,7501,-523,-381,374
143,-3421,6620,1089,-280,368,-307
144,-1611,2255,-7656,1309,545,414
145,5167,5909,-7860,772,-447,-1880
146,-7349,-3050,-6471,707,1219,1602
147,-1207,-4160,-3997,-253,308,-778
148,3299,6301,6027,496,-886,1799
149,688,-1720,-6921,637,1300,1536
150,-285,-4831,6567,1037,-823,-1962
151,4811,-5092,1274,948,1598,-767
152,343,-6620,-4734,1885,-1324,-1189
153,5179,-6459,-6322,57,1173,-1436
154,2338,5511,3824,-1584,460,-554
155,1335,1055,-4076,-1999,-1040,1479
156,-3232,-5670,-131,279,695,-915
157,2941,2016,6616,1315,756,1212
158,1775,-75,-7473,1712,-833,-886
159,7075,5893,-7969,805,1678,1669
160,-4081,4988,-4438,1588,1615,-1673
161,7383,-1933,6378,-892,-1785,-485
162,-337,-4244,1876,1032,1329,-894
163,7849,4,-2360,-1984,879,-224
164,975,-5207,-691,-934,755,-94
165,-4626,1390,-7207,-759,899,-563
166,-3161,-4838,4871,1099,-25,-707
167,3105,-3117,6709,-1872,1711,-573
168,-5406,5182,-3969,1555,-522,1830
169,4227,-2918,2734,-1739,-1353,121
170,1142,-1343,-4954,-1583,461,-880
171,1557,5717,1882,-600,583,-274
172,-2013,4866,4613,-764,-294,-1250
173,-2887,-2807,-6450,1101,-812,-632
174,7568,-1050,24,1393,1558,-1159
175,-5420,1985,-5666,1614,-597,-1782
176,4879,7944,-3520,1150,587,731
177,436,5544,5132,263,1163,-1322
178,-2475,-3739,7091,-1806,1405,-1697
179,4834,-686,-5863,-130,-629,-1110
180,2036,5471,-2853,1865,-1082,1278
181,-1851,-2754,-657,1813,-227,1512
182,-6743,-880,-2830,1651,-1235,1361
183,848,6784,3688,-207,-995,-1409
184,-5144,-6241,6771,1974,830,964
185,5369,7894,-2640,1359,-1969,-1643
186,-710,-7199,-1693,942,1725,11
187,-797,-7481,-4961,-200,-1462,203
188,-4827,-5989,-308,1061,320,-495
189,-3444,3477,6529,-455,-1775,-1749
190,7932,-4403,4382,1291,323,1575
191,-7313,-6064,-1459,1853,1444,194
192,2322,-6207,-5796,258,1925,-1863
193,893,5337,7814,995,260,-968
194,-4559,-759,-1296,422,261,1256
195,6232,-3096,-6442,1340,354,-1053
196,-5367,-318,4105,-976,-151,-1657
197,2735,-7944,4693,11,-1483,-1037
198,-3654,3140,6784,241,-1436,-590
199,6153,-7924,1835,1186,-1241,-392
200,5431,-656,3783,507,-1619,331
201,1822,6459,3607,783,401,-285
202,3187,5818,3076,-887,-1696,1902
203,5779,7920,3223,596,1835,956
204,-520,4063,-2558,1745,-1181,635
205,-5133,-640,-4363,1022,113,555
206,6527,-5546,-7241,669,-1388,266
207,5791,-886,3015,-1284,-385,1070
208,-4284,3239,173,1494,-816,-1657
209,4981,-2019,6879,-1885,1636,-1492
210,-6812,987,5438,1339,-1689,1673
211,5364,-1346,2156,1952,-538,161
212,4735,-2855,6544,589,-1247,1286
213,-2484,-2589,-7385,-1817,455,368
214,3473,-4820,6142,-416,-1891,1335
215,-1180,727,4198,837,-1327,1636
216,-7800,6541,-2852,-457,-791,1184
217,-5928,2625,-318,-1286,1620,683
218,-599,5472,-2087,-1302,-451,-104
219,6871,-7280,3715,691,-1798,-1901
220,-7961,2731,-2938,-598,1286,321
221,-7993,-6123,-7508,671,-1582,1513
222,-5867,6045,3019,1448,-117,-1973
223,6547,1155,5854,537,-389,-864
224,7900,4316,-2558,-1833,-1924,-1535
225,4037,6592,-2818,397,-1847,282
226,-2015,7570,5564,-1603,439,489
227,-3238,-504,-6606,1520,-566,-1418
228,-170,1525,-5725,1656,478,306
229,-6932,-311,7289,1229,1540,-19
230,-4470,-5041,-7118,399,-515,-349
231,-4174,2794,-5000,1297,959,-81
232,-1810,-4695,-6868,1289,-1556,-849
233,-2608,-3197,6409,-764,-1115,-1266
234,-5082,5539,-5767,1262,1808,310
235,4712,-3633,-7351,-618,1072,-1194
236,2029,-3254,3785,1966,76,-1815
237,-3397,-7911,-4894,-1725,-1919,292
238,6988,-5973,-2217,-502,-1567,-623
239,567,-3929,4987,-425,-802,-1519
240,6347,-7311,-6097,39,1203,-892
241,-177,3186,751,1701,-1488,-506
242,-16,-5531,3699,1991,-1414,590
243,6417,-89,-1079,-1808,985,1277
244,-1639,2371,4616,-568,1742,1673
245,7884,5730,6223,1288,-1490,-116
246,-5984,-2740,-5268,-652,10,-48
247,4136,3168,-7033,-1959,774,1765
248,4834,-685,-6481,1594,1539,1477
249,3200,-4386,3421,1025,-1316,-1178
250,5752,5608,-3968,-48,-334,807
251,-1580,-6498,7411,1408,1919,-212
252,-6683,-3145,1934,-1699,1689,-1310
253,-5870,5606,3030,-696,1021,-1738
254,-2898,7958,1880,1767,-410,34
255,-4636,3303,6773,-1790,1393,172
256,-2313,6638,3066,-1277,-291,112
257,-5876,3479,-4728,-1247,-1465,1808
258,-6806,-2775,-3925,880,1128,580
259,5883,-1378,345,1539,-1251,-1079
260,-2632,6934,-3903,-28,-515,-1370
261,3152,-1212,-533,1569,1769,634
262,-7007,-5996,716,887,995,99
263,-7512,-7484,-4481,1713,-675,517
264,-7923,5922,-2844,-1056,-1380,-599
265,-5578,71,3202,-850,731,-966
266,-3689,5188,-897,1247,1378,1683
267,6444,-5627,-2122,627,-80,-660
268,-6448,1884,5586,-1756,335,-1632
269,5692,-1309,7968,1229,1209,-1250
270,2495,934,4483,-679,-1687,622
271,-7081,5682,-3982,-1660,1870,999
272,-3313,5962,-2243,860,1965,242
273,-916,-3291,-189,-1085,-194,-523
274,-3681,-1102,4885,-1270,-443,1181
275,7266,-794,5735,-19,1836,-625
276,-253,1453,5469,913,1558,-891
277,-5457,-2661,-7788,-187,-101,322
278,3514,-1886,-2874,1072,-1710,-709
279,5299,-727,-2813,-1306,440,-313
280,7782,4810,2473,-351,1719,662
281,-7748,-7448,3158,1117,-1609,298
282,1281,891,979,-1521,-1485,916
283,7033,7821,-5036,-1798,1471,1880
284,5372,-6635,6475,-1663,441,-1999
285,6521,-6652,3524,1199,1806,859
286,-5870,-3625,-1966,-16,1543,1438
287,12,-5653,-808,691,-1190,-1531
288,-4089,-1057,-2846,291,-110,-605
289,1933,2376,-6696,-1660,-1495,183
290,-5819,-2462,-1211,-1896,-119,386
291,6411,-4597,-3658,1980,845,-42
292,-7587,-78,737,113,-1579,-648
293,7026,-778,4604,-895,-1961,-956
294,7154,-2207,3304,-1662,535,969
295,-1215,2827,-6745,1187,340,1352
296,1238,311,-72,-1897,1246,1182
297,1364,7531,5215,1200,-996,-12
298,3113,6467,5065,640,698,1141
299,-2212,609,3178,-203,491,-1004
300,224,4252,-1570,1629,-970,-1
301,1338,631,-7708,1425,1841,-655
302,7911,4284,7910,-486,729,-667
303,593,100,4373,-374,-399,-1383
304,1009,6930,5094,-221,1457,913
305,-3724,-5337,-7200,1082,193,-1029
306,-2938,-5438,7047,-1201,1943,366
307,4134,-4703,-2864,1454,619,1635
308,-7584,1000,4881,37,-564,1725
309,1715,-2923,-5061,-1538,412,-445
310,-1183,6439,1250,627,772,1449
311,1513,6500,3885,1347,1869,-1981
312,-4399,-2584,2142,1164,1265,-1283
313,-6099,2976,-5007,222,-829,957
314,7337,-3086,6071,-1891,-1185,871
315,-6340,1769,3171,-1566,177,-1351
316,1529,6198,-7577,674,-1134,1274
317,2138,-4773,3851,1943,-1724,-1149
318,5134,2852,6238,839,527,1170
319,1000,6662,6256,708,-272,-534
320,-1016,1203,-6509,305,1392,-553
321,1031,-3817,3639,-280,56,1043
322,337,-4821,-6125,1898,-527,-1673
323,3480,-5281,3818,-1393,1761,181
324,887,4002,1984,1559,633,-1260
325,7852,960,7958,1037,1028,163
326,4506,-2097,-2393,1218,1855,-1064
327,-3586,-394,3417,-1903,165,898
328,1002,-4007,1126,-4,-104,1299
329,6850,-6209,948,1984,-1919,1660
330,-3495,5559,-7649,37,-1379,-947
331,-4668,-5165,5609,-269,1939,-395
332,1388,7056,3630,-1333,1864,-1324
333,-4601,-3274,-2004,-666,-747,420
334,6336,-2638,-2912,-1727,1694,1709
335,-3037,-6712,3128,118,89,956
336,-7668,-3456,5644,-1548,1051,1662
337,-7060,883,6723,-1920,-1066,-1066
338,7256,7340,4320,402,-1068,1100
339,5231,-2216,-3403,1721,809,-1869
340,-1604,5882,-1601,1857,-1106,-93
341,2615,-1376,6305,173,22,-50
342,790,-1526,4375,-488,1231,1725
343,-7470,-472,1510,1178,-1769,146
344,1383,1954,1464,336,179,-701
345,1360,6535,-327,-528,820,730
346,-6098,-6346,-5561,26,-208,818
347,-970,7884,7400,1862,104,-1100
348,1503,5907,7406,523,-1293,-1223
349,6293,-5872,1856,-1318,1615,1194
350,7656,-1653,-6598,-1056,-488,794
351,244,1531,6756,145,396,-907
352,7436,4157,-4887,612,-586,1500
353,-2423,6327,-5163,-733,549,-340
354,4110,-3628,-1043,-1779,906,1910
355,7660,-4412,-2183,-249,-901,1608
356,-6774,1419,-4198,1690,1073,1269
357,-3650,3716,6082,-1091,1520,1563
358,6351,-3490,-193,-1884,-1600,107
359,-5631,-7015,-4597,728,-1903,424
360,-43,-6894,-4794,-26,1166,-1397
361,1043,-3390,-2278,186,-777,346
362,662,-5133,3019,292,442,-1799
363,636,7496,7064,892,181,1036
364,-1862,7420,3504,565,-146,354
365,-5116,-5083,3387,-832,280,-218
366,7470,-5889,3722,-672,1156,-1202
367,7125,1484,4936,1692,-1522,1806
368,3738,5619,-421,1307,-94,554
369,5987,-4854,-345,-180,-350,-1623
370,-88,7044,-4487,911,736,-1025
371,-5850,2260,5007,837,-1835,1404
372,-2063,-1105,-5130,1264,-577,-1306
373,-3986,4972,3181,1864,1051,1892
374,1515,-3564,1610,-728,-2,-328
375,-35,2915,5404,874,-1117,562
376,396,5967,5801,-1812,430,1423
377,-306,3526,6923,-782,-528,-1787
378,6141,-1022,-6279,-812,-1650,-1595
379,-112,5533,-2476,-275,-1352,-1317
380,4643,5034,-6962,-245,1971,1176
381,3244,-6489,2625,-348,-644,-866
382,626,-5377,-4686,1683,-1093,-610
383,-569,7746,6537,1469,-1824,859
384,-3493,3510,-4287,542,18,172
385,-3541,2594,-2099,1841,822,633
386,1483,7860,35,-994,-471,-1788
387,-3963,-7166,6312,-364,1959,-392
388,-7336,418,-3996,1304,1969,-922
389,656,5762,-7533,-296,-1393,1137
390,-3040,-914,-881,-151,300,272
391,-358,-4192,-6521,-1268,177,-830
392,-1074,-5348,759,-417,767,-1670
393,4562,3726,-2100,-1363,-40,293
394,15,-7997,-6251,277,-1510,-744
395,-6738,-1118,7524,-1953,774,-807
396,-5909,5734,1031,452,-1352,1963
397,7895,-1616,-366,1941,-67,85
398,-620,6531,2587,156,486,-1196
399,2564,6699,-2713,-914,1293,180
400,-553,-2981,5817,-1232,-229,-1073
401,-6628,2069,7666,409,-1053,715
402,-707,-7984,-1756,897,302,717
403,-3664,-7753,7750,-1978,540,24
404,-5284,6650,2154,-1625,123,-1076
405,-7116,3449,5569,-1236,1247,-714
406,6434,-2477,344,1091,1295,-1225
407,-557,2897,-2976,925,118,1424
408,-4378,261,-5884,1903,-1254,847
409,3184,7035,4302,1693,67,-817
410,7258,-528,6892,-860,1268,818
411,1899,2229,4813,1726,772,-1629
412,-5064,-4833,5587,458,-510,1104
413,-4860,-5088,5048,1062,1526,161
414,-506,1293,3090,1359,-472,-1189
415,-4640,-5445,-177,1641,1642,-59
416,1281,-1616,-3642,-237,-46,-1383
417,-113,-4108,1781,-1961,950,634
418,5538,-6774,2316,-1787,1422,-1526
419,-930,-6292,-6478,-727,1654,618
420,-7585,688,2554,-607,-974,1470
421,-2629,2828,-6354,-59,1323,-1991
422,6790,3554,-5750,-1456,-546,1731
423,6100,-5573,-1589,1311,-1988,-1238
424,5796,-7013,2799,-1716,428,1160
425,3407,3979,-7394,-711,1864,-677
426,7871,-4710,5615,-1457,834,-1760
427,5705,-2775,5347,548,-1885,1057
428,-81,6695,5034,959,531,1405
429,-5750,-3828,6133,855,-612,-424
430,45,-4192,6810,-983,926,-232
431,3531,6117,-4503,1632,-1709,1458
432,4456,-1976,5247,1295,789,-1007
433,-1233,-7738,-4238,1011,-1466,-1708
434,3738,-6330,-572,322,159,-1587
435,6126,-2723,5464,-574,-1473,-398
436,6709,-3296,-3754,1527,1456,1146
437,1251,4548,-7487,-1125,49,-1799
438,490,-1984,-1582,1707,1380,-1536
439,6831,3784,-5724,1238,165,642
440,5411,5096,5562,-603,-1988,1957
441,7399,-3166,-7251,-1599,938,-1344
442,-1184,2726,3240,-763,-167,1994
443,-6260,2217,4004,-1662,1176,1210
444,7771,5003,-635,-1091,-1534,-1744
445,4542,5875,5149,1760,-372,-132
446,5958,-7859,1949,96,1758,1521
447,2096,-5177,2715,-1428,1258,-782
448,-1694,-3284,2505,1098,-1367,306
449,-4554,-2014,-4197,-1977,122,-532
450,1787,-246,-4816,-861,136,-703
451,5049,6661,2784,1735,-1497,219
452,321,-5981,-5918,-246,800,-508
453,-2342,989,7455,-1475,-1598,-799
454,2524,-350,-568,254,-41,1630
455,2238,6335,-3858,798,-933,-450
456,-4627,2568,2774,-1886,164,-1697
457,-4839,-2261,-3142,531,966,518
458,-5382,-6784,-2072,1193,841,-1551
459,-4035,-4213,-85,1889,907,504
460,770,-3841,1575,1067,533,1390
461,-4210,-476,-7132,-367,-1093,-1330
462,5118,-3339,-3592,-1487,1866,1286
463,632,2672,7325,-874,377,-96
464,2754,-6145,-7577,-1716,-419,-430
465,3585,3711,-4118,622,-305,772
466,2093,-4875,1221,-1028,-217,-294
467,-2479,-1577,-7192,-1784,-893,-879
468,2657,-1286,-349,-979,-1087,1738
469,-7933,-1539,-5861,-1992,-279,-1729
470,-4288,-5961,-523,-376,1117,-370
471,3212,1964,4867,-1427,576,1737
472,-1474,-213,4607,214,578,-1692
473,-2392,6857,-5666,1644,1604,-1990
474,-6617,-3083,-3487,-68,-1762,-1363
475,-1656,-5066,1713,-1332,1563,1370
476,-7686,-3366,3152,786,1980,1752
477,1007,-4712,1950,1414,1349,-671
478,-771,-6221,-5891,84,802,-453
479,5216,-441,3302,-1083,-95,-22
480,-3166,1303,-5684,-1318,25,161
481,-1502,7356,4284,-128,1818,1790
482,1167,6362,-4963,769,-1169,1719
483,920,6102,4573,-253,595,-1096
484,5040,-4954,-5041,862,1316,1515
485,-2039,3607,-3321,-927,-1894,-1205
486,-5669,3309,3724,1341,1236,-1498
487,4233,5474,6457,718,-1520,-553
488,-1276,1948,-1902,-1217,-100,-794
489,-5932,6859,3172,931,-1021,-1162
490,3432,-6526,-5821,-641,-382,1442
491,2676,-6066,6074,-1829,-741,1254
492,-7469,230,5146,1290,1112,-1079
493,5606,-7015,5537,1088,-1976,68
494,5359,4896,-1554,-327,-832,1606
495,4904,7833,-3105,-961,877,659
496,-5487,-780,1278,495,944,-1058
497,-2426,4073,-4760,1135,-844,102
498,-3377,-5007,1546,691,-583,-1062
499,-2295,-5517,5554,-1479,1177,-1649
500,3091,208,-7822,35,-999,936
501,-3076,-1453,-440,1264,-1045,-1880
502,-7528,-6361,790,133,1121,1544
503,-4389,192,1868,290,-782,-796
504,978,-3327,1154,687,1779,-434
505,-6635,-664,-7602,1929,-1587,1897
506,-6369,-659,2341,94,1265,1553
507,6759,1992,-5246,-874,465,-1220
508,2237,6813,1144,-1291,-1855,1610
509,-2702,2054,304,-1604,-1542,-298
510,1378,796,-4640,952,-755,-1577
511,-2588,-2377,-1587,-1908,-1977,847
512,-6484,840,2123,-1313,-1959,1863
513,7471,3464,-4554,-843,-380,-1645
514,1024,-3113,-903,-783,446,1576
515,2769,-5884,-7607,-1911,162,1007
516,-2282,-5562,-7203,622,-384,1054
517,3158,3981,-5570,1654,-1790,1641
518,2943,1844,-7907,-1844,1236,1291
519,-7136,-3070,6901,-1413,-1960,1324
520,-3734,-2433,-1558,1492,-1270,1406
521,1053,4760,4827,1497,859,519
522,6667,-341,-1869,1701,517,-1257
523,-7319,2231,2489,664,1470,1492
524,2548,6574,5607,-139,-278,-963
525,-6720,-2451,4103,66,-261,-1829
526,-457,6429,2098,1975,1881,-1804
527,1687,-5190,-5588,1843,-1674,-748
528,-5419,-5983,-3155,1426,354,-1051
529,483,1270,-5372,654,-1483,-1018
530,-3071,-6175,-3419,-1644,-451,1004
531,-656,1773,7404,-1814,-1479,1641
532,2820,-984,6958,938,253,1437
533,7518,-327,3561,-1156,-1370,1560
534,4276,-827,-4789,-1049,-774,1101
535,-7095,1445,6868,1591,444,-810
536,-7601,3169,-6276,1444,-34,1458
537,-7924,5515,-2311,-1047,-1097,25
538,6265,-965,4761,-619,569,-1159
539,1754,6813,3850,830,123,1135
540,-569,3631,-6189,706,875,1391
541,-1456,3591,1074,-1874,1424,-1695
542,5640,2701,-2436,960,-1023,956
543,3405,-4713,4848,-1207,-1095,-1498
544,-7544,-5216,-3288,-779,950,282
545,2571,214,7003,-1619,410,-861
546,4594,6084,-7185,-976,-1391,-1233
547,-1519,-5692,-2343,1702,1656,-902
548,-4150,4710,6705,-1689,-402,949
549,1665,2944,-785,1635,-851,1515
550,-6764,1740,6829,-1965,-863,-1108
551,7337,-4312,-7086,-1875,-1493,1673
552,-1880,-5519,-5135,-1284,61,460
553,7099,-1394,7760,-965,1368,-1997
554,1608,-2628,6755,1196,-282,1739
555,5067,-6286,-2872,-880,-1448,477
556,6904,7475,4020,1514,107,-147
557,-1025,-1967,-6925,1506,579,-821
558,5705,-6787,7979,1423,-918,128
559,-6415,7783,-7521,915,-1258,-353
560,3583,2993,425,1410,-1167,-1616
561,3588,3185,-4172,-190,1853,482
562,652,-7352,-6727,997,845,1882
563,7158,-6106,-490,83,1664,870
564,-4752,2214,7242,-1772,-1307,1807
565,-1103,-640,5812,607,-1747,-1303
566,-1924,7011,1684,-1833,1915,1864
567,4342,-5254,-1377,-1888,-1042,278
568,5730,773,-3343,1930,1100,-1476
569,-2092,5524,2477,1582,685,-747
570,4214,7301,-7253,743,1366,-662
571,3761,-2217,6577,-39,767,1035
572,4703,-5476,6164,-967,-967,-1135
573,4649,7487,5424,661,1071,1980
574,1053,-6096,-7516,-446,1681,-1841
575,-818,2650,4282,83,110,350
576,7003,4654,952,121,959,887
577,-4661,-6273,-5267,-1175,1709,1296
578,-1801,-2577,-7784,1797,-678,-1893
579,-5580,7376,2411,-478,1337,1016
580,-5836,-903,-2193,716,767,555
581,2832,-1611,4634,-1972,144,1048
582,7045,3408,-1313,-209,-787,-1319
583,6590,2087,5655,1480,-1828,1352
584,-6614,3595,-2432,1151,441,-1828
585,6309,-581,-1429,1388,1946,-1567
586,-3117,-307,-2974,1785,-1479,1804
587,-6527,6016,2272,-308,1539,-41
588,7799,5481,-6952,574,246,833
589,-6644,405,6759,-784,-535,-830
590,2714,569,3790,648,712,991
591,-7610,-1960,5099,299,589,232
592,915,-5877,2890,1081,278,-1989
593,-872,7622,6705,-766,-72,-332
594,-6392,4369,-855,422,40,35
595,1387,-2761,3302,-1630,-978,-1329
596,4001,3914,3469,-1795,-138,-1653
597,4548,-3038,5759,-1903,-534,-1510
598,1331,-4550,-3758,-927,545,1611
599,-3042,2457,5171,1997,555,-248
600,-2209,7476,-3852,-999,1227,1186
601,-2546,2690,-4802,1989,-1400,-1271
602,7791,-1375,-1299,-161,1952,555
603,-3504,-1327,-2512,-1289,1952,717
604,2066,7937,-5586,-228,-1021,451
605,7970,-6097,-69,-97,1773,-1753
606,-3043,-2751,-5738,1380,-177,-1281
607,5032,-2138,-12,-711,-557,263
608,-79,-5413,5356,827,-745,-287
609,1261,-7739,-893,159,1990,-1851
610,7535,1027,-6772,-1777,84,-23
611,6598,5913,1286,-316,-445,-910
612,-5269,5487,4854,-1007,-1311,-1799
613,3965,5534,-2653,-315,169,-270
614,2668,-1549,-2070,114,352,-134
615,1182,2264,634,-33,-1647,-382
616,-3057,-6126,-6563,475,280,636
617,-2897,-3385,6612,-173,-1777,-750
618,1832,7588,6303,-653,236,-1418
619,-5179,2832,-1174,1983,850,300
620,-7710,947,-4389,-810,1945,1258
621,3709,-6597,1159,908,-163,-1776
622,-4940,7308,-7256,987,349,-717
623,2476,-6295,844,-1669,-1277,-1922
624,4458,-2055,6400,693,-197,-732
625,-2979,-6315,-4783,662,-675,-1611
626,6428,1010,-7665,503,935,918
627,-6596,2569,-7831,334,-1288,1320
628,-6968,-4715,6324,461,-1304,-128
629,-671,-307,2800,-388,648,1765
630,5588,3006,4791,347,-707,-545
631,-3858,1752,-4718,-862,-494,286
632,-865,3677,3037,-666,-908,111
633,-6724,-7501,4143,1160,-320,-973
634,6334,-5085,-5521,1057,1987,-1215
635,-5326,-2987,5667,79,-1340,1711
636,4317,6509,-6479,-1759,-770,667
637,-5376,-4863,5014,269,1410,1679
638,-3214,-3247,5987,1922,11,54
639,-5642,-21,-3796,1438,-196,-1904
640,5228,555,-5643,610,1853,1219
641,-3559,-1080,7999,-1484,-1555,-512
642,5039,-151,6805,1051,171,1228
643,-7667,-3360,718,1044,84,-1259
644,463,5645,1390,1351,1334,1261
645,6452,-3901,6837,1200,1798,1230
646,5762,6351,-4926,454,-1684,-1775
647,3630,6668,-3939,804,781,-1781
648,-173,6304,5935,-893,853,1126
649,3738,4031,-4779,-1728,831,601
650,-1667,1924,-6386,-374,-1191,1154
651,2896,-4597,-4874,-1748,-768,-1942
652,-2143,-357,-225,1457,739,-205
653,-6508,-4805,6726,-1076,-299,262
654,1644,-1667,2540,1897,-912,-1738
655,6118,92,6218,1905,1506,1165
656,4161,-2608,6247,637,1432,-558
657,-599,-7816,671,-675,-1951,-806
658,-1412,-7951,4378,1881,28,-836
659,113,-5063,-7052,239,1401,1774
660,4033,4165,-3270,-1190,1861,153
661,4860,-4548,-3965,-1497,-1293,146
662,1564,-7192,2235,-754,-792,1126
663,661,2917,1197,-1927,-1542,1682
664,-4541,6577,-483,303,-1826,-564
665,-6943,2739,4284,1816,-1976,-282
666,5272,4671,1243,655,1093,1394
667,4519,7041,-6718,-1696,-272,-1522
668,6660,94,-6234,759,-1223,604
669,-7366,1579,3165,1831,-1611,963
670,-685,-771,-3748,554,-1189,-1459
671,3123,6522,4417,920,1719,1729
672,3003,7690,-5841,1254,1137,-1432
673,3740,2166,5731,-1137,-1382,-1549
674,7592,-4970,-491,955,-1552,774
675,-3006,-6320,-2024,-1264,-1729,-1630
676,-6260,-4103,4974,575,406,1888
677,-6939,3063,-1265,-858,37,1727
678,-5244,3152,1447,-2,-165,565
679,3521,5174,4875,-1157,-1192,1103
680,-6390,-6056,-7733,-1690,1418,1922
681,-4977,2020,6466,1435,-767,443
682,-1079,-7058,-233,1763,681,-1570
683,679,-5635,1713,25,1637,-1766
684,154,-5402,3593,-1040,310,100
685,1004,-1543,-2850,16,1693,394
686,6178,-4481,-3865,-179,1122,1158
687,-4727,-3436,1419,1483,1855,584
688,-5422,2236,-6316,661,557,-77
689,6452,-7381,-4718,1917,-1216,-200
690,-4810,2530,-6283,-1012,-980,-581
691,5111,2820,-7065,989,470,-1395
692,-5485,2492,2847,-1339,-240,-185
693,4242,7166,-352,-1171,176,533
694,-6503,5181,6539,-1679,1906,1486
695,2571,-2583,-3003,223,996,939
696,-4131,2880,-3777,-1818,1123,-1467
697,1156,1322,-6259,1460,1195,-977
698,3327,1451,-2557,608,278,1137
699,7799,-4607,4278,-424,140,1058
700,-5106,-3349,5980,1001,-1229,-1228
701,-695,-243,5664,-81,-667,1228
702,7417,-3178,-5009,673,-91,-1266
703,6562,2036,-1454,1403,538,-1281
704,5007,-5898,-6252,-1716,227,-477
705,-4962,-2736,2274,818,1571,561
706,-5359,5579,4136,-11,207,-1592
707,6124,-6668,-948,-1263,-1424,-1418
708,793,3382,-183,1962,809,-305
709,-5653,6570,-6568,-1011,750,1642
710,-2804,-3961,-5242,392,884,1812
711,-379,1592,3956,-773,-250,-362
712,-3878,-5976,-339,21,1044,1383
713,3653,6302,3873,874,609,135
714,5022,6386,2110,1634,1138,1337
715,-3264,7014,-5185,174,1521,673
716,1646,-6622,-6418,-629,1338,-801
717,7459,-2440,6832,-260,248,1402
718,-867,1490,-3373,-511,9,-799
719,363,-1750,6772,92,-398,-1071
720,4038,-567,6923,1622,-539,-1312
721,3505,-4943,2810,-419,708,-168
722,1894,6987,7969,99,266,-38
723,-1640,-3433,4979,556,930,-365
724,667,-4613,-598,-1380,800,-1047
725,-7174,3537,-1677,1284,1758,1001
726,-6720,-4334,-1064,1261,1861,-421
727,-3119,-1353,-5087,893,91,-1791
728,-796,2270,3252,-1478,1785,962
729,1912,13,-270,1287,-1642,388
730,798,476,2200,-1152,894,1710
731,-2384,1033,2628,-1503,-936,86
732,6101,-1906,-714,-544,-224,-671
733,5208,-6247,-5764,-19,-1404,723
734,-7227,7475,6330,895,-1460,489
735,3919,3515,-5295,-1683,33,1932
736,7476,-6849,-7741,-1956,178,-1913
737,1626,1649,4690,-47,-1908,-1680
738,-6746,-6229,-6896,1878,-548,1492
739,-6072,-201,3716,-809,-1076,-1117
740,-6763,-7722,-5309,905,-1361,496
741,-7989,2636,4198,454,1713,571
742,4101,4546,171,-657,1372,-894
743,1309,5001,4402,-399,-774,141
744,7317,-1809,1425,-1957,340,118
745,2805,-5037,1579,-101,-803,-1448
746,7224,939,-2814,1697,1040,69
747,5122,1513,-2118,1087,-1123,1023
748,1236,-306,1567,981,-134,439
749,1075,751,-6236,-1810,1065,-1281
750,-4110,2651,5539,802,175,-1585
751,-7912,-1034,-2202,1136,-1763,286
752,2559,7619,-2209,1276,-125,-1493
753,4215,2531,-5148,1255,-832,500
754,-7962,-4314,-6429,683,110,-1387
755,-7234,3657,-1226,295,-1777,1122
756,437,5535,7330,-367,736,-1132
757,-1436,2971,6112,-1950,123,-1853
758,-7368,3760,-2486,625,379,-62
759,7959,3351,-1156,1306,-440,-852
760,2322,-1635,3571,891,281,1465
761,-3530,-7099,7560,-1129,1012,-1297
762,-3298,-4220,1678,1415,-990,1968
763,2960,-5002,-3255,1139,189,1711
764,-563,-1988,4211,-1742,-392,1335
765,5613,1862,1920,1502,1386,1536
766,6569,4284,-4846,-1685,-796,281
767,839,1650,-4728,1440,-1129,536
768,1733,-2007,-5162,-1304,1077,-270
769,516,5519,142,10,1145,973
770,-3256,-2006,2089,1114,347,-1339
771,-5526,-6070,6977,1216,-532,-1513
772,1871,885,-1543,1577,-1645,-1026
773,-214,-5359,-6308,1324,-541,451
774,-313,-7329,-6131,-19,-1098,-126
775,7014,4407,2182,1209,1100,271
776,-4465,-1480,6609,1492,-112,515
777,39,-618,-659,-765,-1574,-1343
778,-4814,6532,6403,627,-401,-1040
779,-1061,-5591,-2741,-846,118,1324
780,6070,-3598,7534,610,-745,-1672
781,-5717,7994,6839,540,1650,1248
782,-5565,4739,4451,81,-1528,212
783,1860,7992,-6928,1850,505,-1257
784,2541,604,3553,891,456,-1495
785,7781,-3843,-817,-1918,756,-51
786,-6954,-6649,-4765,50,-678,-368
787,-1973,3521,6802,373,1855,1677
788,-7324,-2013,-7209,1370,1914,-286
789,2572,-6120,-1183,-284,1691,-1645
790,4654,7481,3568,-24,1108,-1139
791,7201,4355,-1303,538,-1280,969
792,4353,-6707,7292,-240,-708,1482
793,3104,-4046,-896,706,-674,1683
794,3606,-2288,3336,-109,-358,1568
795,6494,-7754,-3528,-685,663,509
796,693,-4419,-4566,-324,-1018,-644
797,2613,-3179,141,-912,395,735
798,2947,2030,2273,1574,429,-1978
799,7770,4662,7136,1928,1957,153
800,6296,-5180,-1585,-180,-1235,-280
801,-5047,-4044,1476,1856,160,-1233
802,-5939,-1327,1357,1558,1260,-971
803,3275,59,4974,-28,1293,104
804,1440,-5852,4919,-1422,952,433
805,2962,583,5338,-385,1532,1610
806,6457,4476,5455,1441,1247,-489
807,1025,5059,-1474,1746,-1814,-714
808,3064,7239,6331,-1154,1297,528
809,-1684,-6803,-2490,-293,-1076,-359
810,3347,4227,1101,-332,-150,-1750
811,-5525,4407,-2661,-1465,-1313,1545
812,-2636,53,-3532,1176,-1977,-141
813,4411,4742,5028,-1911,-1534,134
814,5571,-1768,-486,1077,1722,-462
815,5719,3988,-3611,-634,1284,-1662
816,584,-3685,-5554,-484,406,925
817,-2723,2652,7989,-1613,-846,584
818,7832,-3177,7503,-1534,-842,-606
819,-4566,-1713,-1154,1534,1755,1617
820,-427,-6408,-44,831,47,-33
821,-2664,6817,-604,-1057,-381,1710
822,-4588,-5420,5085,1318,802,480
823,-3089,1549,1294,505,-599,840
824,-655,7003,2592,-1370,925,-367
825,-4336,1542,-2096,-1974,-1247,1779
826,3626,-7562,-3088,541,176,-1438
827,5972,5849,-5745,-1065,-515,392
828,3547,7119,2671,288,608,816
829,5095,4032,6585,-1150,326,1635
830,-3003,-7958,-5041,1475,1322,-1327
831,7880,3902,733,-962,1943,1164
832,-168,6820,-6514,-517,-507,-1717
833,125,4842,-3648,-211,57,611
834,3821,-1757,192,-1958,-1086,218
835,4454,4661,-4167,-1767,-1840,-778
836,-7991,-520,1288,1147,-1589,120
837,7351,-5877,-3132,282,-627,-783
838,-8000,7039,5276,1092,-1920,657
839,-3558,-1815,7839,-424,-943,341
840,6481,898,4102,-1828,6,-871
841,3824,5242,-7028,312,-1149,313
842,4811,-842,1631,536,1629,1636
843,-2491,589,-1613,1242,-965,-691
844,-6017,7300,6234,1011,-455,1962
845,3253,-4541,6075,1607,383,265
846,4724,-1820,5579,-1291,1776,381
847,6422,7974,7243,835,-1078,559
848,7838,-2942,-4318,847,1289,-1733
849,-6720,1974,632,-958,942,75
850,5056,-1140,6701,1286,-157,1746
851,-4743,-3794,-6115,874,-1207,266
852,-2714,-2656,-7157,1381,60,978
853,7311,406,-5793,-1652,-1088,-765
854,-7751,423,-1231,-1959,-856,-324
855,-3612,-3658,-4449,-1988,492,-160
856,5642,-3899,6904,-484,835,1521
857,1812,7847,1727,-1899,-120,-1112
858,3336,-4888,4100,-1284,-1873,180
859,-3334,-4842,-2991,-1622,-1341,1846
860,434,4095,556,-982,461,124
861,4483,4141,-7911,921,-1795,1027
862,-3020,-158,-95,854,-433,-145
863,6551,988,6095,-340,1032,-747
864,-6511,-4585,-4551,14,172,-653
865,6524,5170,1018,675,-1215,1333
866,2658,-3088,4254,-1038,-1642,-1659
867,4501,-701,404,-1761,170,546
868,-3148,7717,3054,-948,708,-125
869,5943,-1136,-7357,981,222,-1745
870,-5651,6179,-7977,-287,1776,-1398
871,7210,206,6753,-208,-830,-1433
872,-2754,2374,-743,880,-1490,-764
873,-2867,2268,5150,-1881,-138,305
874,-2640,-2807,-4339,539,1014,172
875,-5259,2659,5720,1029,631,-516
876,-4894,6996,4973,-492,1714,270
877,4719,-1510,-7650,1855,-1692,686
878,6983,3835,2394,1977,1330,-1218
879,4445,2683,4846,178,1243,-755
880,-711,6612,7760,1332,419,-965
881,7687,4946,6925,-646,-685,1513
882,7974,-257,-5658,-1401,-126,1651
883,-7325,6662,5979,79,-994,425
884,-4560,-1061,6929,1344,1995,1501
885,-4018,-7962,-3947,21,-342,-131
886,4078,4258,-2608,1180,1524,924
887,4164,-1212,-2091,594,1144,1767
888,2951,-7202,-6239,-31,-1849,1205
889,4448,-5612,-5915,-14,1793,-1690
890,4575,3861,483,1669,808,1320
891,594,-2040,-2728,-1680,-432,1107
892,436,-1965,-2279,-213,678,-1742
893,-2092,-2369,-7386,-843,1483,87
894,-3876,-4496,-7396,-315,-352,1228
895,-5059,7087,-6808,-1624,-1910,956
896,1814,-7072,5850,435,1206,765
897,3869,1110,-6845,1733,178,-1386
898,7532,6817,4244,-1893,434,-1402
899,6598,-972,-5706,-1632,170,-323
900,-1617,1129,-2161,-1261,1999,1294
901,-4946,1464,4907,-540,-1866,1503
902,-167,-6300,6367,620,1734,-1789
903,-659,-1949,-278,498,-290,-318
904,4196,5152,-7877,-353,-978,-1954
905,607,7693,-4126,-200,192,-151
906,-4586,-6651,-3388,-431,1197,642
907,1788,-7167,-4232,-483,1244,-96
908,-126,-5235,242,-663,1502,-383
909,-6391,5259,2978,-668,-1315,93
910,-6893,192,646,-1362,1013,-1355
911,-6863,4502,-5855,-838,-1575,-330
912,7113,-561,859,-247,-211,-494
913,-6230,7746,6814,-960,-1189,1829
914,5791,-5283,1585,315,573,-452
915,-5037,605,-4647,-269,294,-528
916,3610,-1134,-2950,-1477,1984,1614
917,-1360,-3328,6478,-724,143,-854
918,2997,-2358,-6431,1435,-1375,57
919,-2507,-4553,-6816,93,1371,1122
920,-6820,-3735,2443,1228,-1134,117
921,2595,-7240,5987,1919,-1948,-1849
922,7702,-6876,-1575,1834,-1295,1703
923,7989,-6901,-3422,-1040,-744,-530
924,-5990,1552,-357,280,-1337,151
925,-7740,-2718,-4624,-1058,1743,-857
926,-2309,-1820,-1374,-1817,-1977,1540
927,6111,-1711,2050,-665,1913,-634
928,-1097,-2649,7343,-1500,990,1167
929,2496,-7037,2842,1655,1908,374
930,-1057,-4019,-3360,-1029,212,-871
931,4291,3820,6534,1451,-89,1574
932,-5942,-4406,-4107,-226,1292,-1960
933,-6503,-5331,4882,1510,166,1678
934,7240,-3306,5372,-1812,1647,-902
935,3506,5185,1019,-1987,-274,-149
936,684,1765,2036,1685,-294,601
937,6312,2503,1000,771,1048,-69
938,3178,-1073,-2678,1117,-537,391
939,-6199,-2393,404,-931,-506,1510
940,-3833,-4902,2097,-991,1762,1440
941,3870,-4815,4632,1358,-585,-1531
942,7759,24,-4407,1142,-831,-381
943,4934,-2784,5287,1246,-1997,1523
944,-4926,1583,5221,-1945,-1103,-1575
945,4417,5696,-5005,620,1850,394
946,-6677,-2721,3117,998,1713,1862
947,747,-295,-3125,-1003,107,-1057
948,5506,-7627,-6706,1737,-199,1823
949,-296,-7893,-6857,1934,505,986
950,2286,2887,-2213,1351,1903,814
951,-2001,4470,-7552,-233,966,-1734
952,3879,-2995,-7012,-1123,-1308,924
953,-813,-1251,1604,-453,-1126,-1392
954,-7078,-7828,1270,-1859,-1354,-767
955,-4055,7120,-5319,-1639,775,-349
956,-2656,1508,-4798,-498,195,-1887
957,-1227,346,-5495,-252,374,-566
958,1771,6649,-2443,970,-1488,355
959,-3865,6880,-6123,-1238,-1954,-1401
960,3795,-6082,6303,1260,1023,1624
961,-2676,3855,-7346,-945,-1397,-1159
962,2365,1243,3604,-1133,165,-204
963,3976,-4288,6399,-1530,-1097,1356
964,-2249,881,2758,1534,1292,-1643
965,1300,-4194,1899,712,1943,1373
966,1976,-2220,-1636,-842,727,-768
967,-5713,4325,-1839,-1154,1785,1214
968,7147,-2154,-5781,-1290,-1889,-1907
969,-21,-3456,6967,726,1365,1075
970,166,-1390,-2268,-1924,1182,-1802
971,-302,436,2163,384,-1945,1372
972,1446,-2039,-7701,1878,1792,-1203
973,5234,-4875,-7136,-1358,-1414,-1128
974,-1403,4400,-4725,-1597,-642,878
975,3781,6024,4240,1576,1022,-542
976,7621,7945,-7772,-1188,1659,-656
977,6503,5557,934,-728,-1701,1392
978,-7698,-7855,2642,1265,772,-155
979,-5467,-3091,-5122,-793,-1837,905
980,3056,-3221,-6783,-1482,622,1370
981,1568,5952,-473,-1169,-938,1055
982,-2321,4552,-2690,1417,1427,-1307
983,2375,-4188,4134,-1561,-92,1296
984,6591,-2449,-2919,1743,16,1311
985,-4204,5327,6481,-718,-1307,-1363
986,392,-1051,-2953,1838,-1855,1072
987,-1666,7255,-6319,1312,-665,1806
988,5715,-2201,-1561,-1279,1699,-745
989,-5997,4850,6505,1203,-1109,1667
990,-7275,-3598,4986,-1205,1019,-1555
991,3635,-6298,1278,787,120,-154
992,6320,-1612,4967,1321,964,1370
993,-3025,-3057,-1479,-1717,-887,575
994,5970,1611,3449,-1725,-978,444
995,-644,-6368,3763,1033,1820,-1920
996,3561,-5096,7939,793,929,-202
997,6685,4804,1997,-1342,-1647,-1808
998,-1989,2763,-502,-736,1313,-1507
999,-660,6793,45,1636,-1566,-1634
1000,1509,-3154,7372,154,-549,-1767
1001,4131,4369,-3932,-263,-615,466
1002,1456,-2932,3619,-1431,1864,550
1003,3264,-1399,-1641,-759,502,-1910
1004,-538,-7188,2097,-1927,1996,-1462
1005,-5738,34,961,978,-1245,1514
1006,7088,3670,-5650,-648,-1918,-1055
1007,517,5855,4245,-782,758,-980
1008,-3931,1799,-2583,636,925,286
1009,-3698,2538,-6282,-280,553,-1572
1010,3916,-6234,-1720,1060,-1719,-555
1011,-6785,3343,-7946,-542,-709,-942
1012,1888,-2125,-6295,766,1564,1971
1013,3824,3763,-6823,-1974,-71,410
1014,4140,5994,1019,678,1528,-1341
1015,-5059,7845,2915,-179,-1572,-1728
1016,-5658,-2888,-2098,845,1240,1864
1017,5574,3942,-612,1390,-72,-1389
1018,-5839,80,-6817,-210,-1093,-1779
1019,7108,2731,-2822,1165,949,1962
1020,-3288,1613,-7499,1940,-1272,-137
1021,-6871,1494,1201,561,489,-16
1022,-7385,-5841,1786,-1573,-379,-928
1023,4577,7233,-5081,1396,-594,561
1024,-274,-3273,7050,-1787,988,961
1025,4368,-827,-4300,-1512,1177,63
1026,-7180,4314,-854,960,-661,367
1027,7257,3031,-1476,1926,719,708
1028,1221,-6441,2345,-769,-1443,-1384
1029,-6434,2417,7472,-1664,-1418,-373
1030,-271,-3873,-967,1716,-591,1215
1031,-3110,-3674,-2507,504,-1010,-679
1032,1726,-4598,7615,455,425,-1963
1033,4715,7815,-6663,1159,-1876,1260
1034,-4961,-1664,-311,-1135,-360,195
1035,-2811,-1938,7055,1519,-1103,1833
1036,5418,3724,4180,-225,623,-129
1037,1049,-7360,-1900,831,793,192
1038,-702,5628,6847,35,181,916
1039,-5297,-3631,-2999,856,-1456,398
1040,-679,3653,-748,1988,305,-165
1041,5569,-6803,4152,1795,-1691,-771
1042,-1163,-2799,2652,-1186,-1590,-866
1043,-1293,-2022,-7058,-1113,-1109,-147
1044,-6733,7622,-753,-312,316,1843
1045,-1284,-3648,-3692,696,1299,1295
1046,7892,5412,7029,1888,-1803,1624
1047,1665,-3388,2406,-1392,215,-434
1048,6883,6894,3682,1645,-568,723
1049,5688,6784,5806,-1348,360,1336
1050,4778,5535,-3438,-347,-1217,-1576
1051,-1785,6232,4894,1080,-15,768
1052,-3546,-7235,-6697,-1366,1231,602
1053,-4052,7737,-4656,-1665,-563,1346
1054,-5232,4565,3908,-570,110,-1478
1055,4306,178,5842,-597,-673,778
1056,5789,-5733,-6646,-162,-1670,1371
1057,4867,-1779,-6293,1462,-1787,-206
1058,7323,-5672,-4424,261,142,744
1059,7523,4303,7522,1048,-154,-474
1060,-98,1447,-136,361,-1908,-1702
1061,-5397,813,-2565,596,45,534
1062,-6010,-4001,1081,-497,-1113,709
1063,-7647,-2244,-1830,97,421,-590
1064,2493,410,-961,-874,-1262,978
1065,1248,4059,3783,1523,-74,-1617
1066,-1588,1074,6138,288,453,-1321
1067,4348,6463,5963,-1800,-1313,-1064
1068,-2840,3242,310,-1397,-1074,508
1069,-171,-1554,3864,1122,1438,1250
1070,3249,-689,3601,717,-805,1768
1071,-4420,-3915,7628,-640,-1820,-357
1072,-6157,-4631,-7575,527,993,632
1073,-933,3446,448,434,261,-1401
1074,-5822,-503,744,-444,-1018,-1902
1075,7875,-5711,-7552,-12,-1179,1459
1076,-6319,4114,-2565,-1829,1861,-500
1077,6392,7393,1440,1026,1724,1669
1078,-1987,1467,-4345,995,-606,1605
1079,2838,-4177,-5780,623,-190,-1141
1080,7366,119,3980,481,-1896,1890
1081,-595,-2361,4259,-799,-194,-736
1082,7651,4819,7836,-922,1101,-894
1083,-7591,-5693,-7358,-1881,-1609,-1544
1084,4310,-1398,-2109,-1716,1276,846
1085,4812,2564,-4406,-1915,779,-1273
1086,-6940,-6718,-5449,1489,-673,-91
1087,-3825,6085,6013,302,1606,187
1088,6500,374,1622,-1282,-1508,902
1089,3045,4562,3361,-279,801,-729
1090,-743,-5898,-5361,-842,45,-851
1091,-3186,-3691,-3772,-45,884,1928
1092,-5311,-306,7432,128,1945,1044
1093,371,-7924,3904,1205,1929,826
1094,4935,3960,-1964,1240,1691,38
1095,-2804,-5850,-7234,-916,1572,1949
1096,891,-1689,303,-789,795,-454
1097,3534,-5201,-7809,-950,-33,711
1098,7450,-3935,-6405,-763,-629,-1856
1099,-1674,-3574,-5873,-1039,-1012,1037
1100,-4755,-6226,4411,1384,1127,418
1101,5194,6324,5419,-662,-1451,-563
1102,-1202,1972,5468,-1625,1365,11
1103,7980,-990,-7247,-1830,-1525,-1872
1104,-6257,2979,2180,-1199,-955,108
1105,-2825,6191,5758,1510,1204,906
1106,1948,-3542,-3504,1818,767,293
1107,2557,1706,-6117,1765,-866,1251
1108,4058,-7854,591,-1281,-1493,-253
1109,-5170,-940,5763,1539,-69,-1165
1110,6907,6153,-4128,-1169,136,-1279
1111,321,4474,3790,-1875,1927,-756
1112,2615,4045,-1490,1423,1375,721
1113,-4355,7914,5880,1544,-539,584
1114,848,1902,2830,-1873,-1984,1201
1115,5864,6061,-4015,502,7,-1775
1116,2632,-2406,1896,410,-872,165
1117,-3530,-1683,-6904,414,-1723,-19
1118,-2134,5370,-7471,-1999,1968,898
1119,-1426,-4209,4678,655,-1289,-700
1120,-6524,7807,5119,-489,-603,-1448
1121,-1407,-5059,1791,1682,1423,-345
1122,-2452,-7125,-3940,1218,1997,1168
1123,5818,3496,1498,-1841,1845,-244
1124,-4544,-6152,892,-1742,-1795,-1517
1125,1352,-3004,-606,-1337,-942,-1290
1126,1890,-2786,-4311,-151,-563,-549
1127,2562,4520,2146,522,364,-179
1128,-1475,-2683,7226,-723,1404,1080
1129,2141,3453,3577,1955,857,210
1130,7744,4507,1143,-1131,1138,913
1131,3892,-2373,-267,-315,-719,1452
1132,-5668,-5026,-571,435,1219,87
1133,5623,2663,-7406,-572,190,862
1134,-5796,-4408,-4370,1969,-258,-1478
1135,4626,-7040,-6927,564,-146,-549
1136,-3623,7621,-588,-1576,505,-1151
1137,-5983,-6423,6872,-66,-667,1344
1138,-5508,5165,5080,1808,-494,1871
1139,-4567,2290,-514,1406,-989,141
1140,6075,5994,790,-1423,-1313,406
1141,-6578,7018,-2530,-676,565,848
1142,1065,5274,-974,-1213,1600,-766
1143,-2825,3191,3760,1601,-741,1420
1144,1445,-4739,3020,1346,600,101
1145,3909,1537,2994,-857,1553,-804
1146,-5275,-7938,5878,-1416,899,-1116
1147,-1503,-143,2455,-1746,1473,-837
1148,-5056,2275,4727,1854,1520,605
1149,-2903,-5022,414,1972,309,1360
1150,-6471,-5446,1753,-1123,1599,-700
1151,1407,5719,-2677,1211,187,721
1152,2533,1397,-1242,-50,1850,1272
1153,5818,5185,2138,1012,1189,1147
1154,-6028,-2714,-3265,-1710,-691,243
1155,359,7373,-5366,-1056,1849,938
1156,-736,3997,7794,1951,91,491
1157,6998,-4395,-5733,358,-1004,-572
1158,-5982,3348,3091,-1607,-1038,1250
1159,-283,6117,5027,355,482,-323
1160,6846,-1731,-4173,-1993,-610,-1728
1161,-884,641,7285,-1620,1779,-307
1162,2898,-1674,-4206,-1219,1857,-1726
1163,-3469,-3456,1350,128,1757,1740
1164,6923,5539,-3610,-1027,-1075,-800
1165,1462,-7592,1356,314,-1132,-1429
1166,-752,1805,-5174,291,981,-134
1167,-4776,-1634,7532,559,312,627
1168,-4071,555,-6966,-143,1016,-1966
1169,-4641,-440,-2989,-294,1885,-1982
1170,634,6910,-7499,1958,-546,1327
1171,-1610,2870,5423,-1949,1120,-1443
1172,-6857,-4718,7185,-584,-1304,-1109
1173,-1673,6726,-2678,414,1946,-1335
1174,-7991,4140,-1727,262,104,-468
1175,4888,-3943,-4794,562,-462,130
1176,395,2552,4899,-1594,-301,-504
1177,-743,-620,-4160,-115,-348,1674
1178,7026,4158,-2545,312,-542,1792
1179,-7457,4231,692,-1608,213,-1561
1180,6370,-5753,-6122,-640,-1244,749
1181,4040,7666,-5435,-1334,-1800,-515
1182,919,-7675,-7409,1418,-992,-1465
1183,4103,3729,6646,559,-7,-1739
1184,3893,2305,-5499,269,562,830
1185,3351,2231,7728,742,1487,1329
1186,-7737,7675,5876,-654,-378,-1912
1187,-2874,-5464,-500,-730,646,-447
1188,2657,1768,-6509,-1139,-699,1398
1189,3689,-6464,5028,1400,39,-893
1190,-6169,2319,5883,-655,1773,1506
1191,1679,-217,3530,480,1603,-925
1192,-159,308,-725,-776,1304,1664
1193,-6276,-1218,719,5,1489,-510
1194,374,-5180,-2916,-1643,-1493,37
1195,-7986,1579,5434,1978,1853,-467
1196,-1130,-6765,2716,-133,381,460
1197,6965,-454,-4008,-851,-253,-584
1198,4041,1207,705,1339,-1736,484
1199,5375,-6916,-3214,-1943,-47,-1498
1200,-6564,1489,-1452,896,-1069,-1253
1201,2529,3839,-5589,1229,-199,378
1202,1118,-172,-2934,-994,840,321
1203,4921,2056,2751,-1801,-1278,-312
1204,-1168,-3358,7971,385,-300,-611
1205,7480,-1665,5448,-1583,497,1738
1206,1516,5586,226,-676,906,277
1207,1401,2097,1430,366,-637,1055
1208,-3373,7256,1236,-537,1607,-153
1209,-3225,3212,4482,-252,882,-107
1210,-750,290,7122,947,1503,227
1211,-1359,-6635,-6741,-244,1430,-1868
1212,-828,-5236,-7815,-879,-265,-1048
1213,-5552,-5554,-4225,1413,1198,-1438
1214,-2023,-267,-5561,-787,-1560,-946
1215,-6906,-6544,7943,1452,1460,1933
1216,-1792,635,-1252,-163,281,-435
1217,-4562,3918,-2036,1571,206,-635
1218,-352,-576,2345,1850,-795,-591
1219,-7315,-3225,-3145,-1592,-1072,1099
1220,-2805,7746,-5979,-838,438,-176
1221,4363,-3828,-4919,-195,1970,237
1222,7176,-783,1035,-1531,560,277
1223,1306,670,-1287,-474,202,-1237
1224,-1744,1079,-5001,-340,522,-73
1225,7102,6956,-5928,-162,1699,-1776
1226,-1205,-3961,874,37,-589,1122
1227,5524,763,-7527,1263,1227,1724
1228,-4727,5447,-1247,974,1706,-1885
1229,687,-1687,862,-265,-1504,-1171
1230,119,-6273,2183,-227,-908,-1798
1231,-2702,-1516,6781,1349,-1295,896
1232,-7418,-7532,6709,-1908,536,62
1233,1259,-7178,-7104,-55,-1573,-768
1234,-5803,1966,-4453,-1198,1353,1942
1235,-3965,-4482,-7047,1419,-1838,1220
1236,-6860,6655,5917,-1801,142,457
1237,-7016,414,-5301,1577,-1412,-1138
1238,6323,4590,-4882,57,1568,-1632
1239,5888,-6975,-5224,163,-1153,499
1240,7462,5940,5783,1968,-1573,635
1241,-5175,555,-2164,-220,-1005,-1707
1242,6047,-4946,-2829,1619,1118,-715
1243,-3707,-2763,6616,1363,1351,960
1244,1162,-7619,-5199,-366,-335,1109
1245,-5286,-6929,-2702,1761,713,1672
1246,-3021,1583,4256,1066,1571,-1025
1247,-3478,7827,-4086,1902,29,263
1248,1634,7962,389,1338,-422,-1153
1249,-4770,7215,-2105,-615,1091,1324
1250,-2291,535,4475,-1572,1532,409
1251,854,5391,2940,-914,-253,1728
1252,3944,-6183,429,-207,-887,-1714
1253,-4329,4347,-4603,384,-1014,-825
1254,-4346,-4644,-2939,833,-495,-906
1255,7298,4351,5268,810,1960,-1644
1256,3573,3687,-3243,161,1445,-249
1257,-3077,7442,-913,798,-418,-1606
1258,-4415,2371,-2029,-387,968,1485
1259,3023,-6078,2498,1844,-750,1343
1260,4274,-3604,-4516,-984,-836,-573
1261,-3439,7922,2795,945,1033,-1036
1262,2948,1643,7112,-128,-1378,878
1263,-4554,3398,6054,1279,514,623
1264,-2615,4279,-5514,-89,-650,-707
1265,3094,1102,-2192,-1359,-1587,441
1266,7161,439,-973,-1979,801,1972
1267,2151,5092,969,-918,-1165,-1289
1268,4887,-874,7518,-1320,-1817,-202
1269,5517,-3276,2543,1464,516,650
1270,1895,7254,-3720,-108,270,-898
1271,4370,7134,4526,-1271,-45,-188
1272,-2714,6586,-1030,-176,-502,-1222
1273,6836,-3406,-2971,-212,-1448,739
1274,-3179,2247,6778,126,-315,-353
1275,-4676,-91,5092,1449,1143,-334
1276,-3058,-917,7078,-1706,-749,702
1277,-3806,1400,-6793,-1908,44,-66
1278,3417,-2006,-5987,-1277,1931,1552
1279,5086,-7500,-5142,490,497,-436
1280,-2073,-6887,7875,-228,1919,1183
1281,-6370,4365,7390,1176,-489,-1120
1282,6624,-6008,-7492,1522,1919,1491
1283,5699,1140,-3907,-471,1633,-908
1284,-1657,4861,-2946,-1443,-1763,119
1285,4233,-30,2460,1130,-1016,873
1286,2056,-545,904,-1806,-1010,132
1287,-6467,-589,239,-1528,-428,929
1288,1009,6586,-305,870,1178,1630
1289,-1971,-1400,1607,1472,-503,-1030
1290,2963,-7034,-5190,1385,-1221,-126
1291,-5046,1304,6648,870,242,-697
1292,-2746,616,-7646,-1059,-87,151
1293,4214,-113,-378,1202,-1691,951
1294,-3124,-3358,6460,389,1414,-1119
1295,1115,4299,-7450,195,-1081,641
1296,483,-1790,-970,-501,-1097,-626
1297,-6759,-1735,-4711,-1173,875,-648
1298,-6871,4395,-3373,376,1980,184
1299,3134,3668,2040,-403,-211,-1329
1300,5255,4788,-1711,1373,-1515,-525
1301,6549,-3555,6943,-256,1208,386
1302,5959,6129,6010,-1358,260,-1158
1303,5835,-1091,-714,-749,49,-341
1304,-173,-2742,6722,-1704,1092,559
1305,2011,6891,-1853,301,-398,-89
1306,-7533,-2659,2744,1316,-554,1846
1307,4445,-1176,2682,239,-514,-1445
1308,-3486,5792,4441,754,-1445,224
1309,-3952,722,5945,-1521,-1452,-729
1310,3325,5325,-1204,1748,599,-1397
1311,7545,5690,-3280,142,-1660,49
1312,-3155,2357,7999,-597,1113,1769
1313,1049,2373,-7996,728,322,-414
1314,2340,-5822,6617,-1725,-760,772
1315,2566,4615,2359,-1314,-344,407
1316,-7289,7510,7517,655,-423,-1832
1317,-4103,5873,-873,607,-344,-1472
1318,2009,3449,-5957,-1310,-1045,-379
1319,882,-449,-2829,1739,-23,1788
1320,-6308,7118,-3819,1799,-715,-7
1321,-6083,3477,-7576,-66,-178,1493
1322,6692,-4843,-1213,-770,-1607,-1927
1323,-4134,-4088,3191,-279,796,-1882
1324,-5589,-6206,-6579,-945,795,-1586
1325,2123,1133,4888,-1516,87,316
1326,-6073,1269,6423,-658,1443,-1173
1327,2420,-3129,3352,477,274,-709
1328,3345,5474,-6659,373,-678,-1301
1329,-7534,1016,3565,-747,552,401
1330,4413,6729,6296,591,1640,1914
1331,2338,1694,1268,-644,-789,730
1332,-4864,4283,3872,269,-1392,-312
1333,-401,-4323,4625,-1734,-911,228
1334,517,-1482,4931,-1328,1361,1557
1335,5432,-624,-4011,1349,-132,1005
1336,1279,-3496,-7185,-657,-1315,1544
1337,3789,2511,6008,-378,-1749,505
1338,7368,-6185,7710,1775,-1130,-863
1339,-2677,482,7870,295,1125,1285
1340,-531,777,3691,-1801,306,-976
1341,946,-6581,-5751,-1792,-546,-1112
1342,-1779,3379,-7445,1373,-1533,-1182
1343,-674,1309,6881,1538,-1423,788
1344,4446,-2075,-1715,-566,-85,-935
1345,392,-1339,1933,-1328,-1944,211
1346,-5573,-3481,277,1306,-1145,-1131
1347,511,-6165,5951,-1016,-1783,39
1348,4926,-848,-2165,1000,-778,-1393
1349,-2899,5982,-5625,-594,-467,-830
1350,2740,5984,-4748,-46,-849,364
1351,5476,-7089,6315,-167,744,-371
1352,5126,-7571,2833,-1984,683,-607
1353,-717,1934,7975,316,-390,165
1354,-4697,-5383,1679,1935,204,-1740
1355,-7537,-6383,5414,1545,704,-572
1356,-7288,6568,-3263,265,-1481,132
1357,-7952,1894,2817,1873,1802,-802
1358,2852,-6571,5421,-1742,-1612,-422
1359,653,3155,5890,464,-930,807
1360,3058,-6496,7032,-1230,-685,242
1361,-5850,-1513,-2080,1664,1654,-1950
1362,-3570,2701,-1437,849,229,1886
1363,-3450,-4435,1318,-317,929,1041
1364,-4129,-6524,5930,617,-823,1083
1365,-4119,1038,-7429,-1478,-1730,-609
1366,5324,-6260,5503,291,828,544
1367,961,-6906,5420,883,1294,-329
1368,7539,-2752,-6305,-1034,-750,1906
1369,-7846,-671,3992,1701,52,-163
1370,7688,914,7378,-1854,-1001,-113
1371,-2653,6177,757,-254,-1689,312
1372,-3738,-3394,-7997,1422,-1841,483
1373,7537,-1879,-396,1241,338,-985
1374,7687,-3528,4452,269,1570,1840
1375,4667,343,-1968,-1031,1056,-405
1376,-5336,-7617,4034,1298,1034,-1523
1377,6248,6635,2293,895,585,-629
1378,-4623,-4284,-7608,1951,-428,353
1379,4459,-2676,7539,-1344,-431,-347
1380,-3426,3526,5884,1585,186,1876
1381,1008,-4902,4545,870,-657,297
1382,-3109,3132,6236,1019,589,-1735
1383,7403,7845,7744,975,-1040,-1632
1384,6904,6145,3685,690,-1050,-446
1385,614,2947,-2697,1762,-1493,-483
1386,1313,277,-469,-67,438,1269
1387,-3193,7584,-7892,333,-649,-787
1388,-4892,7078,1064,-1882,1263,193
1389,-5804,6605,3388,932,-1305,585
1390,-5602,-4673,-7179,1975,513,1584
1391,-44,-2412,6445,-1022,-1765,-71
1392,1290,-968,4905,438,-1546,-555
1393,7319,7438,5234,-1128,-268,-1690
1394,-7734,797,-3934,733,647,-1788
1395,7582,3014,1413,1465,-1528,-1711
1396,6730,-7009,2062,1240,-816,-89
1397,-3896,6516,-1383,-229,-618,1691
1398,-5537,6819,-806,973,1923,1838
1399,-6492,-5063,-7744,1802,572,-1588
1400,-3494,6046,-4483,-1669,763,465
1401,-597,-2971,793,301,-559,-1966
1402,4552,-1810,-3169,-1554,32,102
1403,822,-3532,-3831,1800,-1144,-1158
1404,3186,7169,-4763,785,630,1952
1405,375,6880,-4426,1986,1355,-1431
1406,3825,-5702,3699,1594,654,188
1407,4842,-6775,4429,-700,136,-1561
1408,-3156,-5842,3871,1858,-1450,-392
1409,-5893,1695,622,-1536,-695,-1679
1410,4564,4179,-1435,1774,-65,212
1411,2659,-2162,2556,-405,1821,-251
1412,-5422,1923,5340,-621,1108,656
1413,-4043,425,-2407,1335,88,-355
1414,-6926,-2973,1614,-1244,-791,-665
1415,691,-6954,6594,376,1139,-366
1416,6263,-738,-3458,1490,562,1709
1417,-6005,1778,-3866,1691,-1855,1663
1418,6416,-1595,1390,-1503,1039,-1519
1419,1595,-6917,-7400,-518,1590,-1106
1420,-5037,6182,-2295,73,1253,1559
1421,4386,1790,4555,-240,1345,845
1422,6046,4551,-4276,-1682,104,-1468
1423,-7347,-6134,-6887,-645,-913,1012
1424,1504,-7022,-3976,-1336,-1433,107
1425,5678,-2512,-7477,332,237,1442
1426,-7003,7268,-4459,1237,1927,1964
1427,-1357,-5409,5152,1831,-1351,731
1428,56,7317,-1353,-1877,-754,1055
1429,-3104,-3703,3033,267,-506,77
1430,-2043,6600,-1256,1900,-1096,495
1431,688,-902,1607,-1649,694,802
1432,-7303,-4215,-1126,1501,564,87
1433,-788,4487,2313,-423,1753,-1704
1434,6607,-5849,1223,-565,872,-1551
1435,-3354,5344,-235,92,989,-684
1436,-3707,3871,1573,219,1230,1106
1437,-2162,-1135,-5307,-1643,1537,923
1438,6697,1291,5385,1072,-1160,1146
1439,754,-4044,-2941,-1539,192,1626
1440,5731,-5004,-3832,688,-302,386
1441,3736,1963,2660,-577,1448,691
1442,3394,-6728,3515,1184,-902,-1299
1443,-3029,-4659,1825,971,-1230,739
1444,3742,-451,6265,-1895,907,1617
1445,-1269,189,7419,310,1336,209
1446,-7592,7455,-7942,2,-291,-1770
1447,270,-7246,5340,-698,-1895,-668
1448,-3257,-1363,-2347,-1539,-673,-975
1449,913,-6577,5820,-1557,408,1916
1450,-3862,6634,2164,-1025,-411,-380
1451,5042,-564,3834,616,530,438
1452,-1504,-1329,7029,1435,-374,503
1453,7652,-1288,-3766,465,867,-469
1454,5760,1578,-6898,119,899,286
1455,-1656,-6986,-5033,385,-845,-1576
1456,2236,-2395,-3259,1100,59,-1110
1457,6407,944,1495,209,611,-1838
1458,-4473,7826,-6946,828,-950,606
1459,1368,4132,-1881,-257,-616,-1565
1460,891,2966,-1462,-1639,-1951,-715
1461,-1849,3324,-484,6,-279,1641
1462,-6503,1497,6762,1153,-1645,-1439
1463,5363,-6839,-4046,1356,-1567,738
1464,498,-3578,4137,586,728,1765
1465,-2553,-7439,3552,-939,-1191,-1290
1466,6389,6602,-5261,-561,408,81
1467,6308,4052,-1295,-17,-64,1773
1468,-1070,-287,-6460,-1433,180,-438
1469,-6659,4999,-1212,1637,-1216,181
1470,-3229,-384,1337,-1559,267,-941
1471,-2088,5929,-360,-1708,-1873,-1912
1472,2621,3340,-2203,1336,-1832,-1912
1473,6871,-5884,1650,1853,422,-1818
1474,-6880,5841,-6858,-724,1387,-1848
1475,4988,7632,198,1926,753,769
1476,-2657,-4158,3076,537,44,1049
1477,1396,5426,3329,343,-1588,-1465
1478,-3463,2195,-3519,131,-1227,492
1479,1850,-918,6304,-622,1485,1560
1480,-6658,-6904,3750,1168,-259,726
1481,-959,-1797,2642,1074,334,-1094
1482,7449,7870,-4451,1476,740,1034
1483,6081,5164,7994,-1609,-1556,1331
1484,-6406,-6681,-4283,-1442,-1616,311
1485,3682,-7540,1003,-240,480,-1178
1486,-4201,-3413,-3918,1167,-69,201
1487,-1504,-2530,-3798,-1660,1673,-1287
1488,2791,667,-680,-1706,640,1271
1489,-2607,2854,5114,951,1449,-1060
1490,4080,-6685,1126,-27,-1459,-307
1491,-4656,4047,-744,1156,-780,-558
1492,-3017,-5348,-4436,-719,-1290,-725
1493,956,-377,-2324,1342,334,-1493
1494,6535,177,5864,617,474,-381
1495,7626,-4449,3386,926,-788,-794
1496,-6462,-515,-1554,207,1294,-1254
1497,-5285,-7806,1327,-36,2,1605
1498,5504,3406,2970,1552,-1117,-1832
1499,-7831,-3617,5023,-1381,1892,-1118
1500,-4539,1726,7748,-1259,881,-203
1501,1580,-2999,4361,-1552,1096,1223
1502,51,-5865,1315,-726,831,-337
1503,-7104,-2964,2465,1013,384,-13
1504,7468,-5045,4712,1431,-1278,-1242
1505,-1437,-6263,-2535,1750,-128,1558
1506,-2662,4184,-2046,-1642,1116,400
1507,3190,-300,-5284,1749,370,-690
1508,-141,1696,-1858,1915,58,-1951
1509,3542,-132,-4038,759,-979,-1085
1510,-3134,2377,-3768,-182,-67,-1071
1511,3277,1865,6807,-681,-868,1011
1512,5991,-1,-6605,-205,1778,-1989
1513,-7927,-5831,2917,-52,-1929,-1035
1514,-3888,7272,5688,563,-1115,-1458
1515,3448,-6790,-1042,-421,-1081,-123
1516,5942,-5363,-1424,162,1951,-1837
1517,4551,1552,-5758,-873,-1640,-568
1518,-1230,-2908,3884,829,-40,-986
1519,3281,-2747,-1848,910,1632,1768
1520,7225,-3841,2071,231,-978,291
1521,171,-5141,418,319,1405,1100
1522,-5430,-5683,-2291,-1532,1282,1562
1523,1563,-2503,-2233,1989,358,197
1524,-2109,359,-5960,675,-1605,-1621
1525,271,-6182,-5196,-210,-284,-1058
1526,5247,4405,-2339,-1821,-968,-1518
1527,-5892,-3177,-3211,1599,-1077,407
1528,-4431,3836,3079,-596,-1346,595
1529,5274,4761,2984,1378,-1114,-468
1530,7869,6121,-431,-1982,-1591,-1688
1531,-384,6913,-6210,1444,-116,1904
1532,-7475,1554,2916,1298,-1429,-1150
1533,-1026,-1141,-4617,357,-1981,-949
1534,3178,-1186,-6089,441,1437,1612
1535,3585,-8,-3610,1854,971,-391
1536,-3694,224,-1992,-1271,778,-684
1537,7017,6913,-2544,-145,900,26
1538,-1336,2013,-2231,1990,-1420,-504
1539,7080,-934,6921,1679,1273,63
1540,-1763,691,6817,-1532,81,196
1541,6394,-3228,-474,-497,-1256,-1769
1542,-7314,-6946,-3162,-554,-837,715
1543,4389,-7356,-6554,-873,-1221,408
1544,-5134,368,-1720,245,-345,-1306
1545,5101,-6183,136,372,492,541
1546,-6671,3859,5395,834,946,-230
1547,-4210,-6709,-906,1601,1813,-1090
1548,-4347,4733,5798,-480,-778,-1919
1549,4612,-5682,-4648,-1709,1804,750
1550,6033,1059,102,26,290,-534
1551,3173,1274,6505,-929,-334,-910
1552,1793,-5299,-492,-1968,541,611
1553,-4138,-927,-671,-880,-980,-12
1554,95,-3476,-347,1374,-1485,429
1555,-3313,-879,5819,-914,1401,-1834
1556,-1463,3931,-5960,-1819,-776,-687
1557,-7823,1480,7639,841,1089,-938
1558,-5542,-3249,309,902,308,-181
1559,-1288,5044,3497,787,-1210,331
1560,-5743,-2301,6185,-1918,-492,53
1561,2567,438,2707,1722,1071,-265
1562,-98,4631,-2198,963,1012,-1037
1563,-4200,5311,2462,1676,1782,-597
1564,-2947,2098,3347,-147,1437,1800
1565,-3533,7047,2439,486,1512,-100
1566,-4650,6900,-7773,603,1378,1940
1567,-3104,-7134,915,-66,-1478,-1763
1568,5480,2713,7752,1323,63,354
1569,1008,-997,2262,385,1008,871
1570,7933,640,2479,1863,1560,1464
1571,-5611,7457,-581,89,-802,-82
1572,3061,-5191,6756,-175,1271,-304
1573,1098,-1455,7830,445,-142,1522
1574,112,-3045,-1721,-1983,1091,1131
1575,6582,-529,943,-1249,-1129,-723
1576,-7953,5740,2586,1056,-1921,1532
1577,564,3755,4619,1531,-264,1510
1578,3053,-7500,-7179,940,575,-68
1579,-3082,-541,-1907,1007,1482,-1031
1580,-4659,-6840,-5737,-46,-1873,1381
1581,-2158,6450,-3641,-1370,-1490,-1295
1582,-4044,-7682,6146,407,1422,-1593
1583,-2498,1026,-1195,-205,-1004,-876
1584,-4924,4266,7002,480,-761,321
1585,6795,-2205,535,-1573,301,376
1586,-3610,-1090,1024,-191,-1398,-1365
1587,4380,-7703,7832,-1762,-714,1787
1588,2196,-7935,-6344,575,-498,737
1589,-3590,4174,-673,470,134,467
1590,831,-4120,2568,-670,234,-1511
1591,5928,-6952,4396,1383,1535,545
1592,6393,-1021,-2941,-1076,-1454,555
1593,4743,-3179,-2617,1080,481,-1378
1594,3943,-6551,-1917,435,-1224,-738
1595,-5070,-2044,7517,652,-1165,-949
1596,-6883,5235,7083,123,1742,-428
1597,7016,4367,7650,-855,1524,846
1598,-2924,-1372,-3848,-186,-1712,685
1599,719,3873,7987,-938,1522,-1776
1600,6077,-6976,-4065,1138,295,-1726
1601,7018,-187,-1062,-419,-576,-614
1602,-3819,6695,-2166,1225,-1510,1749
1603,-6462,-969,7711,1511,-1307,607
1604,-992,-6209,-5246,-134,-262,-1894
1605,7864,2098,-5905,-1383,-1093,88
1606,2747,2104,6493,-1885,-1904,245
1607,-944,7160,5219,-162,-42,1511
1608,-401,-8,2534,1767,1517,-776
1609,2243,-178,4651,-120,898,869
1610,1652,2435,-2697,80,-829,1040
1611,-6129,7817,6010,-1348,1586,-483
1612,-7019,-2264,1984,-1590,676,685
1613,929,5511,7539,632,-971,-1739
1614,-1228,2326,-2829,1444,-1200,1231
1615,6078,1995,3766,1583,-1083,-767
1616,6947,-2173,-7429,448,1323,1490
1617,5185,-1780,5594,85,1780,-1646
1618,5938,4037,-762,1898,1086,1578
1619,6613,4367,748,-1076,-1449,-249
1620,-5860,-6393,-4228,-1603,-432,1000
1621,7226,-6685,-6415,-1019,-918,-1279
1622,440,-6896,-3440,786,-596,109
1623,-3107,6868,-4251,1932,557,1915
1624,-4432,3465,-4198,-540,1296,-447
1625,-3170,4639,1050,-1045,621,1078
1626,4959,-34,-7365,-781,860,-1320
1627,3965,5027,3817,969,-1099,-1767
1628,-5032,-905,-3171,-1696,-913,-689
1629,-6138,2259,3364,734,-171,-1679
1630,1417,3403,939,-1058,-1453,-25
1631,-6994,-7969,1032,-316,-469,-1734
1632,-4944,-1538,-1014,103,554,1435
1633,-4624,-4528,4132,-1035,-829,1042
1634,1628,3381,-6739,-1828,1192,1424
1635,6263,5036,3011,-1738,1138,981
1636,2874,-2335,1713,-1064,1352,133
1637,-7748,5322,-3413,-1830,1500,-1280
1638,-5864,-4246,6565,544,693,-1112
1639,-4300,-5139,7664,850,-1956,-1418
1640,-664,5311,2268,-1158,1527,-919
1641,5773,-3513,2155,-975,435,-1002
1642,3379,2515,-2021,-635,1401,746
1643,-4991,1869,-3140,740,-1129,-1177
1644,3186,3385,197,-945,396,-691
1645,-4968,6300,7252,475,-49,399
1646,2122,2790,2563,-662,-1098,-847
1647,-4317,1553,7826,1133,708,-1931
1648,-7803,5050,6843,-117,-1160,-648
1649,7818,1012,7283,-1366,-1761,1567
1650,7889,-7022,-3988,66,-1969,-537
1651,1088,5146,-5272,-351,-2000,1100
1652,6495,-2461,6891,-450,-1116,728
1653,6548,2495,6831,228,165,1784
1654,-6658,7046,4813,895,-763,-444
1655,-5280,-7833,-5050,1508,-620,-1461
1656,3920,-4772,5866,-1540,-1547,-1148
1657,341,2411,3245,-478,-1617,-1644
1658,-4955,700,-1153,-1100,1988,-675
1659,-1733,2755,-5926,1828,182,-954
1660,-3198,2402,-1638,-776,-1791,1274
1661,1756,1930,-1080,-648,420,1381
1662,-3183,6100,4813,-1469,431,763
1663,5839,4542,2675,-649,533,-1537
1664,-4028,4589,-3719,1482,-1051,1979
1665,6080,5385,4740,-854,689,1216
1666,5487,-6325,3692,-620,1587,645
1667,192,-3896,1627,-464,1311,-348
1668,5237,1459,-5931,-1904,-670,117
1669,-6040,-1151,5428,-1686,547,-1765
1670,-6766,-1652,7532,1963,-650,1377
1671,-4353,-5731,2484,-1323,-1531,-725
1672,-1139,-7992,616,-422,-57,1295
1673,4637,4573,1648,1139,1956,-29
1674,984,5288,-3861,-1576,845,835
1675,1216,1189,-460,-836,185,-1976
1676,3818,-2472,-4131,-576,1606,1713
1677,4161,4955,5838,-1845,-279,-447
1678,-379,-1149,3930,317,-766,423
1679,-6176,4362,1975,1630,-1695,1316
1680,6805,-7058,-5541,1315,1545,1410
1681,6197,-6910,-1370,652,339,-1173
1682,1908,-410,-2328,0,-222,-1254
1683,-4194,-2518,-2801,-506,1046,-877
1684,-5594,-5960,6817,-257,-521,1256
1685,-2062,7950,5509,-1868,-71,939
1686,4017,-6902,2519,-1359,731,847
1687,7318,-5315,-2971,1201,49,608
1688,4694,-6559,-1178,313,-409,778
1689,-7606,6512,-360,1679,1728,1748
1690,815,-7478,5982,-472,1008,790
1691,274,2168,113,1972,-443,1264
1692,319,2679,-1531,369,600,-466
1693,4542,-3299,-2567,-1613,1972,-1752
1694,7494,-3782,3935,-88,996,1352
1695,7279,-2281,-668,-1096,1691,-1689
1696,5868,-1717,5066,-1562,-196,-1565
1697,-351,-2176,-889,-1496,-1000,619
1698,6106,1222,395,1335,1178,-1690
1699,4511,3609,862,1551,-554,-259
1700,6951,6192,-6513,1845,-1874,1223
1701,-6112,-3599,1450,-1988,957,1855
1702,-5990,3543,-5780,-720,1800,1245
1703,-3854,6796,5752,-583,1956,17
1704,3162,2865,5117,-1400,-577,1954
1705,-7686,-3262,11,1321,-513,-236
1706,-5914,-4446,6268,186,-670,133
1707,130,-3904,7747,-1165,209,-1196
1708,-6623,-1432,1845,-893,1118,947
1709,7390,3203,-3037,-968,-116,697
1710,-2180,-3906,-2923,277,1829,-30
1711,4990,2205,-327,-501,233,-636
1712,1472,-1151,-2089,684,-1944,-866
1713,-1953,1417,6846,1243,-1768,-1916
1714,3857,-5895,-201,1050,-1591,722
1715,-4378,5549,4644,1010,1113,-419
1716,-767,-4853,3666,1966,-441,1552
1717,-2837,7712,-7634,-1528,-1218,777
1718,-6813,4328,-6950,-1424,-767,1088
1719,-3312,3694,3856,830,-643,1622
1720,2763,-5354,4270,884,-17,58
1721,-7997,2067,-6532,617,-1435,-362
1722,-2777,-1719,5686,-369,-414,549
1723,1565,4156,-581,-1585,1126,1290
1724,522,5856,-2735,-1501,-1975,-1678
1725,6372,-1648,-7541,-69,-709,1636
1726,-6867,-322,3390,-684,-111,-1719
1727,-3260,97,3511,1790,1691,-1949
1728,3640,-5579,-7411,-1156,-1172,-1025
1729,67,-4028,-7414,-785,873,1136
1730,-3931,2412,6869,-191,1229,570
1731,4410,7220,2378,277,1483,-1929
1732,6032,895,1274,-757,-862,-349
1733,1037,766,6416,-542,-1294,1381
1734,2110,1454,-6309,1695,-757,117
1735,-641,1577,4421,1030,93,468
1736,5416,6123,-2012,-1650,1520,1653
1737,-1579,213,-2011,-1288,1044,-1440
1738,-4803,7774,685,1882,-1816,-1985
1739,2737,5152,7832,-377,636,-337
1740,-7934,7144,7976,-1015,-1595,507
1741,7820,6819,-3751,-250,-962,-1496
1742,4581,-325,-876,-303,1212,-1713
1743,-7635,-3125,-7770,-1051,1535,-1263
1744,7164,5464,-4842,-1722,-1551,-1986
1745,5776,1480,-7823,-694,-227,149
1746,-5406,-3381,-6307,-317,1983,-1225
1747,-1270,7988,742,-1109,-407,-992
1748,3903,-7858,-651,-407,154,1235
1749,4404,5189,731,-1724,617,1744
1750,995,-5695,-5757,-1829,-1113,1412
1751,2719,-5463,-2765,-1814,1095,-106
1752,5303,1525,2247,-1668,-784,1292
1753,-7112,1510,-4710,-964,131,1071
1754,-1871,7342,6080,1292,1585,-983
1755,5590,3674,-626,1846,-1909,232
1756,-7928,7069,4447,-847,-446,-1631
1757,3945,6267,-2360,169,937,1314
1758,7077,-2196,4055,-1492,975,1935
1759,7695,-7487,7960,18,-1806,1412
1760,825,-3477,4479,-1325,-853,-1661
1761,509,97,-7027,73,424,-784
1762,2998,6212,-220,-1901,1235,1755
1763,-7029,-7343,5425,-688,-1501,52
1764,-5469,-5605,-3383,8,1824,186
1765,-1505,7049,-2174,-108,-396,-833
1766,2391,508,-5597,1624,1511,-915
1767,-7386,1909,3146,323,-1716,-1440
1768,-6434,2850,3359,-1301,614,974
1769,704,5216,7034,156,109,-554
1770,-3381,-3835,-3934,1846,1355,-561
1771,5973,7802,-7748,-859,-1666,1116
1772,-7660,119,-6445,884,-1459,-547
1773,4431,-5238,-362,-791,-666,-119
1774,6219,-5668,1851,1102,1207,1056
1775,1169,-4269,-1497,1826,-977,1139
1776,6747,-3819,-2750,411,1809,1799
1777,-1006,-4189,-6121,368,597,-301
1778,6530,1692,7044,690,1009,-1319
1779,-2668,-7478,-4404,-547,1374,1413
1780,-6669,5651,4669,853,1472,-1142
1781,-3583,3478,-2783,-1395,-1983,762
1782,-3718,6132,6095,1030,-1438,-628
1783,-2801,-5827,-6202,1764,-1121,-1912
1784,-6859,6221,-1540,-944,-59,-1653
1785,-4631,-5644,4559,-1148,-1061,1675
1786,5012,899,3029,586,-1219,125
1787,854,-4030,1496,1089,-1224,-1544
1788,-5934,6980,-4321,-482,1105,-409
1789,-7390,-5612,1928,-1927,-821,1152
1790,6812,-4764,-3228,-337,838,1955
1791,-6467,-1574,4867,1551,707,-1267
1792,1080,3764,3273,-1832,-314,1492
1793,2198,6319,-5216,1075,1340,507
1794,-4704,-4295,-1157,397,-592,-1554
1795,4817,-1138,-5083,1846,1717,838
1796,-1909,-1326,1958,-1676,1041,409
1797,167,-2828,7952,1106,745,-748
1798,-2004,4966,6925,1445,1599,401
1799,6033,-2736,-6679,-1649,1649,-1063
1800,3,-5491,-41,-868,-1776,-449
1801,6387,3344,2082,1459,1237,1942
1802,-6792,-5401,2898,-1940,-1246,233
1803,4714,2561,-5801,-1867,-1809,-610
1804,5583,-3131,-4455,760,901,1670
1805,1901,869,-2309,-1494,1456,1732
1806,-4265,3001,1865,1426,1283,859
1807,3399,5690,-2231,946,150,1991
1808,-7608,851,-4802,1244,1483,1456
1809,5785,2653,-1694,-1054,-134,-1522
1810,-1244,487,5604,-111,-1253,-1913
1811,7669,943,5988,-325,1942,186
1812,1318,-7591,-6467,1700,-1069,-648
1813,4820,4132,6714,1036,-1409,350
1814,-842,1350,-2748,1303,1492,949
1815,-3010,-7201,906,1104,864,37
1816,-6554,1383,-4908,1203,-1149,-1884
1817,-5413,-6130,2441,-1869,894,1728
1818,5803,7669,3728,-665,-1839,1291
1819,163,-1617,3358,625,-1198,640
1820,-1288,2749,-6127,994,-1233,358
1821,7029,-4311,-1139,1088,-780,-1844
1822,5835,7984,1566,-1762,-1201,-221
1823,6568,-3308,178,-1282,-709,505
1824,6341,-3651,7352,956,172,-475
1825,-1074,3183,4118,964,-1046,-1744
1826,1926,-2736,5966,-115,930,1756
1827,-6895,-3381,4164,1600,51,1569
1828,46,-6701,-7686,-253,-1528,1626
1829,7420,6591,3760,380,801,399
1830,-921,-6440,-3513,1082,808,91
1831,850,1166,-6166,-104,994,-1066
1832,-2960,2761,-2642,1653,-1555,833
1833,-2956,3508,-7762,1937,469,1621
1834,2740,4317,-4521,-849,21,-1976
1835,-144,523,-4222,891,667,-371
1836,-6294,-572,4133,1506,-460,416
1837,5805,6713,-5875,878,-694,115
1838,2467,4570,7524,-1951,1803,1147
1839,6117,-6912,207,1681,-414,1289
1840,-2998,-7506,2703,991,-123,34
1841,-6045,-3306,-1342,-802,1245,-63
1842,5734,135,5719,-1426,-651,-1901
1843,7430,-5657,5136,-1973,-697,-267
1844,7831,-6532,2881,258,1189,-173
1845,-5963,-3595,-3320,1950,504,-1110
1846,-3378,6589,-2794,-890,-1941,-1801
1847,5732,-4986,-6326,-1874,1584,1363
1848,-1994,2178,-7384,899,1760,-1880
1849,2129,-2456,1904,1047,175,984
1850,1466,-6189,-4200,1159,1490,717
1851,-6734,2490,-13,-487,350,180
1852,-6127,-4878,-6004,1564,1666,-1177
1853,-7686,-2247,-5863,-232,-983,506
1854,4054,5338,-156,842,-1439,-1316
1855,5708,-7270,-2172,1681,-1640,-938
1856,4041,-364,7814,499,1611,-1611
1857,-103,5124,-612,1600,863,-1005
1858,6149,6445,-356,-1551,482,-676
1859,-768,-7665,5516,-1686,1629,-943
1860,-6139,6256,729,786,-356,1158
1861,742,-7210,-328,-131,-497,836
1862,5769,1967,-784,77,-1536,-835
1863,356,3098,-3238,-1165,-133,975
1864,-4109,55,6634,-1505,-716,-1590
1865,626,4303,2966,1341,1174,953
1866,4963,-6192,-5303,-1153,-1978,611
1867,4750,-6552,1380,803,-1253,-1105
1868,-1955,3014,1078,-402,1486,-695
1869,-2928,3821,-7488,-563,182,1622
1870,-3758,-1578,7727,1471,-606,-562
1871,1464,5289,7661,1634,-800,-1669
1872,-2319,-106,-6771,72,1608,21
1873,-6859,-979,-7422,1761,-249,1898
1874,207,-3864,6847,-1658,-499,1435
1875,-1771,-4524,-6650,167,-111,1056
1876,-541,-3819,-7242,-556,-649,-1192
1877,3099,-5641,-4532,1955,-599,470
1878,-5655,3184,-3297,-1107,-1604,-1645
1879,7467,-3641,-6649,-1248,474,1026
1880,-2294,-3544,3238,39,-401,459
1881,-4362,-103,-3572,1160,-1627,624
1882,-1989,2688,-633,-1655,977,-144
1883,-7076,-1138,-41,537,790,-144
1884,5904,2597,-4372,-1334,-747,1646
1885,-4652,6914,-3630,1770,1623,85
1886,7764,5372,-5414,1869,738,955
1887,4623,5443,-5146,-870,785,1528
1888,-922,3319,3933,1781,870,172
1889,3471,3112,-6947,551,406,148
1890,-7861,-4278,-6309,-983,43,-801
1891,1772,4263,6113,-1418,-97,95
1892,7043,4019,4559,-31,-1738,551
1893,-2778,1728,-1745,-333,-281,-1971
1894,-7105,2644,-5081,-1486,1748,589
1895,-7968,-2562,7826,1301,-1849,-519
1896,1831,-1180,5,1633,-811,200
1897,-2870,6804,4293,-1748,737,1308
1898,6855,5801,1340,-1015,-1797,924
1899,6535,4888,5725,351,1097,1540
1900,2839,-6644,-2521,701,956,-1027
1901,7655,-1580,3100,-620,-1142,-240
1902,6355,1478,6624,-561,-54,-323
1903,3329,-5123,-6955,-1355,904,-1736
1904,1580,-877,1463,-1575,1427,-469
1905,7301,3472,4186,-1416,262,-1377
1906,5095,-2258,-280,1383,1309,-1972
1907,-6122,6674,-5158,-201,1219,62
1908,7809,174,-3644,-1993,1036,-1054
1909,-3353,4190,-2645,-643,1841,1295
1910,2443,-3822,-4163,-1251,-1044,115
1911,5542,-2689,-4960,-1419,-37,367
1912,-3414,7209,6161,-47,-94,184
1913,2505,-5872,-5061,1912,-965,896
1914,57,-5534,7351,506,-1702,1668
1915,-1840,969,-4432,-347,496,887
1916,6428,-2326,-2552,1797,-1313,1638
1917,216,-147,4781,154,1221,1099
1918,-7928,4671,6859,-1307,533,1446
1919,-2708,6059,-2020,-1527,308,-796
1920,-3797,6513,6852,855,-317,-1943
1921,5471,-6020,-7919,984,-1110,-166
1922,2827,6210,4332,-342,-506,544
1923,-466,-101,793,449,-1736,43
1924,-3300,630,-4392,1033,-374,54
1925,-846,957,-4782,591,-1614,-1015
1926,-534,1154,1418,-749,-1153,-1366
1927,-2881,-1068,-2781,-1428,1837,-1199
1928,-1871,-5894,-755,-1328,1584,-1907
1929,-7617,-6099,-1667,989,-171,949
1930,3575,-4411,-2837,-1288,-1555,1201
1931,-2842,7602,5275,-1916,-1606,-1996
1932,3401,7000,7090,1719,-1907,-1776
1933,2622,-5816,2838,-1478,-664,1635
1934,7412,5658,-1781,-1540,-371,-1729
1935,7990,-5721,-2947,1089,-575,-722
1936,-3125,7892,1863,635,-1300,-691
1937,6706,-1132,-4235,107,-959,1401
1938,-4007,-6049,-2612,-1951,-1179,1975
1939,-7029,-3501,-2911,-702,-366,-683
1940,-763,7104,2736,1067,-508,662
1941,2962,-2554,-3846,-1853,1565,-1856
1942,3082,-5705,4414,80,-912,-308
1943,2653,-5100,7256,-700,-1612,1763
1944,6022,-768,-1569,539,89,542
1945,6322,-7519,5773,1794,1486,-1628
1946,2914,-1040,-7953,238,1483,-1794
1947,-1511,1431,1632,229,-641,-892
1948,1855,3339,-1341,36,354,302
1949,-4091,-2106,-7216,-1916,129,-1238
1950,-2698,2761,5964,-1378,-180,1232
1951,5302,423,-7575,-845,-1632,1439
1952,-16,4449,1211,240,1478,-350
1953,-1078,575,-391,-285,-533,1688
1954,-3960,1149,-7798,-1451,1173,22
1955,-2569,-5291,3554,777,1275,1089
1956,-4392,4167,438,-689,-808,-1761
1957,4533,998,6301,-1219,-375,-1486
1958,342,378,-6067,1389,-563,-994
1959,7945,5554,3803,-89,11,878
1960,-7952,-7936,3589,-186,1495,789
1961,6623,2397,5897,472,589,-1588
1962,-1428,-5232,-5899,192,1260,1219
1963,7902,1463,3501,-844,-1461,1494
1964,1713,-3049,-632,1980,1037,-1244
1965,-7213,-3362,-4176,-271,494,-1044
1966,7860,2874,4129,1077,1536,-651
1967,3969,4260,7935,-99,1079,1264
1968,2419,3450,6598,1789,-143,-1064
1969,-5715,5234,-7214,1257,684,-967
1970,5441,5752,-7384,332,-73,1478
1971,7958,-713,-1340,1292,839,-557
1972,-1122,-6970,-5153,519,-468,-762
1973,-4649,-1071,-3402,134,-1188,-857
1974,1108,-6555,4013,173,-1806,-1150
1975,-995,-370,-2271,-990,-290,1745
1976,2120,-605,-622,-770,-1955,129
1977,-6672,-4003,-3685,196,175,848
1978,-2995,-6271,7214,522,830,1569
1979,-1152,-4521,-27,-1869,-864,-1635
1980,-4379,-230,2632,1031,-850,680
1981,7134,-4116,-5802,-633,-240,750
1982,-1965,-7660,-6437,-683,-1436,-1987
1983,4224,-3274,3674,-1141,7,-84
1984,-7585,125,-6091,-539,-1745,-114
1985,-2737,-4,-2232,1090,1865,-1362
1986,-1674,3453,-5592,769,-536,427
1987,3472,5046,4466,1672,153,1026
1988,5238,-1044,1510,1372,486,1282
1989,-5650,-6913,1429,-1989,-1323,-1155
1990,1921,-5426,4068,779,1147,1857
1991,-4367,-5740,6104,-1990,349,1865
1992,459,-6059,2994,-371,1028,-1946
1993,1973,4369,7667,-1606,103,1487
1994,5781,-1500,1842,1773,-1778,-327
1995,4068,-6942,490,1368,1738,771
1996,4198,7911,-5234,136,983,1385
1997,1732,865,5685,-504,1802,121
1998,3181,5861,-6751,-1696,-1580,1696
1999,-3515,-2297,-4334,-1441,-828,-1072
2000,-1410,-5381,-1106,792,617,-626
2001,560,-6782,127,-1193,235,-120
2002,-7098,5363,-5248,-1681,590,-1120
2003,-4505,-2602,-6683,1194,-1223,-1871
2004,-4640,-7428,1257,-622,-164,1821
2005,-3305,2060,-6986,1781,166,-1906
2006,142,5524,-5735,-177,1368,1573
2007,-3466,5239,-6814,-940,31,-557
2008,6356,3312,-6365,-1018,-944,-566
2009,-7000,5294,3042,-971,-1852,-839
2010,1777,2343,4802,1140,840,-1628
2011,6242,4834,-1061,1403,167,-1092
2012,6976,1098,-3738,1309,1490,1852
2013,3702,-4021,1443,-679,476,852
2014,-4243,-1219,-3513,-528,1186,20
2015,3674,6691,-2553,-1831,1179,-673
2016,-7114,334,1449,1868,1809,-471
2017,-2839,7571,3593,666,-99,-1382
2018,-4958,5101,5806,1230,1910,1114
2019,-3658,-748,-1861,446,-1049,1002
2020,-1472,6105,-3066,662,-1210,-841
2021,-4693,-393,-910,-96,-1426,-557
2022,1966,-5335,3147,571,1536,1122
2023,2133,4102,-1496,-736,-579,1071
2024,-7002,6216,91,379,1742,-1542
2025,5071,5240,-3708,1727,836,-1338
2026,3516,-3262,4347,100,1804,-1975
2027,-3697,1723,6883,-52,-357,494
2028,-7160,-2097,-4945,197,399,1240
2029,-2043,3446,-3782,-536,346,-402
2030,6163,-6110,-6747,-1399,565,-159
2031,4583,-7090,-3924,1725,-1017,164
2032,6389,-3988,6817,-1680,695,-1229
2033,-5131,-2731,623,-724,1827,1526
2034,5154,3034,4828,617,-1801,1648
2035,1087,-2616,-816,833,764,-1084
2036,-5013,2403,2709,-1815,-64,-1963
2037,-4611,-7050,-4448,-497,1910,-540
2038,-69,2593,2941,1971,-54,1855
2039,1975,3624,-4100,-115,1277,561
2040,-3202,7984,-2980,-877,-1199,682
2041,-6785,2555,953,1924,852,-765
2042,-3124,150,4796,551,-1916,-903
2043,1112,5958,4276,-1474,-570,816
2044,896,1258,-5932,-1955,1862,356
2045,-4805,7740,-6944,978,-358,83
2046,-7954,-5431,7849,-1060,-130,557
2047,1839,676,4443,1635,216,1058
2048,184,497,7537,1197,85,-699
2049,-3028,-7895,6876,-213,-951,-396
2050,-4890,7428,-6427,-1981,1219,662
2051,-858,3030,5854,-693,1175,-1091
2052,-1444,3479,1635,1359,1735,738
2053,4601,-437,-2487,652,-53,523
2054,-7326,-3597,6613,-1594,-510,-793
2055,-6399,1180,-3375,-1981,-310,983
2056,-4079,-7799,-7992,1238,-577,1546
2057,-251,6486,5389,1397,-196,1424
2058,-1319,6607,-2930,1409,1921,482
2059,6846,-1144,4522,-238,-761,-934
2060,-7622,1022,-6260,1936,1226,1369
2061,-5646,3108,-3614,250,438,-136
2062,-7913,7184,-943,732,-146,1398
2063,3939,-626,7148,-701,-822,194
2064,2510,-3472,-2763,1334,1927,-1344
2065,145,722,-3509,-1655,37,-1623
2066,1880,-319,5639,592,-290,-1141
2067,6490,-6446,-3833,-1736,1626,261
2068,4840,2097,-1107,117,-1294,649
2069,-676,3944,-1994,1045,-629,-1664
2070,-3690,-244,6419,-1098,1530,-1423
2071,6395,5248,-1168,637,-49,352
2072,3384,4502,3413,1995,1786,-15
2073,-5127,7501,4142,746,1521,247
2074,4676,4340,-2065,-911,-396,1705
2075,7541,-7929,4359,-313,1424,1107
2076,2657,3855,7904,-18,168,-446
2077,-5536,5522,-6123,1862,-1238,-948
2078,4932,-4519,-6931,-138,47,-949
2079,-3423,-5130,6277,-413,-970,-17
2080,-4938,1458,3639,-562,-618,1419
2081,-4065,-7352,361,1443,-1606,528
2082,-301,-6858,-1815,-1957,780,-1237
2083,-803,-5523,3619,862,1359,1751
2084,-7656,-5265,7380,-1682,728,-1242
2085,-833,-4692,3465,-387,-367,1588
2086,7444,1838,-7688,746,-1573,-379
2087,-488,-3915,6586,93,365,1475
2088,6624,-3278,-1516,642,922,-1831
2089,7151,5204,2348,-443,965,694
2090,-3062,7526,-3283,-1123,939,1929
2091,-5662,-5607,-5280,1673,-1588,-346
2092,-970,-4872,-2060,995,-1212,802
2093,-5748,-5234,3360,1145,-686,952
2094,-4959,-7558,6069,1555,934,-723
2095,7634,-4681,6152,934,-1368,291
2096,4682,4599,1559,1387,746,-314
2097,5397,2886,1540,847,-1672,1465
2098,-3994,6480,-5745,1233,1769,-386
2099,3034,-2344,3244,97,-1676,-96
2100,6686,-6013,5867,-281,-564,-1992
2101,3883,-6403,-2689,799,1663,583
2102,-1199,-4753,4286,-361,-1844,-1706
2103,3569,-5758,1555,632,-1743,1055
2104,-3413,-5487,4977,326,-929,-1878
2105,-549,7275,3021,1966,843,-134
2106,5608,-2872,-195,-1904,-1504,-1158
2107,-5909,7778,6851,1594,1743,-1180
2108,4971,-155,-4738,1492,1858,1746
2109,-6464,1926,-2035,-25,105,-1871
2110,-6003,-6056,2439,1249,621,-1868
2111,-3893,3963,-584,1257,-1916,969
2112,-4921,1883,-7942,-590,-1364,-1765
2113,6237,-1581,1023,-80,-715,-1202
2114,-1583,-3037,7114,-247,1680,-1231
2115,-5091,-3770,5586,-218,-349,-1867
2116,-7729,-3295,-4379,-1181,-1721,333
2117,1852,-2263,7696,620,-925,1013
2118,4740,7600,6313,-1937,1185,287
2119,3170,733,469,474,1704,261
2120,3630,2123,1425,821,-1495,-1276
2121,3707,4112,1255,136,-1004,-799
2122,-3394,-3608,-2398,-1481,1702,-101
2123,2837,-142,4546,1667,1370,-259
2124,6525,1317,-4245,1210,-1412,-795
2125,-912,-4741,-3820,-10,1960,169
2126,-7180,-777,6124,1672,89,1594
2127,1323,4650,6437,-933,145,-865
2128,5490,-208,220,1981,29,1650
2129,1330,3662,7982,802,836,-1555
2130,1965,-1921,-6496,-1897,-75,-1300
2131,3619,-3446,3474,-1058,-715,-822
2132,3320,-3435,116,-1956,1322,1964
2133,1292,4165,4140,910,37,355
2134,-7463,262,-256,13,-234,-826
2135,6962,-2608,5694,145,1035,-1297
2136,-5907,5714,-337,896,-298,-772
2137,-1697,1671,4156,1425,537,1790
2138,-7932,3495,5447,-733,-1188,-655
2139,7435,3893,-4708,-216,661,-1991
2140,6403,4902,-5465,1793,375,1412
2141,-5331,6333,6819,-195,-1042,-587
2142,7954,3907,-95,-1777,508,442
2143,1484,-1324,-1805,100,-1189,1916
2144,32,4349,-5942,44,-1550,835
2145,1688,4297,-6430,937,805,689
2146,847,-6294,-7418,-421,1329,-781
2147,-7203,1977,-7934,1731,-1514,-1147
2148,583,-7958,-1385,1777,454,438
2149,-5353,-1640,-4168,1699,-1865,-855
2150,-5083,142,-2842,276,1593,344
2151,-5808,7091,-7652,1448,276,124
2152,6623,-3388,-4341,1377,-328,-670
2153,-4021,-1872,-3882,1631,1396,1521
2154,2821,-7012,-783,-1141,-432,-1533
2155,-2601,-59,3367,650,-1016,1140
2156,2596,-6000,5558,-1534,-113,-795
2157,7479,5256,1662,832,-115,-1528
2158,-3439,-766,-423,-1672,96,-1789
2159,-4470,3989,-5205,893,-269,-412
2160,2713,-7971,6837,1533,94,1422
2161,3324,7321,-4059,-81,1695,1482
2162,-3584,1559,-3725,-558,846,1987
2163,1206,7899,-6919,-479,507,1339
2164,4515,-5170,6896,-1185,-1580,1606
2165,3747,3705,414,-1865,1172,-1054
2166,-3226,-1585,1969,211,1735,-298
2167,-889,-1691,-7126,743,-533,1322
2168,3247,-5750,3261,-767,805,-1750
2169,2671,-6805,1816,1925,1888,1870
2170,-6746,6097,1932,-740,1132,1642
2171,7238,7022,5497,-97,1618,-1516
2172,-5255,651,-93,1606,-1189,770
2173,-6404,5058,-5864,342,-163,1139
2174,-667,-3841,3861,-595,816,264
2175,5483,-7019,-7401,-1791,-1018,-1606
2176,-4319,-6636,7427,31,-958,-257
2177,6104,-512,4329,-1735,-1822,-1512
2178,7290,-4604,-7585,-1475,-376,129
2179,290,-1497,-3589,739,844,-793
2180,-4501,2993,-2170,-764,-515,-1638
2181,-4583,4857,615,726,660,326
2182,3738,7653,6629,1499,-1909,747
2183,3612,2782,7268,-1345,-1167,1931
2184,-1636,5287,-158,338,266,453
2185,7828,5994,-4227,1335,-918,-245
2186,5776,4164,-4536,-1099,-1532,-1725
2187,-7238,2710,-1165,1335,1036,-1986
2188,-7770,3830,-1383,-685,-1438,-310
2189,-4811,-2093,-3701,-1846,-377,-1531
2190,-1266,-1252,7243,-502,1746,-721
2191,5644,-3035,-2738,608,1290,1185
2192,-895,4349,2814,1034,-801,281
2193,-3282,5306,-4176,492,-1983,149
2194,269,491,5347,-30,929,202
2195,-2223,-1962,-4585,-1002,216,-178
2196,-4349,-1767,4739,1243,1004,-1838
2197,-2841,4645,4125,1964,1052,545
2198,6358,-6531,-1012,-344,1967,512
2199,1764,5938,-1863,-913,-26,-1459
2200,2125,-7457,-7403,-332,-1312,-1191
2201,-1558,353,-1837,725,258,-883
2202,-5035,740,5545,-1622,376,-71
2203,-260,-7308,-5489,-266,-1693,-470
2204,-3567,-3361,-303,-470,1902,-19
2205,-1061,-2047,7710,1541,-132,1626
2206,-4372,-2076,7110,1766,-788,381
2207,-4842,1897,-6667,451,565,1724
2208,7138,-7973,6282,1670,1576,-1240
2209,-2961,-4667,5067,1351,-542,-612
2210,-2237,2630,-2666,-1363,-201,105
2211,6976,-7218,-2432,-383,-1047,1835
2212,-5938,5739,-4050,1420,365,-900
2213,4827,2948,4753,-1405,-1116,-1656
2214,-1987,3981,-7322,1769,1981,-90
2215,3595,-7620,3416,-919,169,-1113
2216,-2220,-7994,1786,275,1351,566
2217,1429,-121,7319,30,519,-64
2218,424,3982,-7571,772,724,-1316
2219,6230,5805,5776,-521,830,120
2220,-1670,-4106,1116,-1442,1913,471
2221,-3995,2501,-4232,-1673,1268,-1347
2222,-1785,-6097,-4355,-1252,-1043,-1855
2223,6114,2182,-5012,-1557,-439,-1135
2224,-2431,-6346,814,-100,1388,-803
2225,596,-7089,3404,-599,-557,-154
2226,2347,5946,1302,-569,481,-602
2227,-1115,-585,7804,-1731,-560,572
2228,4134,-238,6257,1158,1398,-1032
2229,-1621,-4895,-2912,1878,-1520,1186
2230,5433,943,1096,-1549,-1020,875
2231,934,-4973,-3020,1785,1137,-1455
2232,-2231,2008,3782,-1368,-443,-403
2233,7426,-2787,-1433,-420,530,-466
2234,-2826,-1575,2152,-1325,1347,1468
2235,663,-1477,-5684,-1950,381,1629
2236,5217,2670,7180,156,-1444,-155
2237,7985,4393,3585,909,-525,1420
2238,-4301,-2782,2954,1623,1527,1469
2239,-807,4515,6854,1252,1072,-914
2240,815,5472,7129,-607,-37,1633
2241,3343,-2163,4098,1899,1334,-1657
2242,-354,-3980,1897,-1244,-1192,-376
2243,1350,-1463,-347,-1381,1271,-1506
2244,-4012,-7001,-320,542,1864,-1717
2245,3407,-3540,5018,649,1459,1109
2246,-1655,-4794,-5622,-787,1463,-1654
2247,3988,-150,-7228,1259,1522,-281
2248,-7223,4713,-6307,864,-275,-1032
2249,-5383,-1412,-3660,-1982,-168,292
2250,-7148,2717,-679,-773,672,1489
2251,6630,3810,438,-1553,-1989,-206
2252,6323,-2726,6536,-1700,710,315
2253,-4628,3802,-3692,-220,1795,-928
2254,-5698,-7601,801,-1641,-1705,-145
2255,7357,-7015,7107,-440,709,1284
2256,235,-6111,-2553,134,-294,851
2257,381,-1689,-1361,-1343,-67,-977
2258,1141,-1742,-2603,1966,644,483
2259,-5763,-778,5523,9,843,264
2260,-4529,4559,3302,-1201,-795,1167
2261,6812,4963,5276,-663,-1127,1521
2262,-7234,-6831,6528,1597,-731,1023
2263,1778,456,-7712,-291,35,1485
2264,-7787,-6288,1985,-495,-339,-711
2265,5910,-6257,-6691,76,1258,228
2266,-4590,2300,6898,-1498,1126,1369
2267,589,-6119,-7030,54,1754,1683
2268,7743,545,6255,-360,923,-1669
2269,-4932,-1681,-2031,-1901,-732,1537
2270,5708,-729,-3644,1247,-1122,1372
2271,5186,659,4581,1256,-1319,-662
2272,5069,1922,-1604,1522,1774,1251
2273,6796,-1567,245,1059,-534,-700
2274,-4757,-1038,-1728,-137,-167,1994
2275,-1443,5233,3991,1608,-960,-12
2276,4389,-4577,2892,115,-586,-340
2277,946,-2765,4551,-393,-1982,-799
2278,-7283,7427,-76,829,-17,-1896
2279,-5617,4217,1487,-944,964,1012
2280,-2916,-4876,6978,216,-376,-1145
2281,-1453,-4168,-268,-762,-1006,1566
2282,4629,4969,1324,-1002,1088,-1554
2283,-597,3040,-5459,225,-1354,1188
2284,704,-563,-4461,1095,1492,224
2285,-1646,-6173,5041,90,-504,-428
2286,-3496,-4951,-2039,812,249,87
2287,-3812,-3504,4907,188,-702,-1346
2288,-7511,-3851,5733,-1484,-486,609
2289,572,6226,-4101,-548,-1598,1793
2290,2245,-99,-7976,-369,1793,-297
2291,5504,260,-2536,905,-393,-2
2292,-4378,697,-4652,326,-496,-351
2293,1488,-2231,-1640,1916,-275,-279
2294,-5204,-3458,-1399,-107,-81,-853
2295,4457,-1410,5510,568,208,118
2296,-4450,15,-6699,-1298,1321,1468
2297,1430,4990,-3741,1325,-1074,-1161
2298,-7578,-2039,5613,-205,-1399,746
2299,2597,3443,1766,1019,37,-1133
2300,5035,-2664,73,-761,-431,487
2301,-7132,7188,5126,-1725,-862,779
2302,-7179,-4639,-5378,-847,-345,91
2303,934,3676,-3214,-5,132,911
2304,-3348,3327,3200,1053,1580,1529
2305,5611,6536,4689,-538,1708,471
2306,3497,-3282,-5183,194,1310,-186
2307,-529,-3416,-6955,-549,235,-84
2308,2136,5680,58,-1358,-1406,890
2309,5746,2064,4107,-1310,-1426,-1213
2310,3331,-3127,5392,-347,416,-23
2311,-3074,-3514,-6780,1060,58,-1961
2312,6940,7466,2092,-313,-911,-1808
2313,4374,7174,-4292,-514,-821,-833
2314,-6212,5166,-510,791,22,1309
2315,-5480,-7398,-5104,566,-863,-931
2316,1755,3323,-3100,-1291,1523,264
2317,-5607,-6685,-6661,366,1055,1026
2318,7886,1809,-7742,-353,1818,714
2319,2869,2462,-7503,-479,758,609
2320,4584,2925,908,-1593,-354,-690
2321,7462,-6281,-7240,-158,-860,-46
2322,-5394,-7543,4540,41,-723,-579
2323,-3047,-2149,3351,1607,-1566,451
2324,1586,7686,5730,945,1608,-1896
2325,5350,3200,7294,-1421,-1010,-1954
2326,-1015,-6773,4110,-61,577,1486
2327,6828,6832,6723,531,1222,599
2328,3128,-3624,-2748,1175,-1857,-1540
2329,7400,-2800,-3966,1625,-1048,1456
2330,7503,1206,-5498,1470,-1134,1741
2331,-4625,3659,7927,-1494,-1293,54
2332,85,3222,-1301,205,1584,-842
2333,3255,-7284,7744,1643,-1526,1684
2334,-1348,797,6697,-404,-545,-806
2335,6536,-3519,-1814,366,1485,1570
2336,-3809,3504,-6634,-1379,831,-465
2337,-5588,7754,-4893,649,1068,1048
2338,7245,-3277,6140,1986,-1739,-363
2339,3032,-982,-83,-185,-1861,1690
2340,6420,-4546,-5207,1005,-1743,-929
2341,3198,1557,2777,-1802,-827,-1306
2342,2852,-7199,-7835,-1783,1682,-773
2343,-4114,-7017,523,1078,-85,-348
2344,2612,-2070,5517,534,1124,1990
2345,2245,-7894,-7306,-1811,-1850,340
2346,-6562,-1081,-5576,-707,453,1135
2347,6236,7267,-7353,1963,-1239,-1050
2348,-270,-896,-2371,-1723,-557,-1964
2349,2083,-1920,3717,1597,427,1358
2350,-7159,6462,1108,1442,1772,380
2351,4077,7757,-782,157,446,-1870
2352,520,4603,2551,-4,282,1479
2353,-5122,3850,2441,1012,-1158,715
2354,-7225,2608,7447,-802,-204,-1127
2355,4819,3498,-19,1024,1993,208
2356,-4218,4351,4603,-412,561,1227
2357,3440,-3752,7601,-1080,583,1696
2358,-2082,7860,6622,-923,388,-668
2359,3268,2456,-7387,-672,1688,341
2360,3643,2490,-2756,-1328,1564,1460
2361,747,2571,5164,-1274,-795,-879
2362,-5434,-4712,-2451,1078,334,1091
2363,6474,-7327,-660,-34,-615,-1705
2364,-1462,-4989,-2889,743,-1668,886
2365,-7864,-3488,4507,-1465,1849,-726
2366,2455,1106,6326,285,-233,419
2367,-4406,5232,212,1748,761,-838
2368,-4030,6601,4089,-1441,834,1517
2369,-7666,-3044,1010,1330,-367,-418
2370,3973,6661,-819,-67,243,461
2371,-5022,-6782,3250,-102,-1167,1090
2372,5490,-124,7088,1983,427,-272
2373,7503,-7882,5557,1729,-222,-810
2374,471,6208,-1847,-311,435,-1992
2375,5533,-4175,-6557,-1469,91,-341
2376,-7809,-4445,-5073,811,510,1850
2377,2423,997,-5465,-397,-227,-1034
2378,-4664,7514,4639,774,-283,-1115
2379,4433,-2506,2352,1179,-1078,1254
2380,-3891,834,-7083,-1706,-1757,1025
2381,3729,-186,-4551,1213,1747,1107
2382,-5320,5044,6819,1788,374,1078
2383,-4066,-3035,5842,1369,-1470,160
2384,-985,-4902,3094,297,-741,-587
2385,4484,6492,7493,655,1298,-1663
2386,-318,929,1515,-1237,1536,265
2387,-5235,149,-5943,1926,-1697,-669
2388,-4716,-5849,-4694,-1365,-1735,567
2389,7578,6606,-1284,-1241,-605,460
2390,-7671,1021,-2473,-606,-1539,-873
2391,7617,-6975,-2525,-1951,57,710
2392,-545,-6438,1591,1105,-995,1803
2393,2968,-1852,-7290,583,478,-369
2394,7730,-5930,-6522,-1544,625,1048
2395,583,-3425,-1492,798,-1250,1242
2396,-4276,4056,-1106,134,352,1681
2397,5672,-5506,2472,1306,-1754,-860
2398,-7112,-1377,3730,1762,85,1359
2399,-7379,482,-1201,1893,-61,41
2400,5632,544,-3976,1161,1020,670
2401,-3560,6198,645,-476,1424,143
2402,797,-1509,6263,265,-164,1399
2403,-5630,3679,-5784,1916,-1180,784
2404,7026,6362,3058,-916,569,-1959
2405,2149,-7007,-4904,-1394,979,152
2406,-1443,2148,-5578,-1229,522,1629
2407,6954,-172,-1358,390,592,-1831
2408,2268,7370,-6690,-1966,-167,-183
2409,-1858,5646,1032,735,-1991,247
2410,6960,-5830,4981,1802,-1790,-1980
2411,-3419,-2405,-1497,811,-1042,1
2412,7734,6561,6508,-136,-1492,-1088
2413,-4840,7463,-1082,1621,-450,1651
2414,-7341,-4098,4428,-648,764,-724
2415,2571,-7,1737,1668,-1022,-874
2416,-1797,6123,-6527,-1030,-1782,-1575
2417,1808,7313,-6621,585,-1116,476
2418,-6063,186,-7288,-380,-462,1064
2419,-1245,-5855,-3404,1867,469,580
2420,-3634,-2089,4865,-1919,-1780,150
2421,-5607,7816,3462,-758,1789,1239
2422,2518,-5446,-6569,-1354,1360,-1946
2423,-3073,6556,-7371,-1254,1942,527
2424,7399,7447,4758,1620,702,-556
2425,4688,4501,-6131,924,-1578,-1479
2426,7099,3352,1964,-1294,-1880,-270
2427,2648,-2398,-2089,-1542,-1862,-1303
2428,-1967,-7035,-7801,-1128,1635,844
2429,-4154,4851,6245,-1050,-1656,-1478
2430,-4990,3563,7901,406,175,-80
2431,1533,-2272,-2782,1291,763,-315
2432,6550,-2631,-3738,-512,466,1016
2433,-300,-6002,2765,-1025,1966,78
2434,2459,507,5515,-611,-1800,-793
2435,-6009,3538,4820,-1308,-499,-289
2436,5881,4927,-6718,-865,1219,-1980
2437,-2561,-718,698,-185,1495,-1233
2438,7438,7714,3144,587,602,-1317
2439,7636,-636,-158,-332,-667,1011
2440,-1382,-2996,3740,1718,339,1574
2441,2621,968,-5996,765,1455,-1841
2442,-1084,-1404,3407,566,-1240,-379
2443,-1871,-7777,23,1435,-127,-1938
2444,2544,1960,-3894,1938,-1138,487
2445,-2494,3724,4049,-1023,-582,-1814
2446,-3186,-7886,-7130,-247,-205,-1183
2447,6229,14,1679,1353,1651,-75
2448,-6715,-619,618,-291,-1592,1883
2449,2454,-2870,-6101,-184,1550,-108
2450,-7095,-521,2095,-1355,1268,-241
2451,-7832,6396,-1740,961,-1013,-943
2452,1336,-4905,3310,1428,-722,1254
2453,6655,6578,-6396,-1153,1025,1080
2454,3081,-6472,2923,-1035,1101,-1398
2455,-6381,-1845,1422,1871,-83,-1485
2456,5851,6267,918,-1080,528,-992
2457,1690,-1110,-4906,-1986,1871,-57
2458,5055,2528,5743,338,-896,467
2459,-6329,-7216,6,-1342,1355,-1133
2460,3024,-4017,1330,442,-1726,0
2461,-6228,7793,7053,705,-256,-447
2462,-3984,-2829,7947,-1502,208,272
2463,-6424,-1701,-7582,-660,-1831,1016
2464,3103,2318,2734,-1246,-1759,1388
2465,-4035,260,2713,1368,1011,1224
2466,6245,-5138,-6061,-755,1629,1195
2467,2480,-696,7495,-1224,-1811,-293
2468,646,-7915,6562,1320,724,-1018
2469,6752,7243,7249,1219,-2,589
2470,4876,2157,3008,-222,-258,1798
2471,731,5611,2489,-542,-1325,1983
2472,7636,-6784,3806,1876,1317,449
2473,-7923,7608,-4040,904,683,-1153
2474,-7612,2347,3756,-237,33,1928
2475,-2828,-2690,2105,-671,1486,-537
2476,-121,-6872,900,-1049,-1826,23
2477,2066,2839,1906,-367,-195,-1269
2478,-401,-4601,-3595,-1639,1093,-1493
2479,5241,4150,-7807,144,-263,970
2480,7401,3676,1651,617,1364,-668
2481,-7645,2094,-3202,-309,830,-1366
2482,-7212,7689,3924,-995,1537,1741
2483,-3130,1569,3630,-626,-90,-930
2484,-1254,1175,3784,472,-1180,-45
2485,7693,6509,-6002,-1656,-1724,-209
2486,-1008,-7508,1360,-778,-474,-1608
2487,3998,-3255,-2977,1183,-2,1441
2488,-3526,4136,-6785,-888,1051,487
2489,2880,2268,-4150,1993,-1454,1364
2490,7816,5016,-4395,1225,-167,-771
2491,-7597,-6028,456,-1998,-444,-164
2492,5416,1465,-7829,734,1015,-799
2493,-1636,493,6879,-1452,768,1852
2494,-4959,-6600,1338,-1023,-216,-1768
2495,2784,-2123,-7571,1788,63,117
2496,720,-5824,-5797,23,-35,1584
2497,-6423,4522,1306,-1529,-1534,255
2498,674,-2369,-266,1577,-296,-888
2499,-7675,-6567,1626,868,523,1753
2500,-2668,7500,-6735,1445,-1582,-136
2501,-5199,-5971,7467,670,-1265,-687
2502,7604,5146,4997,1648,1639,-690
2503,-2067,-1381,-6523,-1777,385,-160
2504,-5094,4323,-4185,-821,1811,67
2505,-5711,6054,5872,-228,-464,-866
2506,-3341,-4962,1721,-1507,450,1163
2507,1918,2361,-3093,-1804,-899,-261
2508,2737,1808,2896,-1447,1664,524
2509,-2955,2431,-4457,-187,-1680,47
2510,6723,-5936,7498,-102,-862,-1772
2511,-1394,1886,4535,1191,-1819,1867
2512,-1381,5842,2474,-510,1482,1799
2513,7113,-6683,1992,-351,-1867,1854
2514,-6604,-226,-889,1937,-684,-1164
2515,-1746,5310,-4913,-1307,877,-138
2516,-4237,-1404,2076,-62,-1274,1411
2517,3264,-3766,6813,1516,1624,162
2518,2031,-2484,-1705,477,-1214,1601
2519,-286,-2554,-1305,-1297,1040,-1472
2520,4919,-2849,5968,-696,-446,659
2521,-7712,-2227,-1581,-310,1834,739
2522,-7886,5270,-2655,1129,-1205,451
2523,-2689,-3237,4991,775,-1788,42
2524,-2386,-3011,2014,1872,-420,-426
2525,-7443,-3967,-6161,1439,-1101,1180
2526,-7856,-3281,16,538,1864,-991
2527,1980,1534,7687,732,500,1633
2528,6798,7687,3205,1768,562,-1037
2529,-7414,-2130,697,61,-17,-1552
2530,-2979,-4877,-3013,210,-1492,-705
2531,-4965,367,7646,-1212,295,-1700
2532,-5421,2865,-5284,259,-199,591
2533,-3826,-3478,2577,-969,-1933,-1321
2534,3163,2361,3462,557,672,-375
2535,-3071,-7561,-4571,-498,-989,1582
2536,4510,5754,-4316,-967,1862,-1414
2537,-4374,7418,6963,1369,-1698,-1455
2538,-7937,1857,-3525,276,-1544,-425
2539,-4823,1055,-1670,-1800,154,-89
2540,2079,488,3095,1336,1627,-1626
2541,5500,1256,-5082,386,711,-605
2542,5937,-2947,4994,-582,1702,1600
2543,-3669,-4107,2287,-1611,-1229,1164
2544,1424,-7291,-2711,-1404,-611,-400
2545,72,1951,839,-976,-1814,-1828
2546,3123,7994,-1077,1878,-1515,41
2547,-2493,-1338,1876,-1191,-1069,-1957
2548,-2633,-803,7561,-1873,598,1600
2549,-7144,697,7132,257,1638,-1463
2550,-290,-5771,497,-124,822,768
2551,5415,1615,-5761,1954,1268,769
2552,789,1991,5877,-1586,387,-1117
2553,-3802,4759,-5441,265,959,346
2554,5665,7133,-1096,1335,750,-959
2555,4413,3882,321,-1049,-705,961
2556,-2154,-4942,3040,1923,877,-1409
2557,-5687,1012,-1680,-1350,466,-610
2558,4491,-1941,7623,1628,-439,450
2559,7794,-1864,1438,-1941,1784,-578
2560,2144,2328,-3292,1973,-450,-846
2561,4747,7597,-3889,-517,-1229,1855
2562,3894,4153,1317,-947,1293,-235
2563,6711,-6649,-790,1304,1027,862
2564,105,-6076,616,1072,-1640,-156
2565,1630,-6262,6810,-1502,-355,-951
2566,5026,-6265,2870,-890,1496,848
2567,5374,-5540,1920,1867,1540,1538
2568,3869,595,-3027,-443,976,-635
2569,-7219,4269,-4191,-469,-69,-1450
2570,5904,7210,1287,-552,-875,-1192
2571,-1219,-7475,7138,1375,-1214,-1158
2572,2767,4044,-3609,-1828,1494,-1711
2573,966,4481,2583,489,995,334
2574,-4795,971,4078,-852,-1535,-842
2575,-1034,-904,7313,-479,-1683,1188
2576,-4022,-3107,-2405,-586,-1097,-508
2577,5983,3272,413,116,-567,-260
2578,-5697,-4609,5004,1600,1634,1060
2579,-1383,-3866,-30,-1934,-1115,1364
2580,1132,5031,4026,1887,-1112,171
2581,-1468,-682,5134,-38,-1608,1133
2582,-6277,7293,1184,-1666,-30,-1988
2583,-7794,7920,3226,-505,-840,57
2584,-6871,-4751,-1325,-1833,-890,-173
2585,-2733,3716,-3313,1465,-323,938
2586,5294,1009,6855,-744,-1045,-739
2587,7367,-6703,-3394,1678,-1110,708
2588,-1697,-6034,6650,921,213,501
2589,-5096,4077,-846,-1262,-1692,1149
2590,-1538,-3915,-6015,-493,1125,-1609
2591,-5957,-4337,-3293,-1772,-843,-698
2592,6234,-4667,2982,569,1986,904
2593,-173,1039,-3655,672,-1306,1112
2594,624,1344,-1019,-470,72,1010
2595,-6498,623,-376,1416,-766,-459
2596,-152,-5129,1217,1907,1437,-1578
2597,-7062,-732,4605,-758,1253,-1786
2598,6442,-146,587,1449,1362,-1840
2599,6091,-2381,-3953,-122,533,-332
2600,-460,4886,1019,212,1291,458
2601,6167,-4609,804,19,1110,163
2602,3105,-5179,-5011,-1933,1193,-277
2603,-252,1622,-1549,-1211,395,767
2604,4826,5110,-7510,963,-1051,-873
2605,-2084,2323,-7877,1992,1377,-1038
2606,-7041,4084,1741,-307,662,-129
2607,271,-6372,-7148,-1952,1911,-1131
2608,4740,-7152,-6759,-14,1674,-1858
2609,-1007,-6311,-953,547,-646,-1779
2610,-5889,6974,-5547,-283,228,674
2611,-1264,-489,-6219,-1269,1040,1179
2612,4562,-4478,-2453,240,-1766,886
2613,-4963,-3843,3622,-468,-588,1771
2614,2729,-3229,-2574,-1668,-102,-1039
2615,-6507,-752,3724,-68,-1888,1599
2616,4502,5687,5958,-1080,886,-1218
2617,356,-2574,-4547,-1137,-1273,-308
2618,7168,3590,6755,-279,338,1360
2619,-1095,-3234,814,-616,-425,1770
2620,-914,3521,7485,-1741,765,1384
2621,-2493,-2999,6553,-114,-1080,-452
2622,-5249,2655,3475,639,-316,1782
2623,-304,-763,-1542,547,-527,1555
2624,-6730,-4887,123,1634,-1225,-183
2625,2760,5890,7403,-1182,-120,1683
2626,-3184,2215,-928,91,-257,-727
2627,1932,3439,5202,-1509,450,193
2628,2383,4383,1090,-1320,-869,645
2629,-6878,-2438,5581,978,-191,1762
2630,-5282,-6226,-1461,-1078,-66,-1216
2631,3026,-6836,5661,-1907,1215,-263
2632,5597,5005,-4241,1319,-1597,-1489
2633,2433,-3841,3858,-1824,-1660,265
2634,1781,2612,3473,-1693,1673,1865
2635,2151,-6379,2472,-29,354,-27
2636,-5079,7669,-7281,204,-1044,1700
2637,5672,-1188,5212,357,1432,-1080
2638,5564,-3063,-1085,-1925,-634,798
2639,6118,5766,1227,-1172,-809,437
2640,5932,-2463,663,-1854,1184,706
2641,1010,4625,-1509,-1218,98,801
2642,7014,-6135,5369,-24,-900,-895
2643,-1924,-6966,2421,1143,34,719
2644,3784,2025,1535,1808,1805,-1804
2645,-3129,-5655,5842,326,-1541,-114
2646,5596,-4225,7877,-1456,-1644,91
2647,6101,6591,-1311,241,915,-281
2648,-7094,7057,4760,-1607,1240,661
2649,6753,-826,2053,1464,-420,-1241
2650,3049,547,-209,-987,-1174,192
2651,-7658,5600,228,-898,-1290,-1281
2652,-7445,1441,-3123,158,1847,1515
2653,196,-3139,6403,633,-39,-831
2654,2045,768,-1439,-1052,235,1949
2655,4679,-207,-1293,1897,385,586
2656,5416,4105,-5772,-1967,-265,1319
2657,2979,-4979,7268,1451,503,1709
2658,-6965,-2074,4847,66,-1565,328
2659,-7963,-6438,-2207,281,-521,-1954
2660,-452,3056,-2522,-519,1350,-869
2661,-6839,-4169,1275,1981,-209,1702
2662,-1287,-8,5560,-622,1265,-1485
2663,-2630,390,-7534,844,1805,1106
2664,4168,2963,-1927,144,-1542,-1566
2665,-4417,-1301,5716,430,-1501,555
2666,3130,-2629,-5917,-889,1035,1292
2667,5613,7588,3214,-1530,-1508,1696
2668,-4640,6998,3308,-749,1174,-634
2669,-6941,1327,-780,-20,1145,1563
2670,6751,3380,2783,-1009,-909,1437
2671,-7265,-4015,945,1451,9,-950
2672,7392,6526,3397,-276,1287,-1938
2673,1253,-4998,-1142,1062,-1809,1658
2674,-2167,3381,6608,1755,-253,-1501
2675,-1101,-6882,-481,-1164,-393,-1549
2676,7808,-5417,-1837,1516,447,910
2677,6317,3381,1536,-1820,932,252
2678,3370,2115,-3880,-9,-690,-567
2679,234,4013,6273,945,-687,876
2680,-1014,-7354,-7639,761,-712,-641
2681,393,2905,-7271,-1819,1847,-110
2682,4712,-5304,1235,-1668,453,750
2683,-5074,-2928,-4269,684,-593,825
2684,6524,-6608,6750,-2000,694,1830
2685,-5344,2486,2992,-1039,1827,-1021
2686,4216,-6594,-289,555,901,673
2687,6729,-6549,-7373,-1948,1176,-1971
2688,7714,-2280,-6628,1022,747,1095
2689,1767,1234,-189,1854,92,1967
2690,-4539,-1777,1782,774,829,1574
2691,-2867,-2053,2934,-1349,-491,-248
2692,-4047,7824,1556,-679,-926,1285
2693,6299,1115,-2724,828,-928,424
2694,4773,1386,2854,-1533,1491,-1332
2695,4618,-4741,-5253,-1991,-1750,1352
2696,3838,-479,5824,-868,-16,-1381
2697,-2107,-4477,2835,-1755,430,-928
2698,6824,-4167,5465,-117,-542,1250
2699,-5524,5927,4410,-382,1039,-1688
2700,-4061,1835,-3006,-1931,-785,1764
2701,-4494,6060,-7783,110,553,-213
2702,-4718,4187,1613,-1073,-838,-1485
2703,-1988,-3834,-7984,-426,-1456,353
2704,-3640,-5030,1372,122,-412,-801
2705,5008,6505,-4937,697,-1507,799
2706,2601,2585,-3237,-95,660,-1795
2707,-7904,-4517,911,1785,-88,-1587
2708,-3853,-1119,-2016,798,-771,-704
2709,-5992,-4300,6516,1305,-1565,-1663
2710,-7203,-979,852,-1334,-1800,911
2711,-6964,-3498,-4287,1722,-811,-1033
2712,6255,125,5573,1311,-1011,-1185
2713,-2768,-6686,3238,-1424,-1229,571
2714,-1329,-4146,-7563,-1849,-1358,-987
2715,1225,-6545,6643,-1032,-701,1264
2716,2500,-6842,3332,1290,1927,1520
2717,6312,6117,6190,-1343,-139,1629
2718,-420,-6372,7171,-1687,84,-354
2719,-3954,-3382,5737,1101,-1821,1736
2720,6576,7875,-1535,1362,-553,-226
2721,-1800,3967,-2463,1035,-762,-848
2722,-3994,-5720,-6529,1093,1223,-1457
2723,-2740,805,-1201,-1957,-1243,-247
2724,3867,-3812,-5497,98,380,870
2725,-6420,-6014,-5576,226,-742,809
2726,-5743,-1684,-6450,-749,1183,1851
2727,-5091,-6964,-365,-1964,1831,392
2728,5242,-1324,5017,1596,-895,541
2729,-4864,-1958,-169,4,1956,987
2730,1713,-6391,4886,1766,1685,-1160
2731,1373,4905,5424,451,1247,1515
2732,5197,3343,4369,1465,-1103,1371
2733,-3236,-6316,6037,1757,1080,343
2734,-4600,-6907,3311,596,1150,871
2735,-5437,-7120,7825,1634,1220,-638
2736,-5106,-151,-1207,993,-1420,1140
2737,7343,-6804,-3336,942,745,-583
2738,-1857,4889,-6180,-613,-866,1854
2739,-2394,-1551,-3027,1331,-1470,-150
2740,4131,-504,-6412,990,630,1946
2741,-12,-532,641,1030,1733,-75
2742,-2457,-3484,5020,1873,-248,1197
2743,-5014,7555,394,852,1579,-594
2744,1277,0,-5277,1408,-1658,1316
2745,-5316,-2824,1485,48,-743,-1530
2746,-7691,5317,-6620,431,-149,-1443
2747,-2834,-3315,-2641,-941,195,-734
2748,-2536,-6943,2533,-1746,1442,1456
2749,6107,7727,-1216,861,450,764
2750,-7548,-463,-3594,-16,899,-764
2751,-1313,1293,-2084,613,343,-1101
2752,3861,-1475,686,176,1075,453
2753,-36,-4559,-445,963,1377,1373
2754,927,-7588,-2174,642,1146,-236
2755,-162,5056,7610,-111,-1751,606
2756,6718,6666,7993,-1212,-1723,-318
2757,65,-584,-7546,1705,-1395,-1348
2758,4584,-83,4002,750,826,260
2759,-2519,-4901,-4488,959,1598,-91
2760,6368,6212,360,-967,1686,-188
2761,-93,5597,-5074,1249,598,-257
2762,-2529,126,-1681,609,-919,217
2763,-868,3343,-3685,143,1059,1161
2764,-3481,4850,-7405,1643,732,178
2765,3246,-4847,-5271,-461,703,-1855
2766,1626,-2726,-6180,-1500,-1498,-38
2767,6139,5794,-5565,832,227,-1363
2768,2983,97,1873,-412,1277,-1214
2769,-6173,-136,-2781,-1211,-1481,-748
2770,-2184,-1338,-3407,-1734,-706,1144
2771,-6880,1727,-2978,-1059,-1302,1032
2772,5551,6332,218,-1835,1934,-186
2773,7579,-7998,-1222,873,1998,1696
2774,6538,-5181,988,614,-881,-315
2775,2930,4378,-3592,332,-1061,-881
2776,-1620,-1029,7004,1309,417,-926
2777,-6933,4010,-4735,1424,-1732,1089
2778,6270,2747,4619,693,1615,341
2779,-2251,4578,5531,8,379,-944
2780,1288,-2959,-7331,1200,-1057,1266
2781,-3103,-2527,-1108,-715,872,1537
2782,-6166,-5540,-2020,1793,-1606,1721
2783,-988,2690,6798,1970,-884,1990
2784,2285,5502,-2669,-1649,-1156,1520
2785,2324,1407,3582,-644,1913,248
2786,1609,163,-4516,1399,-477,-1682
2787,942,-1364,-5459,-1526,1612,410
2788,4090,-2087,1873,-890,-524,-55
2789,4288,3811,-481,822,1683,-222
2790,5449,6458,53,-985,714,1940
2791,6539,-356,-4896,825,1430,-1707
2792,6145,2252,-2256,-186,1386,-1786
2793,-964,7294,-1213,1046,1532,-1529
2794,-7784,1875,-100,-711,-245,7
2795,-6834,-1188,6846,-664,-1589,-1193
2796,-1529,-1911,-6056,-1266,-531,-785
2797,5739,-146,-1541,-1225,907,1353
2798,-5052,-3706,6018,-1554,900,1463
2799,-2956,-4068,2918,-918,-1729,-1515
2800,2095,7436,2349,529,-1522,-269
2801,7477,-2458,4279,931,1015,-910
2802,-7893,-5245,1547,-1667,434,-325
2803,6193,5146,-6481,1278,-1453,1488
2804,-260,2769,-781,774,-1961,279
2805,-3594,-2285,-3748,-866,1433,1373
2806,5143,-3763,3061,1507,1060,1345
2807,-7964,7959,171,630,-341,-99
2808,-2108,-1072,-4730,408,-215,352
2809,-1681,4780,-7768,-630,-1642,1876
2810,-4255,-1427,5256,125,901,298
2811,-212,4758,4072,-1352,593,804
2812,6604,-3393,1956,1325,706,-1718
2813,-1119,-4307,7504,-1338,-633,-1272
2814,767,-4595,-946,-1403,1679,-102
2815,-767,-7474,4069,449,603,-1491
2816,-4123,5848,7620,1958,-1295,1272
2817,4547,-4865,3115,1292,1697,-1566
2818,6225,6723,-1847,1986,-387,-1279
2819,1013,-3256,67,990,-1615,507
2820,-5358,-2937,-4154,-975,-1953,267
2821,-959,5343,7448,-753,1128,-328
2822,3241,4064,4447,940,1848,-443
2823,-3238,2723,3245,926,-550,253
2824,2400,-227,-4110,1795,-1035,-1252
2825,4024,6830,-4471,-294,1173,1128
2826,6769,-489,2027,369,-1174,-1838
2827,6473,-6522,-4046,-1602,1993,716
2828,-54,5434,616,1868,-1159,-1423
2829,-2481,4570,1992,689,-1944,712
2830,-5956,-4479,5590,-1482,1119,884
2831,-5086,6569,540,64,-494,993
2832,-2903,-4600,-5138,-827,688,1278
2833,-4955,3060,5949,-1420,1490,1977
2834,3549,2856,1917,-582,465,334
2835,-7127,-7205,7529,181,-1552,742
2836,6687,7956,-4969,-1893,-825,297
2837,-670,500,-3898,1608,615,-128
2838,1795,-2505,5097,-80,381,448
2839,482,-3668,266,1945,1864,-336
2840,-4360,1237,5661,1511,1090,802
2841,-5002,-1168,-1490,1807,-1041,-66
2842,1183,6303,-849,474,-673,810
2843,2235,-3584,-750,-1386,442,971
2844,-566,1476,5189,-1960,-555,359
2845,-5900,6574,-7087,-220,780,-1437
2846,6699,5533,-1603,123,856,1300
2847,5545,-61,-2204,146,-258,741
2848,3015,6942,-7279,-1053,1578,-495
2849,2121,2821,3958,-862,-709,-1857
2850,-4949,3261,444,-369,-1772,929
2851,7495,-1879,-4179,1538,-1441,1207
2852,743,-1017,-7143,792,573,1594
2853,4732,4346,-2534,911,-523,1569
2854,-7670,3183,1809,25,-151,752
2855,2298,-2578,6123,-1724,1204,1500
2856,-529,-6069,-6149,1779,-1311,1938
2857,-1302,2344,-7288,-1343,1438,1879
2858,2127,-5121,-2814,1223,-401,-352
2859,2532,-6974,1115,-866,-419,-853
2860,-6950,-3747,4964,-841,949,-1343
2861,7429,-6680,166,-320,-1851,-403
2862,-7015,6408,3382,407,-442,348
2863,-7485,3263,1012,1434,-1495,1529
2864,2880,-4688,-4400,-728,77,-1456
2865,-4345,5745,-1434,-1388,1636,-1552
2866,7065,4429,-2938,902,925,1831
2867,-6441,360,-1997,311,-1058,-1722
2868,6829,7302,-705,-1351,-1425,150
2869,6314,-326,3318,1996,1713,1186
2870,5784,4358,3968,-1883,-1623,699
2871,-7488,-1533,-783,976,1072,346
2872,352,-7674,-2647,1509,-635,-1041
2873,1975,5379,3744,-1956,209,1948
2874,3287,-6960,-7080,312,-1522,-382
2875,-3219,-6959,5997,1913,323,-340
2876,-4503,-3958,2505,-1850,780,-1828
2877,-2644,4946,4967,-1126,1172,644
2878,-2561,-2115,-1036,543,-1820,50
2879,1048,5356,-1249,-1940,-403,-1139
2880,591,4101,6981,-801,1950,-1287
2881,-1215,-7622,6870,1619,-928,-763
2882,-4290,-4371,6531,308,840,738
2883,3480,-281,-6412,273,773,-772
2884,988,-1155,-1333,956,1699,61
2885,1282,389,3405,-456,1344,24
2886,-5365,-6067,2636,1904,-1415,-1548
2887,-3230,2819,252,173,320,-532
2888,2291,-5070,1289,-1757,182,860
2889,-1496,866,1303,545,-1663,-1684
2890,-4904,1093,169,177,937,1097
2891,2706,5119,1511,-1795,-1126,-2
2892,1843,5944,-826,1831,-314,-491
2893,6612,-7271,7320,-424,-1684,-1538
2894,-498,5907,136,-909,-2,-573
2895,-6086,-7222,5519,-1583,-1411,-1818
2896,-6906,250,-7419,1050,-128,-436
2897,467,-51,-7098,260,-1267,-434
2898,6736,-2016,-6769,1062,-659,1971
2899,6314,1194,-2944,1335,1187,1185
2900,-6653,-3152,6822,-897,-517,-723
2901,-6840,-4725,-4054,1006,304,-965
2902,7166,-2802,-3646,1544,-690,-338
2903,-5334,-6787,-157,-159,1104,-1276
2904,-6770,1595,6246,-654,1192,1005
2905,3521,-6899,-6266,470,-1215,1872
2906,-5816,4179,7414,-786,-336,-1471
2907,5532,-7166,-6575,1120,975,491
2908,-6751,7526,-2699,-1519,559,190
2909,-5974,-124,4527,-1232,-763,1576
2910,6930,3028,6861,1258,-1576,478
2911,-7023,-642,-2600,1107,83,-54
2912,-5001,950,-3028,-312,-709,1459
2913,-2854,-3766,-325,-61,-1578,-1120
2914,1412,708,1872,459,1004,-335
2915,2710,1325,7947,650,-1136,1918
2916,1815,5764,-5136,-1487,1478,-1382
2917,7734,434,-1391,1212,-1173,1087
2918,2066,-7103,-1124,339,344,-1394
2919,7420,-6292,-6374,-144,-822,257
2920,422,3140,-759,1683,1289,-243
2921,-2778,6264,-2592,1760,652,-622
2922,-6823,2764,-1055,520,-259,-1783
2923,-651,57,-2285,397,-1848,-8
2924,4317,2340,734,1213,-1401,32
2925,-419,4552,4326,-1350,-1399,691
2926,7422,7719,-5715,657,1487,504
2927,7681,-4016,6992,-598,-1604,1979
2928,-1380,7298,-7970,-221,303,112
2929,-4735,-4046,-6973,-685,-907,258
2930,-2168,-5040,6338,1871,-893,555
2931,3110,-5806,3614,-1935,-85,619
2932,948,-3531,-169,1779,1540,-12
2933,2963,151,142,655,936,-775
2934,5505,6105,-5151,-912,1959,770
2935,-1356,-5920,-1181,1498,-1588,22
2936,-4025,-5845,-1918,1707,-271,576
2937,6080,-5306,5640,-1505,1373,-1442
2938,-3927,4571,1987,1091,814,405
2939,1335,3654,-4527,-1475,-694,1041
2940,-1320,-5497,2235,-1999,-69,1800
2941,-6240,7717,1942,-959,544,-263
2942,766,-2682,1782,-1640,1255,-387
2943,7504,-1275,1436,599,311,459
2944,3488,-7764,-6037,64,1493,-1013
2945,7705,6490,-6550,1043,340,-1605
2946,-4744,932,7492,-1117,43,-912
2947,-5519,-5344,3787,-303,-1570,-299
2948,4390,-6031,-2107,998,-180,-411
2949,-2047,6113,-5606,-1762,991,-1161
2950,5814,5206,-5116,1317,-464,-1342
2951,-7741,-4893,2807,1677,-399,-1752
2952,868,6905,-3871,50,1424,920
2953,-5590,-2452,1097,1547,-1396,-1088
2954,5975,-1200,462,-1420,306,1722
2955,7958,1896,7568,-480,-733,-1256
2956,551,-6676,-7358,1393,914,-25
2957,3703,7474,-5184,-364,-1958,30
2958,-6724,4712,6965,-468,420,1442
2959,3286,-1651,-6389,220,1672,19
2960,6662,4775,-4513,980,-1394,-1281
2961,1756,-5520,-5203,-711,-190,1819
2962,-6226,601,2625,1846,-1277,-1750
2963,433,7304,-4132,-1857,350,-44
2964,1122,6526,384,-517,666,259
2965,-2873,2967,-2962,722,-414,-1415
2966,6527,4805,-6367,615,-1939,-679
2967,257,-2778,5771,1336,-488,76
2968,5529,6626,-6333,-775,-1880,1400
2969,-5529,-4834,6316,77,-1830,-1933
2970,-2918,-7657,-5836,1581,-1692,-1678
2971,-1777,2468,373,-1110,-1018,-1663
2972,7171,-5857,783,-1654,1332,-314
2973,4865,747,-1158,14,-63,1270
2974,434,-2307,3092,306,-481,-1568
2975,6581,-4249,-2646,481,957,1162
2976,-4133,-6181,-3360,246,1292,175
2977,5446,7382,7107,-568,1418,-1294
2978,494,-7019,-2788,-383,-1668,-1081
2979,5076,7929,-3847,1931,1976,1360
2980,4828,2986,2189,1925,-260,926
2981,-7895,1432,2084,-1452,-85,-484
2982,454,-3867,6903,-1696,-1491,-1129
2983,1440,-221,995,672,1035,-1112
2984,-737,1857,-4401,1320,-940,-1044
2985,7236,-5760,5751,704,1136,-768
2986,1409,2874,1974,1933,-1359,1976
2987,-4983,-2446,4853,-1427,1466,-1404
2988,-836,7286,-1726,29,962,628
2989,6096,3213,-3369,-884,-1294,1490
2990,-5617,6222,-1564,1777,-1132,1059
2991,-2950,-6042,-5314,7,-76,-97
2992,4065,-422,4632,900,-228,-920
2993,-2859,6156,-2702,-1588,1800,-1821
2994,3381,-7682,-6241,-394,860,919
2995,4081,-2883,329,950,-294,-1717
2996,-7416,7580,-842,-1513,-687,521
2997,4122,-2879,-4449,-974,-626,-949
2998,-3678,5119,5982,1597,1851,-1003
2999,1308,3069,-6740,-1722,1594,-1894
3000,6011,1058,1023,-448,-847,-933
3001,3921,-7919,-6968,558,228,-107
3002,-6628,-5862,2989,-1976,237,-1298
3003,3178,357,-1049,-1901,-1167,374
3004,-874,-2533,5982,-890,-1159,-1032
3005,5785,-7563,7583,-1041,-941,1845
3006,-5709,2928,2955,1181,1038,1448
3007,3770,-3443,-595,1260,1521,-23
3008,3205,-381,-4219,1394,-251,1316
3009,-6730,7597,-2376,278,364,835
3010,6247,4657,6992,1107,-58,630
3011,3719,-3119,-3696,-129,177,86
3012,5456,-7263,1506,1336,-1551,-1611
3013,2412,-411,-7176,1766,-306,1889
3014,213,2498,-4963,1205,-640,-1446
3015,5657,-3280,5499,-487,-1402,-619
3016,1884,-873,-6305,1258,161,-354
3017,-1321,1457,7385,213,1354,-662
3018,3420,-7973,-3953,-94,349,-238
3019,-2485,-1467,-7429,-1363,-379,-1634
3020,-7231,-2427,2167,1104,-1141,-1987
3021,6826,-6402,-2821,-114,-35,1443
3022,6210,-5562,615,-1198,-1806,615
3023,6374,-3269,-4207,37,905,-853
3024,-5458,-7882,-1099,-1958,603,-1308
3025,-4171,5762,3844,-73,-1703,965
3026,6726,-2862,1143,1483,1605,967
3027,2558,1416,-3682,-834,-807,1027
3028,-6861,-6633,-1878,-571,1829,1259
3029,686,6046,-6038,-26,-1908,-1757
3030,-3086,1798,-1445,-698,1165,-1267
3031,5708,7054,-3622,1830,1564,-834
3032,-6937,-387,5724,-272,-1235,278
3033,-7294,-788,-7163,-456,1086,-515
3034,393,-4175,-4194,-1210,-137,1598
3035,3215,1808,-5640,1739,1695,1515
3036,-3291,-2189,4563,-1455,1510,708
3037,-15,-7877,-1482,1649,583,1630
3038,4890,3801,2262,455,-1370,-1402
3039,-2076,-842,388,-814,-203,1445
3040,-647,-6707,6264,896,468,1207
3041,-5334,6987,-3686,-215,-781,854
3042,-7083,7754,3462,1316,1912,615
3043,-6040,3716,7609,-323,1544,-739
3044,-102,5260,2245,-1163,-107,-1590
3045,3638,2946,-3896,101,-960,-1771
3046,7872,-5393,-3041,1067,1558,1217
3047,605,1825,-5597,-1678,513,1365
3048,-7939,-1372,5333,466,-432,1087
3049,3021,4797,-128,1302,1356,-644
3050,-4251,472,-5036,1215,-100,-1211
3051,5787,-1033,-2645,-518,-184,-1110
3052,6133,-2162,-3287,188,-532,1877
3053,7696,235,7628,1886,-381,1885
3054,-7766,6658,3004,-537,843,-635
3055,-422,2983,2678,-1837,1323,-1035
3056,3040,4393,-2874,-945,35,-649
3057,3272,3520,4283,328,789,-399
3058,4533,-328,3477,-1758,329,-275
3059,-7227,1118,-7273,365,300,-1820
3060,4503,-2574,-2807,1465,-855,-1617
3061,973,486,1826,522,1568,-1981
3062,7843,2776,-2511,-1158,840,-434
3063,-5963,3430,-2784,-381,-1973,368
3064,-3510,-1540,-6127,-1246,1842,-1049
3065,6612,4186,708,-793,-1085,1236
3066,-1071,-2943,-6436,31,-1142,768
3067,-913,-5532,-4305,-563,-82,1577
3068,3690,-3082,6801,1247,-1264,-1083
3069,4133,-2502,1807,-1889,-402,-1079
3070,475,104,6943,-170,-394,-422
3071,-4491,-779,487,1727,-658,-1494
3072,-777,7751,-7787,1847,-659,854
3073,5182,-6623,-5986,-1124,-279,488
3074,4742,2989,-3594,796,505,1363
3075,-3078,2840,6565,230,-1403,1876
3076,6028,-7399,-210,-992,168,-982
3077,630,4988,-5259,-1214,-1540,1967
3078,827,7118,-3792,970,513,-483
3079,-1166,-2367,2642,653,1528,-1514
3080,-3049,-2467,-3659,194,-1066,-563
3081,7003,640,3573,-1724,1718,-1849
3082,5614,757,1329,-1280,188,-1437
3083,-5983,-3073,7505,680,-104,-1762
3084,-3480,1187,-2308,-147,-1271,848
3085,-3116,-1959,7374,-955,-1850,-1537
3086,-1886,-4702,-4394,-311,-1408,326
3087,-3109,5492,-815,-1782,916,1485
3088,-4301,-2700,-3756,-1257,1609,800
3089,518,-2137,-7249,-156,-169,-1187
3090,-1850,876,1684,0,-1254,1636
3091,-7785,-3904,-4342,-1155,1501,1848
3092,-4473,4833,-7190,1582,-778,647
3093,2474,803,-4862,-913,797,554
3094,-2520,973,246,-1800,-472,1517
3095,-5258,2150,2711,-1771,1599,1969
3096,2929,-2389,6940,236,1733,-1334
3097,783,3772,-4,1671,457,-574
3098,7528,4594,7597,-658,1300,88
3099,195,3873,1865,1585,-1228,-1161
3100,-4326,-6636,3633,270,342,-959
3101,2946,-1391,5206,-92,432,-1577
3102,1280,5176,6467,930,-1102,1946
3103,-3695,-4605,4133,-1883,-757,276
3104,-6847,2113,-777,-459,404,1837
3105,5798,6544,1641,-928,-1828,470
3106,-2287,6782,2184,-579,1886,701
3107,-5433,6582,-6298,-984,-1451,-444
3108,1326,-4190,-4800,1063,-1846,-558
3109,-1935,2675,-5211,-395,3,1130
3110,-6704,4681,-3217,-1597,-1540,1963
3111,823,-7200,-4888,799,-874,-920
3112,-877,-1651,5398,-500,1455,514
3113,4597,-3351,-1173,86,282,1628
3114,-266,-3530,1760,588,-598,-390
3115,-6329,6475,7200,1152,1580,-1809
3116,-5614,5200,5381,-1166,-1829,1403
3117,-6782,6671,-597,994,-1333,-371
3118,-4865,4057,1214,-421,-854,-834
3119,7532,-7882,5607,-887,-1683,1323
3120,-4728,5141,7732,-1002,-762,1796
3121,1910,-4817,314,-454,1427,1048
3122,-7252,-6594,-4099,1264,-1397,23
3123,-5416,3088,-619,-1901,1678,1517
3124,-2569,3920,-351,-927,-1885,-272
3125,-2119,7798,-3085,-1035,-981,189
3126,3562,7615,-1739,-9,757,162
3127,5215,4255,6486,-1855,1779,-417
3128,6055,2122,-6806,-1621,-944,1882
3129,-4166,4804,1569,-661,-1993,1332
3130,6988,7650,-1212,-739,-1119,-645
3131,3842,549,-7987,95,1427,1705
3132,3378,-3756,6298,714,869,1521
3133,-5560,6460,6596,207,-1514,-1529
3134,-5643,293,-6766,1385,1801,1241
3135,4087,-6191,-7565,-1486,1919,698
3136,-3269,-528,635,-1373,-1324,1565
3137,-4165,6563,3229,-407,1616,1920
3138,-5948,-2339,312,1839,-1678,962
3139,2421,-1307,-4080,851,720,189
3140,-4456,-1248,2711,570,-870,1424
3141,-4865,2921,-1424,1657,-988,1258
3142,-1833,3185,-1877,-1521,135,635
3143,432,-6379,3440,462,-1819,747
3144,4904,-3558,-6215,643,-170,1073
3145,4374,-6624,-3648,1387,-64,1334
3146,1390,-7465,3822,-1696,-639,588
3147,-3842,-2589,4266,1790,721,1373
3148,879,-438,6964,-1424,-20,-1799
3149,7583,-3072,-4079,918,1632,-932
3150,-3581,4780,1782,1588,579,-1532
3151,6026,-3871,-5689,1581,359,-486
3152,2345,767,-556,-1690,246,1873
3153,-1775,-1288,2987,417,253,1700
3154,1460,4450,6748,1343,-158,-1370
3155,2413,1542,-3139,641,1857,-1939
3156,-4425,5514,3988,161,-1143,-1126
3157,314,-4675,4174,538,133,-267
3158,1441,-5710,-5967,-811,1079,1662
3159,-6891,3949,-1782,-1475,-295,-435
3160,-886,3906,-4271,-463,1458,-118
3161,-6342,-354,-4608,769,65,-720
3162,-5141,-132,-1931,-134,1749,-1386
3163,5498,-169,7404,-1197,-1209,-498
3164,-7332,-4109,-6124,419,-1839,1362
3165,5775,-6519,-160,-664,414,1161
3166,-1503,-1777,324,-1122,1255,-1292
3167,-5670,-276,2534,-1035,704,1729
3168,-4357,-4634,5681,-1083,1232,1574
3169,-6385,7773,-1957,-353,1323,-1136
3170,-779,-1905,6492,-1007,-1787,-1881
3171,-7704,-2307,4471,1854,572,-440
3172,-3052,6794,-4698,1837,1694,-1756
3173,-3555,1189,3467,107,1724,1331
3174,6984,-7753,-7223,1191,303,1929
3175,-5077,4464,-2196,-1935,-633,-574
3176,835,3246,6776,-1547,1145,1065
3177,-3549,-6741,-7669,736,-19,1173
3178,-3739,-3856,-6864,1821,273,-997
3179,592,2563,4585,-269,-1102,-1697
3180,-1808,5176,-4032,618,-321,763
3181,7527,2105,-1512,-1237,377,79
3182,-6152,-2940,7956,1817,646,512
3183,2353,-4086,-5462,991,1998,1632
3184,-6977,1293,-537,1426,-347,887
3185,-3319,1470,-6241,1681,705,1765
3186,-6336,845,-3249,-1382,1852,1198
3187,-5967,7034,-1142,121,1483,1442
3188,6205,6071,-3908,1814,-1902,1734
3189,1667,-5538,3655,393,-1757,347
3190,-338,-6227,6268,-258,1818,1418
3191,-823,-896,1551,-323,-1950,1695
3192,4270,-2293,-2695,312,-1335,1784
3193,947,-547,-4731,-1705,635,-432
3194,5539,3450,3722,61,-1700,1441
3195,2050,3677,-4414,-425,-585,629
3196,3544,-4859,-2043,-153,-1313,1564
3197,5583,7131,919,-1786,1899,-1274
3198,-348,-2820,-2290,-1883,1541,1690
3199,6447,-3438,6134,-1433,225,-107
3200,-3248,306,7883,-1594,1273,-531
3201,6058,-3720,-885,1202,261,-208
3202,-1337,7209,3959,276,1085,-1692
3203,1477,1234,7094,-227,1516,1261
3204,-1668,6446,426,-718,1513,1301
3205,3918,-4070,7817,1402,368,-797
3206,6304,-7571,374,-1303,567,670
3207,-5999,-7403,5492,-425,-627,-7
3208,-1820,-2444,-2190,-15,712,-1889
3209,-2122,888,3416,-1226,-920,-1821
3210,-7887,-2103,-4617,-1337,-1290,-244
3211,7281,7332,2071,298,887,-1540
3212,-228,250,5768,-1964,447,1713
3213,7793,4875,-2537,1903,-221,-1673
3214,-5320,-7041,-6617,-87,-1064,952
3215,-5405,3672,3730,753,-676,-12
3216,-637,-3325,-3428,810,-1905,1291
3217,3905,-2823,5140,-647,13,434
3218,4139,-2910,1374,-769,-476,1236
3219,6367,-6366,5024,-504,411,-1009
3220,-265,2643,7515,-1393,1944,11
3221,6906,-1227,6218,1417,-1187,562
3222,6020,6978,-6054,301,-264,978
3223,5765,4786,-6229,407,-1138,1968
3224,-4404,-4707,-5441,910,-1762,440
3225,-6558,-5754,3944,-89,-1376,-1643
3226,-7827,2848,-6230,-853,1277,1573
3227,-3273,-260,-5268,-1476,1432,-24
3228,75,2430,-3094,-969,1462,-1375
3229,-1130,-6393,1159,1214,1489,1870
3230,-5781,-6088,-5910,-1706,1163,1382
3231,4310,-5497,4679,1649,1915,486
3232,-4284,-4058,6706,987,-571,-1233
3233,3186,-3106,-4132,382,1656,-1871
3234,583,4749,7692,1013,-213,-268
3235,3678,-2673,3602,756,-456,-621
3236,-2038,4375,5519,-27,-30,251
3237,-7930,6441,5375,1491,1048,-1350
3238,-1818,-6,-1059,-98,-35,-34
3239,-4568,-4542,-6116,-1950,-801,-230
3240,7413,-453,-6989,-635,634,1957
3241,6706,258,-967,773,552,360
3242,-3997,-4151,7034,-1659,-639,-189
3243,-1472,1857,2151,-147,-948,1449
3244,4464,7537,-7487,-1684,374,1742
3245,-174,474,6459,-1418,-375,-776
3246,-2859,-329,4633,-389,-920,1034
3247,6603,5751,-2820,1525,1854,1680
3248,-1232,-5985,-3875,-708,977,-1779
3249,4195,468,1926,914,-853,-1335
3250,3755,-3824,15,1068,1758,9
3251,-3068,-3356,-4162,-990,198,-1024
3252,2643,288,-681,1657,-221,273
3253,-3537,-6904,6464,-640,-1645,1904
3254,5280,-4293,6787,-491,1802,1942
3255,618,-5264,2679,-1618,-1447,630
3256,5492,5695,249,-1346,-837,7
3257,-5231,-133,2809,1591,-85,1977
3258,-759,5561,-3214,257,747,-1945
3259,-3488,3169,-4537,-1451,-1587,1034
3260,-3303,-7530,-4315,20,1402,306
3261,-572,5146,-3677,-742,-234,811
3262,1682,-6268,-6018,1643,-17,217
3263,-5654,-887,1817,-368,-1692,-1956
3264,1363,-1347,2877,-654,-1919,583
3265,7228,7721,-5955,-411,-1189,145
3266,-7841,3328,-1948,1852,-785,278
3267,60,-4914,7252,-1386,-1412,225
3268,-4899,5327,-1397,66,1592,792
3269,-7341,3787,-2955,-1471,-1220,1530
3270,-7496,4552,-5349,-404,13,1661
3271,-3822,6333,4614,1620,-853,277
3272,-1405,1878,3618,-1949,1461,-1179
3273,5143,3467,6097,-314,1585,837
3274,-4703,-6671,-1397,-1015,796,-1816
3275,-775,1996,5414,-1736,-1376,-313
3276,3961,-4050,-5756,1094,1154,-1142
3277,210,-4998,3724,713,57,-1117
3278,7837,-6996,2645,-188,-1893,1057
3279,6994,7105,-5344,-356,1022,-273
3280,7200,3585,6918,998,-871,125
3281,34,6596,-1495,1661,1217,-1530
3282,5550,-7659,-3349,-636,-482,891
3283,3480,-4144,1464,204,51,-1612
3284,4528,612,7606,905,216,-898
3285,3125,-6132,4047,435,-1996,1487
3286,-2417,-3974,-3165,-1276,-29,-1543
3287,-6337,673,6870,-830,666,117
3288,-5526,-223,-5050,244,-373,-63
3289,-7071,-2859,4923,923,449,1703
3290,7841,4857,-1972,-630,1665,-1768
3291,-6079,2521,-2933,-1360,-596,-1870
3292,-4158,1202,-5866,-1332,-1997,417
3293,-901,-2579,-7852,450,1635,1323
3294,-5671,643,2134,-483,961,-738
3295,-3390,-7466,-5270,-716,-1665,-854
3296,3856,3358,-3251,-141,988,286
3297,-6322,3541,2853,-543,376,-1902
3298,1087,-4676,-6,-1832,24,1465
3299,5348,-666,2762,1702,-1247,1625
3300,543,-4389,-4430,1167,164,1484
3301,6432,-2999,7824,1211,401,884
3302,2183,-5687,639,-1080,1428,1602
3303,-4080,-1413,2724,998,-329,-276
3304,-1629,-3639,-3595,184,-1617,1202
3305,4024,1683,-76,-367,51,1202
3306,-4665,7118,5727,312,1070,-464
3307,2904,-394,6895,-192,1525,1755
3308,-2829,7684,-5240,770,-1654,-1725
3309,3784,-4719,-4732,1017,-1829,1198
3310,1937,5454,-3375,593,-518,-1943
3311,1809,3858,-1771,-684,1440,-1043
3312,2142,-5921,6911,-128,-1331,-1767
3313,1865,277,-2526,871,-587,-1758
3314,-3265,-2533,1111,1350,-857,224
3315,3077,-7400,1667,1893,41,435
3316,-7308,7365,6359,-1736,540,-744
3317,-2800,-156,647,-246,-840,-1192
3318,251,1283,496,473,1574,1450
3319,-2746,-1827,5141,-1220,-1435,465
3320,3353,-4175,4468,-825,-779,305
3321,-529,-3283,4049,-780,1227,-1314
3322,-2411,3312,-186,325,-870,-650
3323,-3628,-5200,5247,-421,45,-730
3324,2613,-5425,6132,-1023,1460,-582
3325,-4463,6459,776,373,-146,1229
3326,-460,-3285,2523,-1386,-1250,-334
3327,945,-1337,-931,-215,601,-1765
3328,1527,7093,-7500,728,238,1264
3329,6027,1508,7903,333,647,-1960
3330,-2265,3244,-1806,-1900,1671,-323
3331,-5256,-2808,-7731,1271,-993,-1927
3332,5193,6857,556,-634,505,343
3333,4105,-3831,3079,1858,174,1857
3334,6698,-6292,1479,1718,1551,-1338
3335,-6078,-4367,-3109,773,1965,-364
3336,6449,-1357,-3231,-1222,-793,-600
3337,-5206,-3707,-6488,-544,646,-502
3338,-387,-303,-929,1869,371,1853
3339,-5911,-5804,-7902,-1321,463,-1548
3340,-1735,-6706,3886,1770,-568,-1378
3341,-3755,-1790,3240,-504,-51,-87
3342,-5636,-124,-6676,-690,-1644,-309
3343,-7850,5155,-4074,742,-1856,-1696
3344,-6733,-7657,3771,162,684,-223
3345,-7264,-5040,1257,1488,93,1258
3346,-853,4355,-4155,835,-81,-805
3347,1017,829,-3595,1484,-1332,382
3348,1300,1509,-4034,-82,-1987,-1188
3349,1269,-6009,736,-363,-1304,-411
3350,1184,-5854,2365,1802,1947,1409
3351,1827,6826,1506,21,-551,-1917
3352,6721,6058,-7349,539,93,-1056
3353,-1744,5860,2042,-203,-1786,1660
3354,6929,-2299,-4200,-1281,-1844,1285
3355,-6993,3204,-5537,919,1547,1983
3356,6818,-6648,2662,871,-396,1976
3357,7599,6677,6454,945,-1600,-34
3358,1162,1185,-2226,-1806,882,-1994
3359,-2832,-3598,-5062,39,906,-1976
3360,-7459,3752,848,1846,-893,-776
3361,-527,-1560,-6094,1596,-349,1718
3362,-2341,6236,3227,1777,-147,1780
3363,-2602,-1774,-6811,-1013,-1839,863
3364,5442,-1940,1757,1426,-830,-1402
3365,-5274,5841,2870,-1811,-1666,-1562
3366,-6606,-1868,2463,674,-1694,1547
3367,3381,2926,-2058,-34,1546,-1826
3368,3754,-6660,-4010,-1137,1789,455
3369,3800,131,19,375,-1491,-193
3370,3393,-2326,200,-1825,-1856,-978
