Sample,Ax,Ay,Az,Gx,Gy,Gz
0,-4758,-7068,-1416,-1091,958,1477
1,7363,-1841,3798,818,-582,201
2,-1638,-2351,-3743,1904,997,1588
3,681,-6823,3713,308,1958,-658
4,-3075,6386,-3759,-493,170,-640
5,7021,-2556,4613,-1027,-303,-768
6,3328,-3934,-4823,1095,-1599,1512
7,-3037,-1300,-442,826,1447,-972
8,-474,3019,7247,173,330,1755
9,4238,2704,-812,-271,1532,-264
10,-3534,3187,-2181,1933,853,-459
11,-5608,448,-907,-623,2,248
12,-7254,-2777,-6342,1587,-1762,-1317
13,-3352,-3977,-4305,-973,-689,-621
14,3456,5618,-4613,1642,1277,-810
15,6480,3930,6486,876,-163,-242
16,-2860,-4020,3771,-553,785,-1444
17,-2728,-6824,7221,-1074,-1269,-1275
18,2356,4013,3520,-1243,-741,197
19,-6599,5282,7864,-248,-127,-830
20,3797,-7331,-1033,-814,-843,713
21,-4903,-3783,7454,1952,-584,660
22,4162,2342,1570,1860,-257,-486
23,6504,-2370,4393,521,1242,412
24,-824,-2983,5671,797,-439,-1358
25,3317,-3235,5260,-101,1810,1914
26,5404,-4635,3385,189,1558,-1330
27,1501,483,-5443,-1107,453,237
28,7435,-5537,-5502,-1223,791,-1678
29,-1000,1414,-1845,-1308,1014,-1694
30,-7729,6512,-1413,1137,-1012,-1166
31,-5589,-6645,-7477,-877,-1333,1381
32,1076,-2716,2005,-20,-589,342
33,-2503,-5347,-7604,-150,-1024,-1659
34,7762,-1992,7267,362,-1459,-1254
35,5563,540,2969,-269,419,457
36,-6346,2375,-5525,-541,596,1474
37,6575,3231,-5980,-243,-1204,1721
38,89,-25,-1636,-1854,11,-33
39,-7214,-4779,3948,1089,482,907
40,7766,-7783,-3353,745,350,-1008
41,2743,1540,5338,1974,1353,1875
42,2008,-7072,-7399,-1673,1980,767
43,-3572,4924,3775,-788,1170,-383
44,3851,816,-6810,-1832,-604,1182
45,-5188,-7047,4397,399,-1749,1305
46,-6115,-6960,7320,-932,1456,-1671
47,2829,7419,-3779,91,524,-1369
48,5660,-1679,2212,1841,709,-974
49,-5452,-5757,-6314,-1630,375,-1330
50,-5968,5455,2070,39,-678,454
51,-2878,3694,6997,55,-1617,61
52,-1498,-6785,-507,-1845,1158,-1545
53,6459,5090,6391,-443,588,538
54,2972,4905,5141,-1077,1759,1255
55,1385,5134,1430,108,-1767,1220
56,839,-315,-686,561,1335,1819
57,3955,-1252,-6492,-1111,281,1789
58,-7613,5683,-941,-935,489,-1380
59,-946,-3709,1854,1300,-539,-1435
60,-7131,-6168,-2674,-1179,-1260,1213
61,370,-7427,4372,-120,-1252,1883
62,-5178,2770,-2487,1819,-1280,1875
63,4303,87,3083,-1322,1055,-443
64,5610,7710,1591,-1816,-1747,184
65,2788,-3180,-1427,-1967,-1880,-908
66,-4559,792,-5741,575,-272,-1832
67,-3935,-4524,5487,-752,1075,977
68,6900,4241,-5173,1181,1038,-367
69,2372,-7449,7837,1547,119,200
70,2302,497,4802,-272,-465,-1082
71,7686,123,-4941,240,-1977,-1176
72,-3184,5119,-753,460,-644,161
73,-480,-6613,6387,-1227,707,762
74,-4739,3191,3631,-138,-825,240
75,-7638,3357,6137,-1330,1254,-128
76,2190,-1936,5256,-428,-386,170
77,7220,-4773,67,-1282,-1114,13
78,5717,864,-5815,1166,1083,1236
79,6476,-2242,-3284,1768,-1454,801
80,-5221,6941,-4096,328,1666,-1586
81,3793,6551,-2685,1606,-813,1696
82,-518,3446,-3427,1295,852,1603
83,5638,-4208,-5494,-1767,-1661,410
84,6621,-3611,5078,1199,1095,1925
85,-1917,-5878,1229,1116,195,-814
86,5883,-3775,-7685,635,822,-581
87,-5231,-7137,5924,1387,-345,1594
88,-712,3077,2215,-1380,1416,1784
89,-6556,-571,-6415,-1816,-1843,426
90,2138,-143,-4701,-387,1100,-1087
91,-6253,3870,6228,-1941,-1705,470
92,-4902,4572,-2476,1528,509,-1865
93,-5183,3399,-6249,1019,31,518
94,-5049,-3290,-7779,-511,-168,1362
95,2628,5513,3991,-1527,-873,-1472
96,-3725,-4107,3016,-161,917,86
97,-1838,-5977,5067,2,-634,-956
98,-971,2858,2724,1059,-1928,-1561
99,2312,-1992,510,1493,1063,25
100,-6417,-5688,2757,111,1554,-520
101,-6944,-2073,1756,-168,801,-794
102,-7624,4828,6163,-1229,1409,1982
103,2590,-2227,3793,-665,1813,-1323
104,7073,-4552,5514,-838,290,-1967
105,-1441,7969,2065,347,-1862,-1469
106,-7515,-2903,-1601,1092,-475,-1412
107,2445,-5372,-2991,-240,496,1818
108,-7979,2984,6846,-311,-1748,-1511
109,-3782,1481,-2395,-1864,-1573,231
110,-889,6332,-5064,1623,1433,-1716
111,605,6942,4371,1896,-1603,1965
112,9,-1535,7330,-574,-1460,1098
113,-653,628,3764,126,531,-341
114,3086,-1362,-77,634,1276,-449
115,-1520,-5004,5336,1397,-1626,1541
116,-4456,-4121,7077,-721,-1967,-1771
117,3052,-668,7762,1099,1623,-52
118,6699,-115,-3949,611,-1485,-1196
119,-1618,3588,-7801,-1095,759,237
120,-313,-5733,-7198,-14,-1902,1202
121,1906,-2220,-4309,1000,-631,-1627
122,7624,4578,3032,1916,696,1287
123,3807,-5310,-3227,-465,1533,1699
124,2635,-3964,5727,-11,168,-1224
125,6813,5695,273,333,1341,1494
126,-3570,3545,5629,151,368,1285
127,-1875,-2619,2218,-997,1230,-1177
128,-1978,-3524,2840,370,156,1540
129,1246,444,-3550,875,1385,1219
130,-4183,-6246,-7243,-723,1876,-1556
131,3248,1800,-4516,-1704,578,1796
132,1283,-2407,1720,741,425,-1680
133,2649,105,1829,-1175,-1507,-532
134,-390,-3666,2737,272,-771,918
135,-1481,-3861,4846,1097,-314,-686
136,7337,-4677,-5464,1868,-93,1605
137,-6501,4028,5944,1855,-1611,-1909
138,6934,-3561,3663,-852,183,1885
139,-7300,-2851,-6040,-1574,1589,1633
140,4317,616,2902,-626,54,-1702
141,-4024,109,391,-628,-568,-32
142,3408,5969,-5622,-604,-1941,-224
143,6843,1389,3562,-251,894,-445
144,773,-5405,-2368,-1449,-1526,-17
145,6196,-3672,-4490,-766,-89,1358
146,2544,6644,-6078,1896,1617,1979
147,-6301,3323,-5611,-1863,720,-849
148,4177,-7011,7945,-409,511,-964
149,-587,-5242,-4033,-301,1186,2
150,-6236,-120,-6174,1057,1920,-1828
151,2585,-3857,4148,-350,1781,-1081
152,6419,1159,-7112,-256,1667,695
153,734,-6780,5979,-1479,-1224,-797
154,-6753,4635,5169,-428,-1534,1954
155,6469,2611,-5200,-812,-1818,-1234
156,4754,-6625,7635,512,-18,-1793
157,4798,-2476,-100,-1118,-1387,1545
158,-1067,-3403,-437,-534,-690,1802
159,-7530,2882,-173,-388,400,-1514
160,4359,-5752,43,-373,-1852,-1153
161,5733,6056,-6489,994,786,-945
162,1558,-5927,3601,1153,-1843,1977
163,-7326,-1898,-4333,1635,803,-809
164,-2372,2697,-6660,-1333,670,1859
165,4237,2421,-6860,-1700,-1373,1983
166,2414,659,1242,1154,-1611,1004
167,-7713,5777,606,1816,-665,-1537
168,5511,-5089,5731,-1890,-1068,217
169,-1515,4793,-1662,-762,-1174,159
170,-7656,-843,-4234,-176,-796,1868
171,-1996,7207,1605,893,1228,-890
172,-1623,-2801,-4216,1235,-965,-844
173,-4504,7913,-7464,-229,1559,1070
174,-7831,2235,-7134,232,-1154,722
175,-6803,-1128,573,-960,1728,1251
176,-1699,-6893,-6865,-1008,-1080,1580
177,-4932,528,1882,131,-1798,-1901
178,1836,-1069,-7354,-1374,1289,-457
179,4905,-3446,4483,-910,-1625,1470
180,-4466,7293,-5492,-351,-516,1832
181,-1222,5603,2692,-1080,-1159,-437
182,75,2293,-1588,1891,-412,-1682
183,-1926,419,6821,1826,72,-858
184,-3731,4305,-74,1016,-92,883
185,138,-912,-1032,-498,-799,303
186,1339,1292,-685,-1278,656,1053
187,2598,1588,-2437,-1215,632,-116
188,5286,-651,-6389,-803,1509,379
189,-1715,4588,-3482,1620,1061,1052
190,1352,-6641,-3018,-142,-736,-197
191,1384,5520,6426,-1044,-1516,899
192,4567,893,-4096,-1059,840,646
193,7825,-1840,-48,-663,303,-1512
194,874,4765,1795,-582,57,1463
195,7982,7603,-349,-1285,736,-1832
196,-519,5424,-6465,-1695,700,1129
197,-3715,-318,-6721,-828,-179,256
198,-6556,1525,-1629,412,-1491,1092
199,6756,-584,4641,738,799,-1566
200,-6620,-1331,-4640,-1581,1759,-751
201,143,5527,-5462,-1664,-46,-217
202,3162,6862,2661,849,1139,1873
203,1098,3645,-4202,-1959,-1451,6
204,-3598,2158,-6037,1166,-1263,-1011
205,3081,4306,4989,1567,1295,1298
206,3751,-3458,6523,324,-970,-493
207,-5586,-7861,-2711,-1626,1448,-1119
208,-3737,2251,-1258,-1731,-430,1944
209,5481,1784,2291,-1343,-1479,-281
210,4447,-816,-6837,442,-616,1971
211,4688,844,5198,-1922,-1450,-1204
212,6425,2196,5769,-966,-1556,1271
213,7946,-7061,-4460,-754,50,-1741
214,717,277,-7182,-1147,-379,112
215,5869,-4983,5600,-369,1080,1910
216,-4122,2748,-272,257,401,1632
217,-2974,-2717,-5814,245,1928,-1991
218,2006,1475,5817,-615,1211,1698
219,3743,-1009,695,-1449,-1975,1061
220,6370,5676,-6084,114,-1343,-484
221,6595,3174,-1845,-1887,1359,866
222,-5577,-885,5668,-1749,-409,1471
223,694,3283,-6169,-974,397,209
224,-1174,4314,-4261,1911,-839,-1701
225,1941,-112,-4802,-1652,-1947,24
226,-1549,124,567,-1070,388,-1054
227,3026,4818,-2720,-561,973,-588
228,2859,-833,-250,1588,1757,-8
229,297,1786,1991,1368,-1998,1035
230,7387,4070,-7094,1774,445,-1972
231,1051,-1480,-680,-105,369,1970
232,1147,4412,-7836,-409,-1391,-1827
233,-1217,-5328,177,-1349,-113,1957
234,4741,7860,-3387,-199,1249,1318
235,6966,5325,6373,65,1145,1771
236,4664,-6119,5844,-1668,1885,296
237,972,-7643,-347,-992,1926,-779
238,2343,-3004,-6549,-490,1104,1139
239,-6672,4807,1317,1767,1729,-227
240,1064,7863,-5087,1345,-1559,-1872
241,-4910,-7956,789,-1386,-338,806
242,-5442,7620,-5008,-1731,-1584,1271
243,3438,-2500,-929,1408,522,-1365
244,721,6927,520,1977,-699,-891
245,-3434,-6874,7272,-1203,540,117
246,-5327,-4707,1054,1709,244,-262
247,-4404,-6668,1180,1584,1499,1955
248,5086,-4874,6376,-844,1596,471
249,4842,5562,-7812,1626,-1045,-1482
250,7340,-2577,-1143,652,903,-440
251,-7159,1004,7214,-1960,-490,40
252,-1512,-7591,-7341,-195,-213,1138
253,5311,1656,6050,1331,-341,-89
254,-1147,7179,793,-119,-597,718
255,5377,2898,-483,117,-1947,712
256,-7746,1886,-2013,-1866,-1779,-710
257,-3271,-810,4915,382,-1433,-1459
258,-4829,4419,-3350,-548,817,1671
259,5833,5633,-7627,-142,387,-745
260,5893,6515,7236,-1867,322,1266
261,-6401,4022,5037,1062,902,-706
262,1217,3283,-6004,-1484,1039,-606
263,-5963,3064,-4721,-27,967,706
264,6621,7277,6461,1031,56,1157
265,1367,-515,-2126,799,-1648,1842
266,-493,-5155,556,258,1693,459
267,-6328,6191,3208,228,-217,884
268,6759,-5871,-689,-855,-226,-1977
269,5098,-2099,-7041,734,-862,717
270,3326,-365,-6943,-677,1359,-1004
271,-5976,-756,-3695,1198,1847,1341
272,4083,7903,1743,-168,1175,-743
273,-7117,7469,-188,-1198,-1203,-342
274,1946,-7925,4261,-1334,1225,1243
275,-759,-5908,5019,880,-401,-1790
276,5466,-5506,2826,-979,884,-679
277,4459,-2262,6997,-926,-1373,-561
278,-6176,-3527,654,-983,1874,1067
279,1790,3319,309,972,-532,-1433
280,3183,1971,4509,-166,-266,-533
281,-537,-2168,4735,-1960,1576,-1791
282,205,-2466,6079,-1009,-1609,1951
283,7742,-6956,-4757,-248,-1711,1667
284,-2255,-4745,-5141,1526,194,291
285,-6663,291,-5312,-879,-1650,1149
286,-6281,4481,4342,950,1300,-1294
287,2653,4201,-2114,-1495,1210,284
288,2008,7609,-6552,1124,1078,932
289,6227,-160,-3296,-1986,722,1350
290,-5384,2246,1679,-360,1988,1024
291,-4308,-5751,3629,-1246,-1273,530
292,3495,-7001,2086,1066,1212,-315
293,-4181,6148,4817,151,-1707,-428
294,-2532,-6322,6528,648,62,513
295,4840,-2261,-4206,-209,1717,-1406
296,2554,6804,1701,483,-1024,-414
297,-4820,-4565,6547,-573,1794,-187
298,1061,-5980,-4774,-1213,1227,-1897
299,5639,-3460,-4307,1271,-1831,-569
300,6062,3461,-4775,-189,-236,-109
301,-5770,7712,845,-188,403,-237
302,-5709,-3515,-4230,1790,327,1495
303,-149,-984,757,-258,-1669,792
304,4649,-7895,7152,-1816,-1244,-1235
305,-110,-5307,-4812,1341,-1907,1366
306,-2204,2677,4473,180,-1583,242
307,1497,273,2229,-1716,-208,654
308,5630,7526,5019,381,-394,-1143
309,3239,-4840,-1710,1272,-1321,-835
310,-2961,7089,-353,-1623,-548,-385
311,1538,3975,-5534,-1804,-814,-1405
312,5836,-5903,-5667,498,154,-637
313,-6454,-5901,-4259,-484,-1470,-632
314,2827,-1716,-5492,1665,-954,404
315,7834,-6978,7053,-982,635,147
316,1248,877,3197,806,-529,-1578
317,-2415,-4470,-478,-549,-1150,1599
318,-6998,-2743,-427,-1644,1649,-960
319,5333,-1452,-6645,-1582,1092,-385
320,-3696,-4076,-1396,-767,165,-1460
321,7848,-682,-5592,-1826,-1376,1641
322,-3033,-3364,-1864,998,1748,-8
323,883,-7739,7288,1067,-1384,-907
324,-4379,-4497,7712,-1564,-1621,937
325,6155,-2628,-4680,1089,-1847,113
326,-3733,-1729,381,378,-859,712
327,1482,-6753,4436,-886,-1700,726
328,7036,-5253,2002,-6,1632,-1066
329,-308,-3817,-4330,-15,183,68
330,4587,-7116,-1933,956,782,759
331,-7260,-98,-2380,1709,-963,723
332,-7428,5249,-4545,1680,349,-338
333,3935,-1155,-7481,-1484,-1214,-518
334,7741,-2574,3839,1306,1128,-206
335,-3212,-1342,-1234,1008,1118,116
336,6962,-6173,654,-557,1245,1877
337,2862,-2907,-5325,1059,1530,1521
338,-6325,-1052,5573,1528,-187,1010
339,-6335,-5221,7947,805,1600,1908
340,3347,799,6679,1905,-709,63
341,4958,-713,-1393,1857,-1874,470
342,-995,-1966,-1973,1050,1672,963
343,-4922,4285,2353,-182,-968,602
344,-3246,4842,-2210,-145,1755,-1286
345,-5325,-4328,5874,-1979,452,-450
346,-6460,-3260,-344,678,-1124,-1699
347,-7176,4838,-2531,-1301,187,-32
348,5775,-2252,1876,1805,1502,925
349,2262,-788,1844,-337,-1474,39
350,2537,-5726,7385,1115,-663,3
351,-3936,-1080,-7732,-1334,71,215
352,5767,-6502,3657,1937,982,-1973
353,-7717,-6516,-4579,1752,128,-1451
354,-549,6572,-4518,-1226,-128,351
355,-7954,-3315,1460,-1829,1324,-1258
356,901,2682,-4260,1370,1455,-1654
357,287,-313,1036,-59,-1481,781
358,3143,-1326,-4291,353,1672,450
359,4610,-3302,-7707,575,-391,1845
360,-5905,-6015,-1502,1833,1179,612
361,-2240,-484,2166,-197,-178,-1003
362,5824,4271,-648,166,-653,-18
363,-1360,3123,-15,-175,1427,1492
364,5457,354,-7958,1718,496,-622
365,2313,-4886,5137,-1990,-1417,-1169
366,7564,2708,-5802,1755,580,-975
367,5583,-90,6128,-1375,-1196,614
368,2275,-215,-4756,1979,729,1024
369,-5736,6768,-7291,476,934,1600
370,776,-929,5795,1715,-1967,892
371,7104,-6199,-4704,-1703,1483,1013
372,-5059,-2745,-7962,793,-1944,-624
373,547,3989,-5933,-927,-1945,1283
374,-5504,6390,-1946,139,664,-688
375,1270,5479,6565,218,-698,-759
376,7757,-1554,-2097,1894,1925,1564
377,-920,-454,-4237,-776,-605,-679
378,-5623,3190,7616,-1638,-1227,288
379,-7459,-3065,664,1803,1576,-817
380,-6872,-7055,6181,-1692,-1733,849
381,7246,-7648,6296,-1711,48,368
382,-375,5308,2910,-1531,1183,-241
383,-1522,-6014,-7340,840,1347,687
384,6448,-2518,887,-809,628,-597
385,-7585,-2156,-5319,714,1565,-644
386,-4593,4270,5821,1900,-1118,1618
387,5874,-805,-5730,-665,-657,72
388,-2112,3458,4614,-911,1167,-985
389,-547,-6772,3843,1001,-215,-1550
390,-3137,4748,-5783,-1279,1428,1401
391,3959,-3447,418,1431,145,8
392,2911,-3898,-4337,-1841,1521,-200
393,4476,3339,-1083,1100,-215,-216
394,6261,-1719,2388,-638,-1645,550
395,-92,-4195,-4640,-1178,-1762,-907
396,5001,-4556,3503,-1538,-42,-683
397,6140,-5190,5700,546,-166,1003
398,5714,-5705,5662,546,-1060,43
399,3934,4714,-1244,233,1432,1835
400,-4943,5562,3686,-790,1544,91
401,-7939,803,2398,-98,1354,-1558
402,1598,-233,2277,580,1448,1086
403,178,5443,-845,1465,-1781,-1538
404,3682,6970,3633,957,970,1966
405,-6732,4700,-1882,362,1564,-1327
406,6922,-7086,1198,1931,382,-186
407,3315,-3357,-2043,178,-1543,1022
408,1026,18,-3168,1148,-742,-1987
409,5112,4280,-268,-66,-1537,-475
410,4647,3208,-566,1614,-987,-431
411,1240,-5049,-312,1893,-249,-1748
412,7924,-559,-18,474,-821,-606
413,4782,7382,1910,525,-1042,1410
414,-3210,3474,844,1855,1604,-1234
415,-3300,973,2318,-1551,-1451,1354
416,-5402,6528,5620,-91,41,-742
417,-5279,-526,7268,762,63,-324
418,-6498,154,3680,-1059,1555,1499
419,-4431,213,-1583,-1729,1307,1006
420,1874,-7405,96,474,604,352
421,3720,-606,3021,-894,-1659,-1767
422,-6979,-3697,2955,1910,1030,430
423,3478,-742,648,1443,1901,384
424,-476,5732,71,-939,-1890,162
425,-6952,448,6266,-1935,-556,474
426,-5517,5765,7373,1743,-963,679
427,-2798,2495,-4973,48,-292,819
428,-1143,-5490,-2942,1143,-169,537
429,4500,1171,-934,1154,-291,-386
430,7019,-3291,4811,-1842,26,1326
431,-629,-7667,1112,-1090,-1296,-1550
432,-2282,2408,4074,-1047,-1274,406
433,-5117,1385,-1622,-1815,-541,-534
434,-4388,-4824,-2058,-250,-809,486
435,2155,-4671,-1451,-1581,-624,-1243
436,-7814,855,-7089,23,360,566
437,7680,-284,2599,-239,-1922,-1835
438,4384,-2067,-6834,-1142,868,1446
439,-3863,-1899,2426,541,1221,-431
440,-3368,-3568,-2566,-1647,-159,-941
441,-134,275,7264,-1520,-326,1233
442,-6632,-1081,-6722,-992,271,13
443,-7975,6985,317,968,1131,-119
444,-2009,-3254,2757,1995,-1685,-730
445,6439,-1215,-7909,-1321,-1342,1247
446,2101,7205,-972,864,-1313,1411
447,1413,-876,-4486,-1232,-285,520
448,2101,-1422,3680,1905,-126,207
449,-4019,3774,-4322,-1824,-1162,236
450,-6416,2675,4478,-524,932,-1440
451,-7443,1415,-69,-804,-448,-135
452,7777,6050,955,-946,-969,-65
453,-2906,-3229,-3171,1300,-115,-1911
454,-5918,4038,689,-1155,661,-582
455,6548,-5332,3384,1460,-887,-1763
456,7570,-5891,-6867,-1249,1102,-900
457,-5626,6374,-2640,1090,1004,735
458,-6873,7086,2131,1265,-1888,-493
459,-1331,1206,-5694,473,1995,813
460,-3340,1116,-3879,-902,-1616,1926
461,2123,310,-4762,1639,1331,-1335
462,2017,4311,52,358,-328,1713
463,-7568,3772,7337,-19,-1089,955
464,-1149,7838,-2321,-1428,1707,-776
465,-5261,7218,-4111,-1230,1346,39
466,6859,5799,2230,1868,1135,-609
467,5595,2990,-7086,-1290,730,183
468,-7417,4530,396,-852,-103,1968
469,1029,36,-6957,674,1669,-1292
470,5258,-4263,-7019,-133,522,-1435
471,-192,5018,7053,-1022,-1781,-1583
472,-5116,-580,355,-1255,-525,1162
473,5143,-6497,4834,734,451,-1400
474,7628,-2946,-1918,-1289,-638,270
475,2043,-6668,-2957,-1702,791,1466
476,6783,7137,1668,621,-188,-1243
477,-5476,-3983,-4170,725,402,1097
478,7860,-1421,7810,-1202,744,1796
479,-4410,3511,-3097,-557,-817,227
480,-1006,-5481,4144,-1773,354,-1278
481,-6467,999,4181,-281,645,-599
482,3917,2333,-2593,1375,180,1352
483,-154,-6342,-5988,-1901,-1887,1563
484,60,-2388,-7411,-120,-1089,-1247
485,895,5176,-7825,-734,437,1010
486,-6035,-2463,6834,-452,1743,-425
487,1569,2380,4587,-209,1866,-967
488,7744,433,-3691,744,-1212,1990
489,3046,-2196,268,-1742,-265,1060
490,-6736,-6669,3039,-641,490,1787
491,7526,-3766,-3085,1126,1872,1699
492,-7982,4596,-2708,-745,-88,-1458
493,-5771,519,-2790,648,1254,1294
494,-4956,93,3047,1481,-1431,-1996
495,-6015,-7257,226,-215,1711,1677
496,-1188,-6869,-5162,1579,1545,563
497,164,-7572,6719,205,657,-1346
498,2758,5485,6836,1776,1190,1133
499,-1931,-231,-6869,249,-229,-1767
500,791,-5839,5824,-1619,1964,1432
501,-2185,1985,5694,-1662,-953,1697
502,7087,820,-2939,435,-1721,1054
503,-2601,5715,200,1827,1299,1341
504,7741,2103,-2049,-47,1931,-591
505,-1301,1386,3463,-711,-312,-1475
506,5383,5107,1306,538,-1383,811
507,2126,7623,-3378,-839,311,-1167
508,-1535,4748,-2955,413,-1058,-1295
509,-3891,-6527,-6413,617,-152,1507
510,-6648,-6587,6530,709,1339,251
511,-856,-103,-4281,251,-1429,33
512,-638,-5012,-7950,891,-818,1331
513,6471,3338,5547,-1422,-181,-1534
514,-7605,5932,-937,-1347,-341,-1623
515,4932,-6840,1238,617,1123,1427
516,155,-3050,-7513,-258,76,-231
517,-2787,-5057,2265,1895,-492,445
518,-2075,7461,-7746,-21,1326,1603
519,-28,7550,911,491,-1516,-363
520,-742,-1495,6948,-1400,-1356,1665
521,6658,-6647,-6978,1163,133,-542
522,-5802,-7483,3218,-1820,-1938,916
523,-7845,-6672,4088,-596,1501,-896
524,-5357,7681,-4878,-1680,1203,-861
525,6189,6912,-3809,736,-341,1429
526,6491,6201,4062,1400,233,1228
527,-2000,1582,-5817,-1601,1866,1063
528,4168,4675,1420,-1300,-1020,3
529,1623,4291,498,779,1898,1998
530,7550,5983,4915,817,1091,-1933
531,-6362,-520,-3648,-1446,-1915,775
532,2059,5781,-6240,-75,-1901,-773
533,-20,6269,3759,892,-241,-1775
534,1837,-2251,1484,1031,1677,1080
535,5684,6140,-5358,-597,903,-329
536,-1256,-4492,-6343,-923,-82,1256
537,-3891,3749,3630,-402,1144,-493
538,7130,5291,-7797,747,458,-415
539,-4371,5090,-1232,-1156,397,-1325
540,4891,-5927,-3836,1404,-956,-617
541,-6112,-632,5066,1651,688,-854
542,2969,-102,-5153,1433,-1929,-1357
543,3511,-6618,7377,758,-429,494
544,5567,1201,-4391,573,-1799,-1982
545,-5682,-607,-3057,-222,1239,416
546,-5001,5258,-7027,-629,-1484,2
547,5032,3350,-6056,178,-148,190
548,-5189,6961,195,-1251,-1375,-1105
549,4120,5381,5777,184,1881,335
550,4956,-3125,393,-916,1089,10
551,-572,6987,-1335,-376,-934,1423
552,-4703,-6756,-157,271,-955,-1850
553,-341,-55,-7163,1019,-214,894
554,1368,303,7101,725,1802,1665
555,-238,4563,-7414,436,-1685,-312
556,4863,444,-614,-1112,1671,959
557,-1283,-1934,-5038,-1380,-1374,1917
558,3212,-3162,923,138,-1513,-583
559,-2157,-1260,-3439,-1948,843,-1361
560,3657,-5463,-6647,-1449,-156,-1353
561,-4560,-884,5498,-1752,1414,-1535
562,6605,-6690,1144,1149,1738,-1055
563,-5847,576,6806,-1212,1349,-1918
564,1123,-282,7521,-725,1299,584
565,-6205,124,1182,-1891,-76,1328
566,-3628,-3876,6694,-624,1841,732
567,-3130,7788,7746,1102,-135,745
568,-7929,-4886,-1536,1203,1511,-65
569,1673,-2186,2229,-1798,-1729,1005
570,-1028,5761,861,-1641,-1913,-1855
571,2360,-1185,2687,822,1763,-238
572,-5977,2115,-1057,203,997,-4
573,-7726,-2662,-6974,291,259,1494
574,2261,-1989,-6926,1885,573,-916
575,1601,225,2987,-1584,1478,82
576,4189,-3578,2772,-1172,-840,1577
577,-7748,-5576,-6950,-404,-1139,-1943
578,4589,2109,-837,-1674,1525,-69
579,3616,-5050,-5481,-1720,1593,778
580,5845,941,-6473,1217,-1461,38
581,5280,6724,1300,-185,-1487,-1178
582,-3830,3457,1399,-276,-1794,-1458
583,-1371,1149,-4605,-1746,-37,-315
584,-82,-3271,-3998,-1608,-523,1051
585,-6108,-3506,6059,-1774,296,475
586,6638,5913,-433,110,155,-1828
587,3801,-7050,1361,1576,-1146,576
588,-1450,-441,-6302,-1143,-935,-1790
589,-723,6178,-5355,630,-1192,1269
590,3296,5297,236,866,1361,-880
591,-3893,6180,-6940,1852,1789,170
592,-3273,3027,5437,-884,-1939,1120
593,2543,7873,2432,-965,104,187
594,3059,4191,-7522,-1361,-447,859
595,4111,-4995,-1198,-1882,-1617,1544
596,7728,-1598,-3457,1658,-951,-430
597,-1929,-4274,-3841,-1856,-387,-1895
598,-1597,7464,-3789,-1762,485,1586
599,-1049,-1732,-6628,1920,1168,-1251
600,-570,542,-4894,-630,-1131,1251
601,3583,1778,6221,-166,-954,805
602,-6236,6319,-3058,494,1520,-181
603,-2509,458,-4164,-238,-1167,478
604,-4244,-5309,-2195,-1360,-519,1035
605,-2993,5829,2875,419,-207,-707
606,-3219,5385,1114,-1793,-917,-889
607,-3311,4810,4120,-907,-1025,-619
608,7801,-741,6542,3,-1367,822
609,5199,7198,7544,-383,859,1614
610,-4511,-1207,-160,-301,-1989,1162
611,-6668,2463,-2483,641,1790,1786
612,7914,5669,-7638,-792,-377,-1164
613,7713,6089,-7874,-513,-1140,-1389
614,-2186,-4725,-1095,1210,920,-825
615,-2873,1429,-4435,415,-1505,1970
616,-2070,1526,-7949,-1486,-1261,-1234
617,-2779,6633,-837,869,591,465
618,1375,3714,-3980,-588,-1297,-1259
619,-7216,3669,6057,-892,883,579
620,1329,-5207,-5868,-1050,527,1172
621,4226,-5169,-883,-1546,-1113,-252
622,1027,1994,-2777,-671,-1152,-782
623,5869,-7691,-2148,-1510,-1843,-111
624,-4987,11,3909,-184,1393,-1319
625,-3265,2005,4259,-524,-229,-1265
626,2499,5387,6069,1932,-1155,-1034
627,666,2592,4539,1635,-590,-444
628,182,7667,4168,-825,-1857,758
629,559,-907,-7430,-637,135,37
630,-3569,6295,-81,-556,1643,1998
631,-7149,-3441,-286,-1889,-697,1568
632,4020,6560,-6475,-1699,866,-898
633,6212,-4303,4669,339,1368,738
634,-5007,-7108,4848,1944,183,-758
635,-5983,4308,5496,1956,-47,347
636,-5105,-2795,7204,-539,-642,1166
637,416,632,-1568,1681,1967,-1708
638,-3689,-2809,-2152,-1293,36,-1962
639,2442,3161,-3892,831,-854,933
640,3283,-953,-4664,-1904,-1505,-1288
641,3743,-4226,-4446,127,-91,-1270
642,3575,-1348,3674,1245,547,-1919
643,-499,3498,-1330,-846,1919,214
644,-2185,-1891,-1194,-1198,-396,-1146
645,3664,4716,1639,176,1497,406
646,-6834,-2408,5754,1575,1776,62
647,-4685,1980,7009,-535,838,933
648,-570,111,-7170,-1497,-1285,-853
649,-7363,-6677,-6245,-1488,1475,-1718
650,1212,2942,-7839,1089,-1974,1706
651,-1750,-6746,6725,216,-1708,890
652,2504,685,1323,1282,1477,111
653,-7660,1415,4922,-1685,-383,660
654,5037,7162,3893,-44,233,-358
655,-2811,-7514,3759,-791,1882,1119
656,1147,-6315,5697,561,943,-722
657,-2422,-3856,-3587,-77,1858,1641
658,-2122,728,7920,1471,-893,-1601
659,6797,-2882,1551,1831,-1890,-126
660,-2395,-4222,803,-1020,-799,-1092
661,4818,-2,-1399,1613,479,-562
662,2950,-337,-5460,347,-150,-453
663,-5751,3191,7469,1372,-1948,-1314
664,-6669,-5521,-7827,919,-439,762
665,1862,-2732,-7214,-435,-1687,32
666,868,-4721,5105,-930,-92,-1462
667,5020,-3814,7210,413,1543,-1030
668,-5653,-4640,-1348,-1722,-1737,-1639
669,5735,-615,-283,-1531,-1125,866
670,4366,-4981,3154,-628,692,-1080
671,851,-1288,-193,-761,-1748,-1956
672,-7571,-3388,4110,-795,-276,-670
673,-6476,7288,-3406,-1401,-473,-1829
674,1531,2201,5713,-53,362,16
675,5825,-5647,3851,-1526,-534,-1660
676,3844,6002,1295,-705,808,-1411
677,6622,-6931,6139,514,-463,1060
678,39,7732,-5263,-99,1389,-551
679,-2237,-7871,6337,998,-140,395
680,-5929,-1048,-6583,468,-1820,-434
681,2436,6814,-617,-1500,-161,1883
682,-5089,5952,-4379,-987,-1632,-312
683,7506,4111,-215,-355,1339,-535
684,-6418,-2384,4332,-640,385,1550
685,-7932,-1794,6387,-1345,-1489,-1757
686,3509,1671,1567,248,-1270,331
687,-16,-7632,7993,1584,1797,1184
688,2755,-3170,-3947,1022,-142,347
689,-296,5744,-1770,-25,-173,-1148
690,2844,-7741,-7694,-76,-765,779
691,5220,-4451,-6230,-528,-51,-642
692,4692,-783,7286,285,-1694,18
693,4154,-577,2510,-487,-420,-780
694,-7347,-422,-878,-895,698,1149
695,2269,116,5020,-115,-1267,1473
696,-1265,-2634,-3202,-839,-33,820
697,6247,2001,7994,1403,-1344,-544
698,-2807,2762,2987,1011,-426,446
699,6972,958,3694,-1557,-1587,17
700,3293,203,-39,1647,683,1564
701,742,-6082,2188,712,-1728,-1570
702,4576,-2572,1678,586,1773,476
703,-4855,82,4460,-836,-500,1294
704,-1970,-4717,1548,1713,1908,268
705,-1692,-6581,6382,-69,-211,-1839
706,-3432,-5642,-3046,-859,-1161,-400
707,-6521,-3593,4244,-630,1283,-55
708,1236,3837,-3020,177,1658,-1848
709,2083,-4863,-7261,-1671,-1018,-1606
710,3169,-4137,-1624,797,1576,20
711,-5695,6803,5697,1468,-276,-1605
712,-1137,-6586,-7909,-1011,140,-1047
713,-6730,-6902,-4003,-486,-1633,-1782
714,3474,5431,866,1148,-1168,-1367
715,2480,-1495,-5210,-1677,-747,727
716,3610,-1820,-6366,205,363,1642
717,-1871,-6289,-1570,1776,1698,1357
718,3956,6119,5116,-860,1615,1889
719,1028,5674,-4542,-601,-503,797
720,2453,-7264,828,1137,-188,-1346
721,4597,-7180,5079,-666,-1196,-530
722,159,-4401,2554,113,1287,-1297
723,-4486,-2533,3117,1232,35,-859
724,-6234,-7832,-3627,602,-885,-153
725,7855,875,-5326,-39,505,-1646
726,780,-4134,-2608,1221,1908,-427
727,4198,3278,7249,-1771,-2,-585
728,-178,-7622,-1365,1801,740,648
729,-993,-1795,-2294,-1310,512,760
730,6585,-5275,2543,-1097,-1566,1300
731,5129,2017,3386,1349,-968,-1415
732,-255,-782,-7921,-1391,1117,-1290
733,-3559,-671,-3788,-1315,1455,-557
734,5518,581,-7039,1522,-443,-1068
735,-2240,-7376,7029,-1022,-976,1547
736,7632,-3263,5623,1981,1497,1008
737,1518,-698,549,-93,-562,1644
738,5608,6462,2808,-1841,850,-1597
739,-6928,6317,-2363,-648,-60,870
740,8,-876,-1275,1029,1181,1393
741,5494,-854,1522,-1453,1575,-280
742,-6322,5954,4622,-1307,604,754
743,6569,6936,7346,-1097,694,-1570
744,5645,3229,6533,-1969,1454,-1868
745,5529,-5910,2397,-491,1945,42
746,-3619,3731,7585,-423,21,-175
747,1349,369,-7742,-1107,-1700,-1038
748,-7937,-7334,-3276,836,-1163,552
749,-646,-1537,-1557,1599,1594,1249
750,3723,-3103,-2174,-721,-825,-1378
751,-1587,7715,2062,-17,1504,1775
752,-2043,3132,6025,1894,-1116,1865
753,-5618,796,4527,938,-14,741
754,6346,3385,-6401,882,572,-542
755,-81,7227,6814,739,-1047,-1048
756,-465,2590,-3649,-1906,-923,-21
757,3683,1806,1531,-844,255,-1265
758,6672,6857,-5786,1811,-352,-2
759,-1347,3795,-7047,1183,267,1843
760,6113,-2580,-1640,-381,-140,671
761,4991,6583,-6910,-1224,1078,-1077
762,4970,-4405,6927,1614,24,-1339
763,-5494,2582,6815,-715,-163,-1136
764,849,3239,7959,-1091,597,-1896
765,-2880,-890,646,1716,-415,-938
766,-6380,-3381,24,-1863,-1435,1766
767,-544,-2685,-2911,-464,-1341,-994
768,6982,-5144,7325,-1886,1971,1228
769,-6177,-5025,-2939,444,-257,-1693
770,7784,-983,-3822,890,-1749,910
771,-6524,4075,944,-478,-572,-1785
772,-6333,3330,7699,1494,-429,1220
773,-7311,-1630,-2184,1344,1185,-1730
774,3343,-1616,7659,-911,-5,1135
775,-5778,-7647,-2348,-1467,-1520,291
776,-3051,-4366,-128,219,-1826,-312
777,-782,-7244,-6269,470,751,1061
778,-990,2423,-2433,942,-1342,-166
779,-1010,-7846,-1731,-835,-1059,1510
780,6949,-5439,1329,-1798,-88,-212
781,2027,-6417,-3523,342,1009,1521
782,7504,6827,-7984,-510,-13,-1446
783,-7092,-3893,-1391,1672,-1013,98
784,2610,4275,3856,145,-1238,1223
785,4872,-7302,2215,735,-1847,-53
786,-1068,-2384,-2393,-768,899,1414
787,-3849,7010,7060,1467,1604,-1480
788,-1415,-5229,7527,-1840,-1438,423
789,7348,-243,6962,1920,1522,-523
790,2303,-1821,-7894,527,-1621,-1233
791,-2901,2951,362,906,956,-56
792,7461,7266,1762,-1202,1866,414
793,3,-2875,7896,-78,-327,1228
794,-2734,-639,-2273,-715,-1319,-384
795,7030,4267,-6375,-1414,-1954,-1841
796,1525,-7228,-2139,410,-1890,-743
797,3015,-6188,5421,290,-24,-715
798,7625,-3715,4427,1806,1453,-854
799,5021,3587,5094,1402,-105,-1516
800,-5037,-7707,3110,-1322,-1426,1243
801,6970,1712,-4668,-1643,-1830,-1852
802,2424,716,4971,-1359,-854,1107
803,5933,6568,-5673,-1936,548,-1307
804,-2536,-486,7640,1197,1393,278
805,1970,-2428,3159,-669,-224,31
806,-3571,7083,-7119,-1798,330,637
807,4447,-1286,308,-656,1994,-79
808,-1426,168,-2072,-1768,-464,963
809,-7731,-4286,1670,-1883,1182,-279
810,6791,-4879,4781,-45,299,-930
811,-6038,5444,2200,-1385,-1140,-1185
812,-4579,-5051,7577,-1790,-1193,667
813,-6696,-6950,2070,-1800,-312,1727
814,-4545,1035,-4914,-1212,254,1363
815,-5905,1480,-3705,-1457,-1387,-1101
816,4772,1035,5328,1851,375,-1469
817,5109,3575,7599,-589,1430,-994
818,40,6210,-3740,282,-1696,-808
819,-7036,-6077,1753,-1555,395,-89
820,5508,5045,2319,943,1334,918
821,-892,1343,-2940,-1140,-569,738
822,-1572,2929,4658,-1544,-405,-1016
823,-1372,1480,-3243,-1237,-578,1076
824,-2290,6547,5099,-248,989,986
825,986,7625,-7962,-235,-1597,196
826,-829,7014,-2838,52,1209,-1486
827,95,4981,6545,-397,606,468
828,30,7438,-1884,687,-279,1615
829,5497,-4517,-3362,-1460,-1893,-814
830,-6553,805,6211,706,-1117,109
831,1907,-4497,-675,-94,-293,-947
832,-3510,-4759,-1854,1826,-171,1891
833,-5826,-2889,-6382,1922,1608,565
834,4652,2529,2063,581,1861,-330
835,6001,-3057,-255,1971,1773,-991
836,-838,7470,4492,-1056,633,1893
837,-6874,3249,5807,-278,-801,-543
838,879,-2552,-4131,409,86,1002
839,-3737,-4409,-6318,1879,-979,-631
840,-5250,1970,6743,-243,-877,-1773
841,-10,-7497,97,-844,271,-239
842,-5842,7931,4420,-1527,1721,1319
843,-6763,3246,1229,1344,896,1785
844,-2395,-6519,-7327,-227,619,1634
845,6891,5230,-1423,-1499,1975,-1021
846,2314,7322,-943,1686,902,-1268
847,952,-2930,1083,-1699,-1611,1382
848,1710,-591,-453,1452,-1191,549
849,-7477,5489,1576,-1240,-1471,-1651
850,-5679,-4527,-1970,298,1020,578
851,-1465,1820,-7465,560,-1991,932
852,-1518,-5112,7006,-1677,-206,-1926
853,-5085,-98,-6176,1054,-568,-839
854,474,6881,-1280,1184,453,-72
855,-2315,6142,4374,-1470,1462,-1217
856,1649,1032,3613,1738,1583,534
857,6458,7144,6248,-1286,292,873
858,4093,6901,1848,1560,812,1023
859,-6496,-7034,-4167,-785,-1065,-1372
860,-4839,-7905,7923,-1369,454,-1801
861,-318,420,-6139,585,-888,1633
862,-689,-2878,-7746,-1543,-1215,401
863,7431,-4672,970,-1388,-586,-796
864,473,-5637,-7222,44,-1864,120
865,-6814,-218,-923,37,-404,-1994
866,298,3431,-2049,941,55,-1786
867,-178,-5997,4487,-122,-456,1157
868,-2477,-7455,6161,538,-930,-1854
869,6258,-1184,4924,1483,961,-1040
870,2917,-4054,-1062,-1162,-250,-1811
871,5808,-7323,-5662,-1761,1972,-1846
872,5044,-4037,3262,1600,-724,1154
873,6998,-3423,-6885,-387,956,566
874,-4487,3742,-7835,-1443,-350,-882
875,-6075,-3282,-7295,391,-678,809
876,-2136,2349,-4763,-1869,1576,1696
877,6053,-7979,-4092,-1658,-853,-363
878,-5937,-3748,5979,877,-1287,977
879,1492,-7555,1438,579,-177,-1484
880,4105,227,4830,678,1920,-120
881,-7628,825,-813,564,1662,-1519
882,2868,-5193,-3513,-1821,403,-224
883,-1481,6810,5249,1895,1020,1372
884,7055,3621,-5664,-40,-1491,-1672
885,6539,2851,-2449,-465,-325,546
886,7339,1393,-4240,-238,1147,253
887,-6484,-3281,6888,901,917,1531
888,6083,-3976,1689,1170,-127,-471
889,5411,364,-6560,1019,1838,1739
890,319,-3998,2308,250,1863,-1465
891,-2821,-5924,6999,1494,-1589,-1763
892,6473,4320,3518,519,-1660,40
893,-1476,-3881,-2427,1187,1708,677
894,-5665,6771,-7916,1744,-61,1702
895,5988,3548,7987,805,351,-1178
896,5901,4422,2179,-890,-577,789
897,5050,-5665,-5752,-876,-1106,-837
898,-3670,-2266,3279,-1578,520,-346
899,6001,5922,2751,-520,-1944,-1097
900,-1105,-233,-5645,543,-399,-864
901,-1464,-3964,-4426,1056,-1957,-1227
902,-2283,-5134,4798,931,-993,-588
903,4964,-1444,4753,-1412,-1468,1036
904,-1900,6409,-5932,-1435,-297,-420
905,3228,7012,-6174,-405,1409,1943
906,1849,-3610,-3600,1816,-1320,-1540
907,2055,866,-6712,-1310,-517,-791
908,4910,7596,3720,-1789,-1451,324
909,-4552,5327,1885,10,-1903,-1913
910,-7968,3624,6428,-681,974,-334
911,4159,-3634,4541,-1770,503,1589
912,2919,-330,1390,-559,218,1045
913,410,-1396,2143,-954,-1711,-323
914,3876,869,-2982,1455,1043,988
915,3043,2030,-6154,1472,-461,1460
916,2609,2134,-2487,-283,-1037,-732
917,-60,-6807,-1439,-314,1231,1204
918,-5325,1052,-4189,816,-974,-1648
919,3714,4471,-860,-746,1196,-171
920,-7071,-2886,5731,142,-668,-1872
921,-2784,-4891,5378,517,-598,595
922,-34,-238,-5298,778,10,1921
923,-3904,-1476,-7416,1064,-747,-606
924,4300,-4278,2053,404,292,1989
925,-7920,-3358,-1145,-1689,-1796,-116
926,-2326,6199,3133,745,69,-1760
927,-1130,4218,2950,792,682,-1464
928,-6919,4736,3970,297,958,1769
929,96,6032,-524,245,1335,466
930,3627,-3064,7708,-1324,906,-461
931,-2464,-3825,-5634,-1061,-853,-1284
932,-5486,900,-7371,320,-728,-794
933,-7850,-2029,-6688,1405,-1318,-1665
934,-596,7180,-404,-1903,-1339,-1647
935,2354,1561,634,1667,-1565,1407
936,7026,5142,-6540,-1333,-1552,-587
937,7405,5151,3630,-556,-1191,-1186
938,4905,2929,-5979,922,1762,1450
939,6667,-2512,6227,-649,-243,-1499
940,5833,7591,-1922,-1185,1126,-16
941,-1441,-6795,-1610,1037,-1062,-932
942,2346,-2310,1886,1964,9,-1499
943,-157,947,5153,-404,1315,-1285
944,-5653,1024,-7676,295,-74,-1539
945,7936,-2531,428,-1538,1759,1592
946,3789,-5449,-3706,-102,-1605,-492
947,4752,-658,-3039,-680,1077,1398
948,1354,1240,-5519,-1616,-238,-1963
949,-5552,5396,2223,396,1707,1167
950,3441,3222,441,-930,724,-1541
951,-2416,7964,6392,-180,-1422,-524
952,4549,7628,5587,-1667,1624,832
953,7569,-1671,-1010,1047,1088,795
954,-2159,1015,3834,1288,1546,-1663
955,1236,1855,-7334,-783,649,-184
956,3807,-6560,-1528,716,-183,-377
957,-3931,3335,-592,-1490,-1409,1320
958,-2940,2383,-3648,76,-410,1080
959,-2558,6211,2091,-1743,1668,-600
960,-3826,6040,-275,773,-524,-921
961,3900,-5185,1122,-788,1740,403
962,-1127,-4645,-5039,-1980,1302,-1504
963,-1012,-7776,2874,-444,-1611,-509
964,-7645,-2332,6513,1923,-843,1668
965,-766,-2336,-2282,359,-92,-302
966,-3675,3623,7503,-1955,-1180,-1815
967,681,412,447,1432,1362,1424
968,-1788,-6264,3035,-1703,1608,-899
969,2861,367,4999,1914,-1694,-1401
970,6055,5848,-1779,-366,460,145
971,4323,-4157,2217,-1535,-1221,163
972,5086,2247,4826,-885,1035,-239
973,1221,6483,-6603,1538,95,784
974,4463,-1833,-7371,-456,-315,927
975,22,-7624,-79,723,-985,-70
976,-2928,7798,-7258,-1442,1038,-1226
977,2246,-6300,1040,-1735,1140,-1172
978,2547,-5897,-6676,-704,543,771
979,2664,-2880,4537,-1701,-540,917
980,1846,-1443,-1840,-371,1648,-1632
981,-5533,4012,1819,-1384,-958,0
982,-1256,7258,2814,-1366,-425,-522
983,-2440,6764,3554,-734,-1764,1829
984,7308,6419,-814,-1285,1425,-1258
985,5717,-1332,-6066,-625,-1104,539
986,2459,621,6966,451,-520,768
987,-7205,-7092,5687,831,1569,-1215
988,-985,-6535,-34,778,1650,1188
989,-5950,-5515,-323,-371,1799,-1609
990,5757,4998,-6018,-1012,1107,-1957
991,7790,-4686,1942,-896,761,-893
992,-2613,4190,-1442,147,-61,-1529
993,2480,-1036,873,1189,1277,-1445
994,-811,-7433,-5163,928,-1895,1728
995,516,2153,-1931,1235,1894,-998
996,7028,-3951,-7843,80,-817,615
997,3776,6511,-6436,874,-922,31
998,-4730,-5266,-5183,-1381,938,-996
999,1136,3488,-650,-155,1644,-492
1000,7185,-679,-7714,-1610,1974,317
1001,5313,-6666,-3940,1384,962,-1658
1002,-3442,2984,-975,-1438,-1786,954
1003,4428,2774,-6570,1947,-1658,964
1004,975,4963,5095,-1485,-1026,687
1005,1849,-7619,-111,186,-1411,-1734
1006,4478,6476,6250,710,-1377,-1996
1007,6849,779,3361,520,1530,-1817
1008,-6177,1213,-402,835,-1503,1990
1009,-352,7717,-7914,-310,-1897,494
1010,-1413,4574,-2358,-66,-204,-1662
1011,96,-4873,7994,-506,-1305,-1315
1012,6179,-1955,6551,836,-243,1082
1013,-2723,-5576,7912,-1856,-1197,-1254
1014,1939,1656,-5481,-1504,-1162,-1598
1015,-7243,3834,-2015,-1219,729,-1212
1016,-2637,-5768,-7878,1133,1126,-1659
1017,1076,-6012,-3072,-178,-233,-144
1018,2877,-7156,147,-189,-1759,-1176
1019,1681,5837,7666,-1428,976,773
1020,-5468,5255,-560,-1997,1879,-1705
1021,-2073,-7637,5244,-162,-1068,-210
1022,-2280,1600,2841,1105,-651,-776
1023,7187,7777,-6194,-105,1344,-169
1024,-128,4828,-7586,-129,-1847,1034
1025,-4104,4763,7107,-1702,-164,-541
1026,6199,-1708,-362,1014,1467,778
1027,-6276,3119,-5742,-1284,862,1532
1028,-953,6886,40,1757,1773,714
1029,562,-4328,-6547,-533,-381,299
1030,6972,3867,5828,-254,1120,-1653
1031,6283,6374,-706,1570,-1886,1195
1032,-6185,-3821,6204,1056,-1869,-1442
1033,6915,-6267,-3938,1047,-1965,512
1034,-921,845,1870,-1905,-1982,-1340
1035,-4873,6160,-2231,-1822,1431,-829
1036,4036,-4564,-6066,-1722,-920,-1415
1037,-5832,-3908,-4109,230,-1335,896
1038,-2061,-787,1839,1837,1197,1774
1039,6451,7228,-1390,1383,234,999
1040,-6066,3084,-440,871,-940,1480
1041,-773,-924,1288,-1751,-319,-539
1042,7077,-3703,-3706,333,-1215,-187
1043,-6253,257,3654,1183,-509,23
1044,-3889,-3161,-3404,1376,1140,-868
1045,-6494,2082,128,-905,-778,898
1046,6227,5715,2738,932,136,1114
1047,-7564,1802,5481,-590,-67,-1261
1048,1682,72,6662,-340,-1411,-1249
1049,-5806,7834,-7235,656,506,1358
1050,-1232,-2542,916,-152,-1912,987
1051,3140,1965,-2861,1703,-1124,-1799
1052,1530,-7934,2344,-620,-1937,813
1053,-6579,-5895,1663,108,-1981,-366
1054,-723,-3723,-4533,-203,119,-154
1055,3813,4753,625,-650,190,-1956
1056,-6774,-1661,-1675,-595,-759,-990
1057,7852,3867,1778,-677,-1176,805
1058,84,7577,-460,1365,-1324,-1850
1059,-2691,5152,-1568,-1496,-172,-545
1060,7197,-7278,6524,-1598,1514,1367
1061,6935,1804,1245,-663,-918,-995
1062,5761,1285,2830,1093,281,-235
1063,-4026,-7021,-3427,1781,-1946,554
1064,116,4025,-5072,-1441,1944,1533
1065,-5717,-3668,-833,-1934,-1478,-1447
1066,4967,-1498,-3156,327,-1522,1596
1067,1461,-3189,-5124,-412,-235,682
1068,122,-6443,-4097,1323,-1346,-1981
1069,4129,2446,6618,970,484,-1101
1070,2554,7510,-5992,1690,1076,-1998
1071,6298,2840,-4788,-1650,1619,-747
1072,3202,-232,-1103,1030,795,-435
1073,-5410,-1016,1723,-1849,-6,338
1074,-3552,6928,2656,-1111,1296,1732
1075,3642,-4827,1524,-209,-1991,1599
1076,7499,6026,6045,-1250,-1680,951
1077,-506,417,7931,271,1441,512
1078,-2061,576,3300,-789,-1761,-1239
1079,-6223,-4488,2116,-1123,-1267,-1510
1080,-5274,6938,-414,-1420,-701,-410
1081,5578,5551,-828,1770,1348,-800
1082,4216,714,535,-1937,-903,906
1083,-4221,3474,-6529,1653,64,-1693
1084,1803,-5724,-334,1556,-291,-642
1085,-1854,4033,-7426,-1818,-383,233
1086,-5601,5137,2880,1529,1575,1693
1087,5091,7683,-7896,1582,-647,-1810
1088,4834,-628,-1373,-1655,778,767
1089,-7533,-7940,-3799,-113,-1000,-1223
1090,-7200,-2582,-6880,-1672,556,-1031
1091,4826,6405,819,1942,1817,1394
1092,6754,1872,-1407,1347,-546,1764
1093,-209,-7108,1749,-1061,-1312,-1241
1094,-144,-4862,-4442,393,1381,-179
1095,-2678,4310,-7763,1595,-462,512
1096,1892,475,-2240,-465,-143,-1860
1097,-4871,-7352,435,223,1528,-497
1098,-1009,1150,602,967,-670,460
1099,955,4223,-5525,-250,1698,1054
1100,7803,-1932,-6366,-439,-1248,-1995
1101,-4589,5304,6,-136,-348,660
1102,7930,-6643,3837,1482,-1087,-863
1103,-7659,1575,3389,-1203,-1182,1927
1104,-2413,-830,2569,1051,-1816,445
1105,4482,5749,-453,-1007,-1153,1964
1106,-4245,-2755,-4990,115,523,1551
1107,-4606,2898,-3812,496,-1259,-1326
1108,-6880,-5292,-5282,-672,-157,1702
1109,957,-6042,7649,723,1752,-24
1110,762,7566,4477,336,1613,1024
1111,-2103,-3464,2921,-345,428,-119
1112,-7920,-5842,-6946,1321,-1933,1648
1113,-515,-4389,7452,-1895,1968,192
1114,-3414,-6077,1454,1084,265,1566
1115,1791,-5844,4988,1659,-1804,-1270
1116,-3896,-10,7189,-837,-846,518
1117,1982,510,5033,1502,1879,437
1118,1659,2507,3890,622,1861,194
1119,-6048,2193,3664,-68,1858,1504
1120,1080,652,-875,663,1615,-353
1121,6537,-5462,4263,-700,845,-207
1122,2148,4914,1596,885,-1041,1104
1123,-5529,1495,3402,1666,-337,-77
1124,6512,-1914,-4708,-1379,-1751,-1676
1125,-6858,245,7542,-164,-1201,-1257
1126,6711,4800,-3037,-1405,1815,699
1127,394,-251,-2092,50,-1034,-507
1128,-4276,5847,6199,1475,90,1941
1129,-632,5550,6336,-1598,1451,-672
1130,-269,5125,-81,316,1619,-807
1131,4580,5724,-2713,-1137,-626,245
1132,3323,7384,752,163,-1718,-1684
1133,-2895,-6066,6595,134,-684,-1366
1134,-1202,-379,1105,1224,-279,1949
1135,-437,2906,-5619,1915,-230,391
1136,5877,6303,-819,1885,20,-27
1137,3780,2868,-2832,-976,1717,-1342
1138,-4098,-943,-3655,782,127,-1710
1139,-635,-4833,7608,1198,-144,1150
1140,-6400,1625,4278,-1066,659,1306
1141,-4814,2983,1417,-1421,201,980
1142,-3153,7788,4390,781,1536,1263
1143,-5183,6743,-3029,1451,-1129,1264
1144,1038,-609,-7956,1332,330,1035
1145,5951,-1,-1821,947,-24,-396
1146,-1368,1350,-7059,-171,-612,1082
1147,-2091,7332,2392,-1319,1437,-1834
1148,4191,-4673,7001,1250,-356,1597
1149,718,-5749,5228,818,-299,-67
1150,1991,-5369,7027,-296,-177,593
1151,-7801,-1493,-2844,-767,-775,9
1152,-5162,7702,7321,-1018,-1168,1562
1153,-2901,4253,-6661,1760,-1452,-634
1154,-2573,-4192,1375,-747,-145,-1275
1155,6791,5416,1789,-1066,-1192,-377
1156,6804,5637,7602,411,1788,814
1157,6436,5253,649,974,254,-26
1158,6248,1720,-4642,-663,1927,-790
1159,-956,3523,6962,1782,-310,-1423
1160,-3907,-4759,-458,1830,1309,-126
1161,5159,-2623,804,1651,-1081,-1239
1162,-6064,1600,5933,1532,-1267,228
1163,-7166,7159,264,-1464,-665,-1381
1164,-3987,-2407,3259,103,-1200,-1268
1165,-283,-7831,-6179,306,1288,253
1166,-3115,-319,-1276,282,1126,-1987
1167,-2077,1973,-6764,-1557,1995,-263
1168,-2071,-1649,-7338,-323,-1178,-397
1169,1161,-7472,-4375,214,-53,-227
1170,6306,3128,6745,-436,-1591,1819
1171,1072,701,-3716,1294,-380,1612
1172,1537,5988,-163,840,-50,-244
1173,4546,429,3372,150,543,1519
1174,-561,483,-4745,-157,-1193,429
1175,7385,-3570,6306,1528,-659,742
1176,-3000,-7982,2855,-314,293,591
1177,-7351,-2695,-2362,-1185,1343,224
1178,-7250,5743,6487,429,1913,1995
1179,-6735,2812,-7237,-1485,-993,1229
1180,-7017,5043,-3618,-1688,-261,1286
1181,-989,3280,4544,-1537,1866,-1926
1182,-7256,-5506,3619,-1415,917,-410
1183,-2307,1907,2939,1415,238,1387
1184,1385,-4527,4697,-246,-1651,1788
1185,1195,-7625,5102,-845,-1734,1227
1186,3750,5718,1742,1216,359,30
1187,7969,6845,6387,321,-1487,-1856
1188,852,1083,1011,1667,-311,-1471
1189,-4773,-6398,-5379,-507,68,1645
1190,3949,4511,-7610,-1334,-1158,1364
1191,-6347,-4470,-1291,-1582,1769,-22
1192,-7860,6779,-2562,-814,-1801,474
1193,7354,-2104,831,-562,-129,-166
1194,5368,-499,-6916,-1290,-1870,1570
1195,243,-4323,1979,49,-631,-784
1196,905,-1808,-167,421,834,-1555
1197,-5774,-6048,2698,751,-1450,376
1198,3024,4886,1308,-5,-425,-867
1199,-2509,5383,-1568,276,1925,-1513
1200,-3630,3770,6887,1482,-1913,-1528
1201,1103,1300,434,1330,328,-486
1202,-5838,-2814,-7961,144,-1508,-1471
1203,-6690,2372,-6569,-598,-1473,1447
1204,2843,-1365,6604,511,958,1154
1205,2870,-6069,-731,-231,-1231,912
1206,2559,26,-7838,-724,-92,-206
1207,-3952,-6401,7793,894,179,-1494
1208,5578,6230,7366,-478,97,1041
1209,-1604,817,7052,1970,-789,1563
1210,-1548,7649,-6416,1035,-1350,1752
1211,-5785,1371,-940,825,-1137,1587
1212,5218,5548,-6911,1800,948,-997
1213,-220,4528,-5442,1013,-1130,725
1214,-5567,-7778,3593,1586,-235,-1531
1215,3708,3326,7412,-931,54,671
1216,-146,-419,1830,-429,1579,754
1217,-2273,2453,-5733,-1020,1704,-330
1218,-1297,-6990,-6828,1994,-215,-187
1219,-5613,-5085,-6048,1412,1315,-1571
1220,4532,648,-1386,293,408,486
1221,2433,7203,3326,284,502,1079
1222,6708,3953,-5306,-1667,-868,1914
1223,-2434,-4633,-1991,-133,-1658,-170
1224,-4995,2591,3752,252,389,-411
1225,-4254,6015,3652,-1476,749,-641
1226,3745,6910,7882,579,-940,-9
1227,-6324,-4547,-833,-1255,308,671
1228,5881,1266,5033,-1758,-1003,1593
1229,-5415,-5673,6289,582,-1927,799
1230,6695,1509,-6861,-1113,-1774,1220
1231,-6451,3829,5322,-1825,-377,-976
1232,-2960,7798,-2437,-1215,561,1958
1233,5825,-6676,-3643,937,344,-1299
1234,-2836,-3351,-7852,-1164,1569,-1155
1235,-5276,6427,3613,-1503,1824,890
1236,3923,3450,-7214,379,1969,-1819
1237,-3276,-6435,1643,-1646,-556,1001
1238,-4782,433,-6776,-31,-1008,469
1239,-5865,6774,1101,-561,-669,1057
1240,-4882,7654,770,1192,1177,-1603
1241,961,6651,3836,-196,1573,610
1242,-1963,7981,1405,-96,-1512,-434
1243,-3991,4112,1801,-1612,332,-74
1244,-1560,3290,5817,-1869,621,109
1245,-2919,3648,7827,1957,-570,-1070
1246,7438,476,-5771,1348,-876,80
1247,2714,-1711,4089,283,535,-1314
1248,4518,-4459,7914,589,1579,1656
1249,1488,-1833,1299,1553,-14,392
1250,-4714,292,1515,454,-807,1611
1251,6707,4106,232,-212,1527,-65
1252,2374,-5071,3292,370,1576,1396
1253,6029,3406,-4575,703,311,1321
1254,-2855,1424,-4103,1194,-1932,1862
1255,-579,5068,-5496,936,-1698,1183
1256,-627,3265,-3577,1389,-799,-945
1257,-5617,-3238,-669,-453,-10,311
1258,-6505,7700,-6078,-1626,1173,1789
1259,5684,3102,6994,-477,-1193,-1554
1260,-1179,3731,-1397,-795,-74,-1711
1261,-7628,2700,411,704,627,334
1262,-2342,6714,-7663,-1631,1284,679
1263,5842,-7831,-5471,-46,-61,-711
1264,1302,-3219,5660,1991,-414,654
1265,-3943,2573,1231,809,953,1952
1266,-6514,-6530,-7019,1561,32,485
1267,7951,773,-4907,1644,1437,1576
1268,453,6413,-7417,-1752,858,-1941
1269,-7204,-4768,7560,1673,1970,1966
1270,1831,751,2267,-638,-1273,-817
1271,2542,2678,7175,1074,1332,283
1272,5078,-1802,-7036,1585,1586,285
1273,6139,-6649,-6988,-1076,-319,141
1274,3139,-3818,-1166,-588,-84,1804
1275,6502,1422,-6055,503,-258,1389
1276,2071,-3403,78,903,40,1201
1277,2775,463,7686,1697,1600,1412
1278,-6443,2768,-7797,693,-505,-898
1279,7647,-2411,-4765,909,-1506,962
1280,3816,-68,-5150,-1597,1557,-1383
1281,1589,1385,-1317,1078,1818,597
1282,-3607,-6256,-2973,-1799,-1378,-609
1283,4479,5210,-2759,232,-966,-844
1284,2233,-1302,1843,1395,925,973
1285,-3049,-5880,-4533,-1382,1429,545
1286,-7211,-5459,-679,-868,-165,-170
1287,3597,-7050,-634,-1426,1301,-1204
1288,401,2224,-4987,-1616,-1358,-1755
1289,564,-1565,4230,-274,1466,1001
1290,-7687,-1063,625,-24,-1388,-389
1291,-1402,-7209,-763,-483,-1714,-1734
1292,-4013,-1896,-6718,1848,1726,548
1293,-5347,-2216,-6591,-118,-1095,-1292
1294,464,-3135,7290,-1457,509,-1108
1295,-3091,-4908,4817,538,1348,-820
1296,4626,6677,2123,243,-1391,-1096
1297,-7165,6239,-5026,280,172,-27
1298,3332,-6643,4608,-391,1870,-549
1299,634,2980,-7619,874,550,-1782
1300,-6186,-2544,6423,-403,-1259,-288
1301,-3274,-7972,4754,-572,-75,-161
1302,7602,-4656,-3065,1430,1873,-372
1303,-2080,-3812,-1809,1120,1911,-227
1304,1303,5414,-863,129,-1236,-1442
1305,-5917,1003,-6700,1211,173,-996
1306,2996,-426,-7589,1852,-275,-1684
1307,7499,6099,-4412,-984,428,1156
1308,355,-5420,-1087,239,-1673,-965
1309,859,-2149,6172,626,-1814,261
1310,397,1216,-1451,-1571,125,-1108
1311,5805,-2289,-7343,901,-922,-574
1312,1321,-6306,-6639,1002,230,813
1313,-1565,4530,766,-447,367,1127
1314,-214,3215,5122,555,1732,-1255
1315,201,3908,-1574,85,1920,1896
1316,2639,4591,5425,-554,1986,238
1317,-1417,741,3080,-689,1214,1516
1318,3388,-1465,7272,1278,351,60
1319,520,4699,6122,-510,287,-1675
1320,5862,-4456,-7444,-1830,-756,-1881
1321,992,4138,-2531,80,-193,1506
1322,1194,453,-712,-393,1864,-447
1323,5665,145,1050,-86,1207,1988
1324,-3544,7223,-4537,751,-1764,1315
1325,-2675,3428,-6236,-639,1742,-695
1326,-4662,-7344,3884,79,-1948,1745
1327,2995,-5959,-5740,1205,123,686
1328,-2717,6117,-7433,-41,698,1940
1329,-3147,448,6821,30,-741,93
1330,2387,-5101,-5178,-264,1210,824
1331,2259,-3490,-6507,1162,1158,1853
1332,6342,-609,-4882,-151,1879,404
1333,-483,-7954,-3627,140,-1464,-531
1334,-7104,-7359,-1086,-1227,-1737,-448
1335,7043,561,-3462,788,-370,-971
1336,113,1698,2392,-1980,-815,-547
1337,-4230,2652,-2086,-1917,-1137,-1173
1338,-6893,-7359,4084,1703,-1682,1821
1339,856,2090,1528,-1497,-365,-18
1340,-7646,4269,3134,627,-124,-1893
1341,-3414,-1135,-6877,-860,1844,-293
1342,724,951,-2817,503,-778,-290
1343,780,-4308,5590,791,1078,82
1344,-6132,2822,-7463,-320,-1422,146
1345,-5530,1662,-4470,-1536,-452,-1739
1346,5165,-3239,-6532,1469,-493,1081
1347,-279,1347,-3418,-500,-1341,509
1348,-3888,-3099,2511,1628,1465,755
1349,-3288,1297,4390,688,1174,947
1350,-3464,-5332,6312,-1766,1891,-796
1351,-7113,5928,6236,1440,1939,-28
1352,2611,7994,5266,1049,-880,-1132
1353,7998,-7297,3814,1785,1093,1275
1354,5192,5164,1507,227,-1310,623
1355,-4155,1818,6252,1628,-1116,-379
1356,7633,3467,2803,-568,381,261
1357,3025,5323,6574,-863,1238,1392
1358,-6419,-2487,-5346,1397,171,374
1359,5610,2131,-6593,1517,-347,1491
1360,-4740,2110,3891,-581,1126,-435
1361,-6480,-2716,3650,8,-519,1654
1362,-1261,5140,-7307,-1982,208,1998
1363,5709,-701,-7542,1154,105,-1832
1364,7828,4781,6857,1039,-863,1233
1365,3018,-4048,4764,-494,-1321,-654
1366,-948,-5507,-5161,757,1089,-1190
1367,-3412,-2646,-447,-1447,-707,1132
1368,-620,-2219,6892,157,1345,-581
1369,-200,1150,2565,-1810,1065,101
1370,6995,7223,6874,590,-1489,-1263
1371,2409,-1603,1346,-603,615,-1556
1372,-7997,-4492,-7692,1754,-1808,1647
1373,7454,-3327,3443,215,1662,-1373
1374,2490,-4953,447,-502,-384,1387
1375,-7323,1105,-7461,240,-228,1470
1376,1020,5726,951,116,1995,1400
1377,-7757,-4171,-4119,387,1083,1215
1378,-2621,-5648,-217,990,-350,1503
1379,-7044,5105,3753,1835,991,-1290
1380,-4525,-6181,-2109,6,-1031,-926
1381,836,178,-3415,-1491,849,522
1382,1361,-2952,-344,-1866,1155,-1915
1383,222,-7324,-3397,-1703,-557,366
1384,6063,1725,1382,-484,-637,69
1385,-1304,2977,-7723,1863,-1976,-778
1386,5905,7092,6801,-1131,523,363
1387,7460,-1550,3537,594,540,1426
1388,2565,-7899,7313,-421,-1936,6
1389,-7958,3703,-2500,-1488,352,1350
1390,-2,-1135,-6250,1563,225,1845
1391,-5656,-2948,-6011,779,-935,-1004
1392,-2591,602,4149,-1351,314,1987
1393,1249,437,3963,-1941,-523,-1799
1394,-1114,-1732,6856,348,-1053,319
1395,240,-3073,4243,-1275,919,1049
1396,-644,-6573,-7442,-475,-784,-402
1397,-1572,-539,3577,430,-1804,170
1398,5885,-1824,-1621,398,1254,-177
1399,7831,-4803,-4284,310,1364,1256
1400,1293,-4055,4815,1555,-1999,-1813
1401,5693,4974,1247,1866,-1169,29
1402,7517,-4754,4619,-1304,1243,1812
1403,5762,3662,-7219,450,-179,1710
1404,5370,4677,3077,-764,959,-1536
1405,1101,3322,-1571,760,-137,-1470
1406,6167,2681,1991,163,-1084,43
1407,-2650,6980,3626,-620,1295,925
1408,-1659,4507,1453,-1160,-740,-1753
1409,-5790,7824,1543,-1419,-1670,1633
1410,-1010,-2592,-6440,214,1548,-1730
1411,-3836,5363,-6175,1146,25,395
1412,-7030,7535,-1029,1267,464,-1028
1413,-4369,1135,5866,-696,-271,375
1414,-1718,-2093,-6675,-520,354,402
1415,-228,3706,3599,1900,547,-867
1416,-3616,642,5738,1033,1374,-1374
1417,5072,-7301,1633,1791,248,-1349
1418,2300,217,4945,1535,460,1907
1419,6954,1466,7391,-1036,626,-1287
1420,2876,-1663,19,-1869,-31,644
1421,2843,-7298,-7089,-1968,1180,-777
1422,5894,6298,4436,198,-1643,233
1423,5062,4816,-822,-779,1721,-1454
1424,1682,3631,-5782,-897,-946,-1174
1425,-663,-1560,6108,861,-1122,-1457
1426,1913,4100,2106,-1405,-1089,585
1427,5844,-4983,3190,687,351,-1615
1428,1650,-2317,-5013,761,-380,1365
1429,2489,4843,-259,-1977,-1760,-1667
1430,-7484,4376,6507,1462,-1691,476
1431,2617,-2569,4098,-1845,-414,1602
1432,5185,5978,2065,756,-700,-1022
1433,3686,2395,-3047,-532,1813,-1581
1434,-6458,1380,3473,-1118,490,-1999
1435,1636,-6026,-1752,921,758,-1901
1436,-313,6501,5443,1190,-1809,206
1437,5811,-1298,-4608,-1163,-269,-1817
1438,-929,-2452,6807,966,1194,1627
1439,3415,-489,2522,-409,1345,-1445
1440,1393,2898,-2195,29,-1033,1868
1441,5695,-3187,4989,1650,-556,-1736
1442,-6965,6050,-6545,979,513,-511
1443,1802,1310,-3371,-102,-644,-773
1444,-3931,-1679,5037,-851,-1554,-294
1445,-1140,7474,-215,-454,1171,751
1446,631,-1007,-3003,-1989,377,10
1447,6133,1449,-3425,-1247,-1378,696
1448,3342,-3273,5217,-1299,-1560,-579
1449,-1782,5209,3002,1708,-881,1196
1450,7881,7447,2815,-639,1945,-1108
1451,178,7471,-4942,-1622,126,-854
1452,93,7224,-1155,-858,82,-1858
1453,-3724,2279,-5813,69,1446,694
1454,2005,-654,14,-253,1868,-734
1455,959,3851,6161,1783,-1483,767
1456,-545,831,-3970,153,-1158,1586
1457,2020,-6038,-6712,-1139,-1884,323
1458,-1987,-4765,6387,612,1834,897
1459,4310,6922,4922,-340,-1372,110
1460,7830,7478,-6478,597,357,-747
1461,-3913,5905,6627,-1890,-1656,-1095
1462,-7013,5246,-3476,1360,-531,137
1463,-4395,4622,-6965,-1688,-1592,-837
1464,-7111,-4453,-3990,-1567,-57,1209
1465,-1711,-3932,-4309,1842,1416,990
1466,-6199,6311,2896,-1820,-1855,388
1467,2776,2549,-5075,-1793,-448,-222
1468,-1085,4981,1482,-1756,-1483,-1716
1469,-1530,-4748,-7055,390,1234,419
1470,3473,1503,-304,-320,53,-111
1471,-4663,6269,5971,-521,-1106,-695
1472,3722,-648,-3845,816,1481,-890
1473,-1578,-2927,-579,-1510,1405,1775
1474,2570,1646,611,713,825,-1476
1475,-4149,4296,5234,-91,1949,-1574
1476,-4155,2096,4703,1203,-287,929
1477,-4158,-2522,-7916,1071,-667,798
1478,-5167,1504,-7614,-266,1229,1252
1479,-7652,-3077,-1727,-1834,-1837,1328
1480,-977,-2673,-748,-501,1204,-83
1481,-4099,4844,2335,1574,-1562,-1497
1482,-5329,-5445,-7837,-122,-975,1061
1483,6989,7393,-2874,-945,1652,947
1484,4573,776,4994,521,1710,1066
1485,-5641,3279,-4424,1592,-1745,-1383
1486,-3607,5857,-1484,1032,-566,1540
1487,7060,-1177,4768,-1603,-1745,-26
1488,2448,2828,-1639,-928,1344,-130
1489,-3877,4972,5397,178,1769,1682
1490,-2094,6083,5356,-1126,-1523,1898
1491,-6834,-3478,5425,-1901,-810,-1735
1492,3200,855,1764,1277,872,-43
1493,-851,-488,-7616,1683,806,-1584
1494,4497,-2215,-92,991,-123,-674
1495,-4815,-7918,2645,-378,-346,-208
1496,3072,1347,6137,-656,903,380
1497,-44,180,-3278,-1904,769,1474
1498,-1693,-7908,3383,-1363,-550,-1498
1499,6421,-1631,-7551,1736,389,-1091
1500,-868,-4269,2434,-1299,1804,-1057
1501,5412,5732,-2756,496,-531,-749
1502,-33,7070,-4134,1148,-1519,-1136
1503,2630,6648,-2054,994,946,410
1504,-4555,3644,-3975,228,-466,-78
1505,-1457,4749,1987,-1147,-216,-668
1506,-7419,5329,-3416,1402,1322,1605
1507,3937,1800,1426,1865,1814,-981
1508,-5809,-2301,2191,1151,933,305
1509,-6428,-4230,-6750,1606,994,-774
1510,6188,7640,-3334,1373,1776,-799
1511,-1868,-2616,1065,-1729,-1015,1110
1512,941,-5869,6341,-527,941,-1551
1513,7383,1960,-571,1611,1838,-1118
1514,-3431,-6033,-1716,-727,-1064,-389
1515,-4042,1046,-2304,-1394,-68,309
1516,-4483,5770,-7465,-404,1537,936
1517,-4793,-1460,-7647,-1071,1573,873
1518,5978,4440,-6442,-252,304,-402
1519,7970,7618,-4610,622,-799,647
1520,-4112,-7024,5365,1291,-68,905
1521,5727,-3012,1691,1534,1920,-1507
1522,-3444,5710,5829,-172,-181,-1299
1523,-2402,-786,5774,-1441,782,1979
1524,-1095,-3633,-5864,32,-581,-1394
1525,4241,6772,2204,-1934,1523,1097
1526,-7497,-6859,4293,-842,-1906,1487
1527,-24,476,4911,1595,624,1836
1528,1145,-1632,6418,1926,-1199,1076
1529,2750,-430,-620,986,-511,-1237
1530,1097,5924,-407,-1002,367,-570
1531,-5477,-6520,1927,614,1973,-1766
1532,152,5982,-9,-1268,-1382,-711
1533,3778,-7266,-296,-412,1047,-1600
1534,5450,-4480,1964,1842,485,-1529
1535,-7502,-5637,2093,-1953,1782,-1136
1536,-2427,3491,-5781,-1552,1712,759
1537,4425,4255,-1094,282,1719,129
1538,-4386,-1102,-6588,-1350,-469,-571
1539,-3115,6294,-5918,-1220,-863,-612
1540,-7293,-3660,-3232,-406,1255,1258
1541,-1724,7694,4896,-1824,1897,-242
1542,-2879,4826,-862,-1437,-1267,1649
1543,-1496,-25,-5515,1297,-1517,-92
1544,-4941,-4290,3239,-1871,-191,-990
1545,7324,3879,6498,847,-1778,-1958
1546,-564,2055,3483,1168,-1071,-168
1547,-3484,5201,1648,-1038,-1858,598
1548,-3154,-4829,7332,-1802,-481,-116
1549,5351,6504,7255,194,-911,1191
1550,-3142,-3088,1632,-1910,-1514,1661
1551,-4616,-962,3639,1100,-32,-866
1552,2663,3239,6826,-1035,894,-620
1553,-3518,1363,1044,584,-580,-600
1554,-1791,-3071,-3770,-1002,276,-861
1555,6131,-7543,104,-898,-1177,1017
1556,3844,341,2688,-1903,-1826,321
1557,-6636,3061,6540,-1995,539,-405
1558,1391,-1245,-2875,-1517,-1816,-1516
1559,-4280,5816,-4972,-813,31,-1276
1560,-5455,-22,1063,-181,776,1425
1561,-7522,-532,5771,-1971,1088,-603
1562,6824,6009,-4454,378,774,-620
1563,-7141,6220,-4440,1034,-1179,1358
1564,-3455,866,99,1104,1843,211
1565,1801,-753,-6952,-544,195,1638
1566,7074,3459,2928,949,721,620
1567,1076,-6418,3064,115,865,1341
1568,-5690,-7861,4804,687,88,-532
1569,6765,-3245,6329,1895,-1136,-522
1570,-6799,6008,6652,-1090,-667,-396
1571,2224,-6572,1132,-569,1211,1430
1572,-1104,-4039,-5695,-187,28,1777
1573,-1805,-2911,1758,-1584,1087,10
1574,6953,-4536,3755,742,-1131,1745
1575,-7112,-772,5431,-15,-1712,135
1576,6215,-4032,-1300,1490,-1614,-1872
1577,-4187,6297,2626,-709,-395,-1562
1578,-6774,4925,5162,-121,-1013,1457
1579,-2164,-385,-7801,-919,-635,1418
1580,-7470,-7390,5797,-1878,1277,-163
1581,2484,-5915,-3118,-1851,-923,-1177
1582,-3920,-808,-5909,-441,865,-522
1583,-7159,-4770,4466,1122,-1015,-1835
1584,-7352,555,-3204,1389,-1996,-507
1585,5989,-5201,4762,544,158,1423
1586,-4455,370,4062,-1122,1061,682
1587,1664,3283,1943,825,-1000,-1406
1588,-603,4635,4949,-1825,155,1872
1589,6122,-7331,3263,-1520,1976,-330
1590,4438,1468,-4202,-713,-1756,1105
1591,-2384,3786,7575,-1939,1880,-665
1592,-7585,-6073,-2112,1424,1479,1439
1593,-5530,5208,-954,-1518,729,-1625
1594,7885,-1573,2312,-796,-1834,1843
1595,-7043,3999,1511,33,-982,199
1596,3564,2024,5738,-797,270,524
1597,3929,-1952,-7963,1718,-678,-1094
1598,-2633,159,-3645,-1676,14,508
1599,5325,2120,4599,245,-1076,-887
1600,6314,3462,-6279,-1817,720,-1283
1601,5161,3477,2384,-476,-947,-1864
1602,-7233,332,-7343,-1030,-1348,-1349
1603,6922,7196,-4073,-216,1360,-922
1604,-2927,4468,2494,-962,874,-1073
1605,-5842,-1316,4972,-1989,-1367,1834
1606,-223,660,2227,1905,-1334,302
1607,-3887,4480,3065,308,8,1645
1608,850,-1788,447,204,1375,1193
1609,-1961,-2130,7042,762,1759,-1901
1610,-3924,-160,-6509,862,-169,1236
1611,-4332,117,5743,923,310,1864
1612,1417,1515,1485,1339,-958,302
1613,-2217,6909,-6353,479,-420,648
1614,-1864,4805,-3862,1535,1160,-1838
1615,6694,2386,-3639,121,1781,41
1616,571,1058,-4792,1340,1109,746
1617,3403,955,1573,451,1632,-1407
1618,-6115,3005,2067,1048,-161,-1767
1619,-5684,3856,-5112,1086,-1618,-717
1620,-2814,3526,-6721,-1450,-1017,1025
1621,-2144,5544,-4724,732,-720,-1236
1622,4944,1811,-2424,-887,174,-732
1623,-2686,2340,5128,-334,-100,1055
1624,-5165,-4874,-6363,882,595,397
1625,-5806,3888,-5496,-989,254,-541
1626,6625,-2629,-3974,-1886,-431,844
1627,-1954,5179,-7546,431,-1053,1660
1628,-5350,3951,899,420,-1363,1473
1629,-7395,6071,2550,127,-718,-824
1630,3706,1218,-2190,-236,-296,-1431
1631,-1780,-1607,7815,-1533,1716,1630
1632,549,2846,-7644,536,1660,-772
1633,-382,6388,2711,-414,-1319,1575
1634,1956,6236,-5968,1886,-1950,-1457
1635,3103,4229,-4267,616,-1766,-1799
1636,-722,-421,7077,21,-770,993
1637,-131,-3986,-25,-523,-778,319
1638,6225,-225,5516,-1497,-983,-1588
1639,-2058,3407,7959,-657,323,1530
1640,7309,405,-7031,1082,92,709
1641,5173,6066,672,-1989,1515,357
1642,-1538,-5783,7400,-365,-404,236
1643,1576,4122,-200,-1557,1688,-550
1644,-1047,-3440,959,1212,-1164,-1686
1645,3504,-4466,6321,626,-394,-244
1646,-2073,6047,1491,735,-1735,-75
1647,14,1611,4075,-1729,1870,142
1648,-4435,-3621,-1874,-341,1284,1450
1649,302,6734,6710,-122,-530,-947
1650,-7142,-971,4190,1508,1322,-633
1651,-1602,4135,-1552,445,657,657
1652,3023,4062,5027,69,275,-1571
1653,-3308,-4650,-6489,-1176,322,-1806
1654,7288,662,7810,-1018,-1675,700
1655,-611,39,4020,-146,1424,-1423
1656,1555,-141,268,962,1869,238
1657,6757,7368,-3658,-374,1561,1732
1658,702,-960,-3067,-1887,1151,-98
1659,-2393,6609,673,-844,-1838,-591
1660,7145,5382,5598,-627,449,1808
1661,-3576,1738,6973,1263,-634,-1074
1662,3745,702,2194,-1967,1608,-100
1663,-3159,-6293,59,1654,668,549
1664,-7549,-7483,3584,297,-789,307
1665,2488,1045,-4912,-423,1159,284
1666,-7184,-2921,-690,-103,-1810,195
1667,925,5851,-7789,621,-148,-1822
1668,1132,-3198,-7439,-1768,1365,870
1669,7061,7177,4507,-1149,-1594,541
1670,7349,4226,1935,330,1979,1943
1671,1091,-5668,-1247,-420,453,1273
1672,4575,-7259,-3713,-1680,1967,152
1673,7113,-6501,6881,-133,-478,-500
1674,3576,7845,-3883,1921,1514,-1052
1675,6450,5802,-6030,1836,1955,-351
1676,-4117,4497,-4620,1103,1209,1518
1677,4365,-5604,-330,-981,-952,-1595
1678,-5829,-3516,219,337,-1745,1989
1679,4465,5947,7087,-449,133,-1332
1680,2916,-1047,-4507,-405,1982,772
1681,6293,-342,5265,662,-1911,304
1682,-3285,4291,-582,1753,868,-313
1683,-4196,-7114,-7896,-1450,1707,770
1684,-3553,-5667,-3395,-356,1768,-56
1685,7127,5261,5530,-1139,-916,1821
1686,-182,5630,181,-1952,-645,1534
1687,5225,1874,-1457,-1085,1313,264
1688,-7570,72,-6026,-1749,857,905
1689,4333,4189,297,1806,453,1574
1690,-5123,6216,-7557,1711,32,-1160
1691,-3173,-2782,3385,-826,286,1678
1692,5708,5967,1450,250,-872,1989
1693,-4208,5058,5703,1596,1926,-830
1694,2516,-1565,3153,718,-71,484
1695,-3849,3133,-2452,1364,-1556,-989
1696,4600,17,-4752,-127,1601,-1529
1697,-166,-7605,-5618,-276,-127,-1830
1698,-1564,-5551,6098,-716,-134,-1317
1699,-20,6052,4602,-1861,1852,390
1700,3267,2346,-5651,-642,1980,1322
1701,-1288,-2831,-7407,-56,-1836,-1734
1702,5357,-2071,2004,-384,1176,-1947
1703,-5109,3515,-5176,569,-47,1506
1704,3488,-1331,1645,915,819,-1443
1705,-5479,-1185,4620,-1069,-819,-1615
1706,3086,2494,5689,-778,-1217,-394
1707,-3580,-3453,-5943,-1365,-526,1937
1708,-4144,-3797,-6585,-1304,-1788,-626
1709,-1320,5526,410,-264,-524,-1708
1710,1662,-1668,-4099,47,-1485,1757
1711,-4126,4009,-7870,-232,1800,986
1712,-1168,-3074,-3907,985,-866,1111
1713,-7734,2975,2557,-932,1950,75
1714,-4563,5119,-1870,314,-1293,856
1715,-6323,4376,-6577,-64,1541,-733
1716,713,-5338,1326,1270,1133,1716
1717,-6109,6081,-927,1154,789,1349
1718,-5468,-4149,-4729,424,1430,-677
1719,1694,-7151,-2619,-431,164,841
1720,-1808,-366,479,598,-1839,1463
1721,-5526,-5683,-2728,1431,1508,-1188
1722,-1728,274,-5762,1116,-222,-939
1723,6551,4452,-4855,-843,1570,730
1724,-2611,-6261,4194,-1944,1122,-1080
1725,-4285,-4802,-1309,62,1040,1202
1726,2160,2760,-7686,-1173,-1636,-1394
1727,-2357,6044,3269,-302,-1547,-1042
1728,-5545,-5342,5490,707,574,-1700
1729,-2030,-6193,1199,-973,895,-23
1730,1408,677,-5625,389,907,1285
1731,-4127,6045,3259,1552,212,-641
1732,5009,6388,3415,1657,41,-763
1733,7250,1002,5376,540,1152,-880
1734,1476,2411,884,263,1732,-953
1735,7203,-6303,1895,-1054,-282,753
1736,2331,6534,-1028,684,400,-1699
1737,6400,-349,1026,-1059,1917,-473
1738,5724,1764,-5232,1837,-1275,-996
1739,4105,2333,-810,144,1883,-1305
1740,-7407,1069,-3784,-1263,-78,-1527
1741,3592,5485,2952,277,468,706
1742,-1388,-3276,-2059,1105,-127,453
1743,-2351,2095,2840,-587,1248,-377
1744,2106,3087,-2818,1234,873,1366
1745,5268,7538,-6273,-756,-1842,576
1746,-5142,431,3163,634,1273,1655
1747,2229,4211,4257,-1359,-1733,410
1748,6041,6389,-2563,-578,1808,-351
1749,4797,74,-1383,-660,1300,23
1750,1820,4352,-165,-1827,-1844,-1227
1751,165,-7145,3883,65,304,1440
1752,-2391,-3510,-681,697,-1028,-498
1753,5823,258,-1950,-850,-1034,744
1754,-5372,-6551,5920,1227,-1662,1475
1755,-1568,6792,777,961,1702,267
1756,4033,-3519,-1064,-621,1132,-1412
1757,-6863,-4730,-6677,1855,-991,-492
1758,5281,-7589,-7986,627,114,1234
1759,3988,-4119,4103,1981,1070,674
1760,-4354,-1001,-7570,1289,419,-11
1761,-735,6844,7396,959,1984,575
1762,-1616,-5734,-193,305,1273,902
1763,1107,-6805,-1437,-1961,-1760,1594
1764,-4865,-5844,3841,-5,1396,-204
1765,-359,6243,1967,572,-1838,829
1766,6807,-587,-7326,-1705,-1587,1008
1767,6723,-7510,-6689,182,1073,1287
1768,-6117,-7027,-7575,1329,-743,-1628
1769,-2961,5210,-7293,1950,1539,-1933
1770,-4573,-5568,-3789,-1479,-1739,-237
1771,1145,-2213,-3617,-670,1387,-573
1772,6294,5172,2368,206,372,-1355
1773,5081,4081,987,-459,-1343,858
1774,6421,-4614,-4690,367,-1867,1391
1775,-698,6780,7594,1672,1482,397
1776,2605,-1380,-4183,1868,568,-382
1777,2827,6961,7415,1036,-1526,1614
1778,-1889,-3383,-2604,-807,1,1063
1779,7978,-6749,-5394,-324,872,-1826
1780,-1272,414,-1809,-1985,-1172,-198
1781,-7991,2005,5102,-394,-796,-880
1782,376,-3079,-6270,-1996,-1230,65
1783,6236,4292,5450,850,15,1404
1784,-1883,7441,-1275,-678,1289,1818
1785,7728,-6550,-4581,-519,1906,-958
1786,-3517,4837,3773,-1671,-1102,1321
1787,1265,5355,-5069,774,656,697
1788,-7110,1589,2443,164,1433,-1240
1789,413,-1881,-964,-652,-1042,-1136
1790,5825,-7774,-3887,542,-251,1231
1791,4694,2572,7150,1760,1098,324
1792,1066,-5816,-5116,1295,947,557
1793,685,-3630,-4980,629,-982,777
1794,4189,-6416,-5672,1241,199,-54
1795,-5962,-5380,-3138,1467,1078,-561
1796,4676,-857,-1788,1546,-1951,1817
1797,489,-4785,-6727,-701,575,-1314
1798,-1217,-4867,7038,110,-872,1986
1799,6370,-3001,-2697,1573,-1911,1338
1800,2203,7544,-1878,-988,1095,712
1801,6867,-2335,6396,596,809,-1490
1802,2861,-6331,-2642,-357,1878,1808
1803,4995,3693,7912,818,-200,507
1804,6845,702,7824,-111,141,993
1805,-3184,7853,-106,1812,803,1034
1806,2213,-196,-539,973,-974,1705
1807,2193,-1460,7028,87,-836,-1442
1808,1209,715,6184,585,356,-45
1809,-845,4270,5470,5,-1032,-31
1810,7442,7974,-4059,-1072,-1704,1637
1811,3575,162,4100,-1950,1185,-1449
1812,6389,-2141,5881,1344,1064,465
1813,-3432,-7340,-2186,1730,325,978
1814,-4748,-980,-4884,1341,742,1102
1815,2104,-1312,-977,847,1964,-545
1816,-986,5757,3630,-852,1552,156
1817,-5923,1048,7352,1280,-538,1069
1818,903,-5310,6777,-754,341,-1606
1819,6097,37,2975,1916,-751,518
1820,-4294,-7573,-6967,-1522,-1040,-380
1821,4473,-5570,-1612,-386,552,1727
1822,-5255,-5143,-1434,-1502,-923,-1256
1823,-1613,-3406,-4067,840,-1852,-277
1824,-6235,3709,-1355,-875,675,-648
1825,-1388,-5828,-98,1293,1114,-1133
1826,5124,-5774,2145,1442,249,257
1827,7077,1623,-657,-547,-89,-1352
1828,-5720,-7532,-2564,-1933,-1934,1976
1829,-5131,-3451,-3644,-157,1710,-1291
1830,-4417,4021,-1307,-1814,-545,-853
1831,-3318,3471,-79,-442,-1649,1630
1832,-1686,-546,-3235,1163,-145,-174
1833,5355,-4864,190,-1492,773,-1876
1834,-1629,4886,7750,-1218,-1069,1307
1835,5499,-1947,6737,1086,1812,516
1836,6204,-7572,6544,1538,1359,1410
1837,4307,-3004,-896,-1311,415,511
1838,6203,3235,6697,-962,-937,1374
1839,4939,-4302,-2203,-899,1388,1672
1840,-7995,7044,6582,-510,1254,-666
1841,2219,394,6745,747,639,1610
1842,-5990,3979,-4775,1050,-1461,587
1843,3061,3753,2317,-377,-506,-1805
1844,4566,4992,-5937,138,-260,912
1845,4717,-3542,3707,-1610,-914,-1357
1846,6803,-5859,-3019,-66,-1001,320
1847,-7294,3973,-7967,-1915,-1809,645
1848,2903,-6019,-4896,-29,1634,1050
1849,-4858,4081,1272,-514,-262,121
1850,7154,3503,-6585,-833,-121,-321
1851,-6732,-108,5888,951,-4,-1668
1852,54,5677,-2438,787,696,-1004
1853,7718,-7761,7426,-1326,1087,132
1854,875,-4755,3215,-1028,-1614,1084
1855,-2634,-43,3491,-1498,-1220,706
1856,-2976,2638,1292,1804,-1611,-1609
1857,4926,6580,5448,-1473,-1164,1264
1858,3821,-7205,-7823,1642,-1014,795
1859,4159,6327,-7807,-1751,1917,-112
1860,-7719,-7044,7824,-1868,1206,-150
1861,1195,-1862,-6802,1648,166,23
1862,299,-2698,7031,1200,-104,-1994
1863,-1226,-746,-2619,753,1349,-596
1864,-7001,-1585,1291,-80,-1564,-202
1865,1925,-149,-7701,-961,-1062,1137
1866,301,-4899,-1658,-341,843,1301
1867,-4312,-4704,625,1559,1644,-359
1868,5196,-6988,4513,876,110,-1422
1869,-6165,5373,-4591,1789,-1634,564
1870,1649,2338,6734,-787,-1245,1628
1871,1857,-1817,1875,1879,876,-540
1872,-1712,3197,-5422,958,-1731,744
1873,-1551,4127,-4192,1557,-984,-1325
1874,4,-1352,6899,270,-1455,152
1875,-5419,-1985,5222,604,-1472,1495
1876,-4702,4635,-4467,-1412,-1006,204
1877,6774,2254,2205,-1869,-1031,1748
1878,2879,3633,5579,1995,-387,-179
1879,5324,-1490,6958,-473,1971,1534
1880,854,-977,-4320,-1726,1776,180
1881,1579,-7565,1482,901,1325,784
1882,-2781,2774,-724,-238,606,66
1883,-5646,4982,-4137,-1427,443,249
1884,7114,-6844,3790,1774,100,-1654
1885,-796,2579,-2396,1825,782,-1249
1886,-6781,1892,4123,-686,1818,1762
1887,1452,-6747,555,533,1880,-1440
1888,-1645,2716,5499,1845,645,-1316
1889,-5432,-4181,5201,762,-801,-345
1890,739,6512,-127,1800,410,329
1891,3474,-6731,6293,-1912,-1308,1712
1892,7371,7398,-2525,-1299,679,1394
1893,-2046,1295,-2633,580,518,-365
1894,-3115,-6859,5626,1051,-479,36
1895,1615,-2225,-5655,1296,-1644,309
1896,-5432,-3428,5531,-445,-1035,-278
1897,-4840,-4024,-6253,1674,400,716
1898,-384,-5871,7208,157,-733,-524
1899,1600,-1943,-6100,82,536,-1765
1900,-7899,410,5249,796,-1500,1768
1901,-4554,-1095,-3217,-1587,27,-1476
1902,-2584,939,-927,44,694,6
1903,4187,5032,-6137,814,-604,-1759
1904,207,-1962,5151,-804,-703,-1744
1905,-3961,-442,1079,154,1419,-1284
1906,1055,7829,2882,-1503,-1947,-964
1907,-1495,1248,-253,-1984,-1990,901
1908,-6206,-2019,-7676,28,1736,-773
1909,-3532,-1052,-4347,-1290,-322,-189
1910,7049,-4455,-6769,-417,1779,-1809
1911,6877,-6543,-883,-1713,697,1442
1912,-5361,-6668,6299,10,-1255,-828
1913,4826,1439,4746,1881,-321,1361
1914,1725,-731,28,-1500,277,1604
1915,-6266,-4104,-1368,1389,1031,1613
1916,-2904,-605,-1923,-632,-273,1018
1917,4863,-5610,-3478,147,-1823,-1299
1918,-2532,-2765,-6151,-1099,1927,-1670
1919,6552,6098,2542,-1868,-172,623
1920,7154,-7928,-990,-1467,-117,-630
1921,-385,-2192,6840,378,-19,-1532
1922,-5537,1556,-6263,-1858,-959,-1207
1923,-5988,3163,-2097,88,-309,79
1924,-1622,4058,-5783,1453,1682,81
1925,3847,238,-1281,-96,-896,1296
1926,7614,7536,1263,-545,762,-45
1927,6231,5651,134,-660,-998,1360
1928,-4825,-1204,-4770,-806,743,-376
1929,3437,-4396,-5560,125,-795,117
1930,622,3681,-1790,-258,-47,-1231
1931,-4169,1095,-3554,1206,-1566,583
1932,-2559,5047,7980,121,1018,1972
1933,322,2405,3647,201,833,715
1934,-4627,3514,-6937,-1827,96,1687
1935,2776,-7575,-539,543,-777,-1335
1936,1017,286,6947,946,-16,-1375
1937,-1880,-7264,-4325,-1070,-1092,-992
1938,-6868,5789,2495,1114,-1411,1802
1939,6769,-3123,-796,-71,-1014,173
1940,-7467,4259,6086,-911,-987,438
1941,6632,6837,4270,-1507,-557,706
1942,4933,2103,-6589,-1315,-837,-619
1943,-3162,-3163,-4164,-302,1776,-1473
1944,3010,3632,-5283,565,1218,705
1945,-4555,6411,3664,-347,1332,-1556
1946,6857,-556,-5725,-127,371,-756
1947,-3976,3788,2041,887,-251,557
1948,-597,-5940,4364,568,-1406,-409
1949,-6284,-6406,-640,-105,-478,1261
1950,-5340,3543,5366,-472,-1968,1964
1951,-2711,5881,5625,845,354,1503
1952,1963,193,6564,-1032,-1844,-293
1953,-2644,-5442,-2514,-1596,339,-786
1954,5943,5383,-7911,-1991,-1237,-880
1955,3228,-1264,-2335,1624,1849,-1881
1956,5929,-101,-1774,219,-276,1330
1957,-3613,160,4297,1231,1131,-1543
1958,4595,-7804,1188,-175,994,26
1959,-3942,-6805,-6276,587,-1899,-802
1960,2165,3898,6122,1739,1586,13
1961,3930,7363,5598,517,1681,-659
1962,-6163,-4322,5374,1259,-1029,-1861
1963,-1235,-3944,-4918,-170,378,-1650
1964,-2654,-1064,1165,-167,1283,-175
1965,3028,-6031,-4886,1307,15,205
1966,-4037,-6559,5264,-1655,1343,16
1967,702,-4866,-3774,-632,-1114,-966
1968,-7113,-5337,-5104,279,-1192,640
1969,668,-1633,-7378,-165,664,109
1970,-7527,4695,-3384,-1904,-1838,-265
1971,-3776,6791,2344,-1249,1733,599
1972,-3485,-5055,-2929,12,-1098,-1737
1973,-3121,3532,-5061,-431,-1858,190
1974,-6098,-1195,-4217,-570,1276,1324
1975,5874,779,-4387,-788,-1805,-688
1976,-1128,658,-3446,1491,-1570,400
1977,-7775,4467,-4623,-1611,-983,-1486
1978,-3301,-4105,-2247,-1319,-1721,645
1979,-5908,3958,4995,1311,-1542,814
1980,-524,-2865,-1277,1407,776,224
1981,2110,5976,-585,1618,-220,-1338
1982,1834,4385,-95,784,594,-1321
1983,-6065,-3605,3451,-1974,-1269,516
1984,3455,-1418,7274,1015,-1920,846
1985,-6640,999,-1891,1904,1344,1274
1986,1542,-4859,3513,-632,178,-1945
1987,7543,1268,-142,-62,-497,604
1988,5199,6802,-1802,-193,-610,945
1989,-6735,-291,-5774,1250,-271,-947
1990,6427,1531,-4785,266,1928,1089
1991,5868,608,-5314,1897,1563,-66
1992,532,7844,3184,-982,945,-326
1993,-2306,6821,6333,980,-531,-1927
1994,3608,615,697,-1090,892,-1195
1995,3527,7826,6004,-610,634,1887
1996,-6098,5507,-5757,678,885,1574
1997,-3986,3532,-5001,-1373,958,34
1998,-6972,874,-7589,1774,488,1980
1999,-7120,4672,5134,218,1764,1931
2000,821,-4507,-7243,1606,-1886,48
2001,-6628,6988,6881,1265,-1093,-1510
2002,2056,5593,3634,-708,-1360,93
2003,1055,-1665,554,932,1706,440
2004,-4718,-2589,-2011,1503,1964,-1132
2005,-5771,-2732,2897,-105,987,-542
2006,-5201,3561,2940,105,-1240,1637
2007,-6056,-4586,4322,1762,-1523,1773
2008,6036,-4979,-3954,-899,-1146,816
2009,-2943,-6781,-5205,1416,253,-1210
2010,4754,372,-5675,156,-967,1886
2011,3235,-2387,-7364,-486,375,299
2012,6829,-6215,-1862,593,85,-867
2013,6741,6090,-3864,1699,-1980,1243
2014,2438,7929,-6716,381,-1722,725
2015,-7437,4347,-5764,-1403,-1485,522
2016,5582,-4291,-1603,-45,-1114,1023
2017,-6267,-830,-1412,1786,-202,-1670
2018,-3562,-7974,4903,-1730,219,-417
2019,-5397,3776,5229,-1330,-1623,1602
2020,2267,-2247,935,92,1452,667
2021,1116,-4331,7220,81,-871,1120
2022,-1377,-6470,-2090,-1661,-1471,-1771
2023,-4920,-2199,-3727,663,1286,-689
2024,-1683,5094,3016,-1019,-5,1319
2025,5180,-930,7148,493,-1797,1744
2026,-4700,-576,4722,-1879,-1215,-624
2027,-6515,2947,5177,1641,1270,1821
2028,-7068,6415,-1993,-1529,1074,-1333
2029,3586,4453,-5292,-289,-328,-970
2030,-5154,-3485,-7825,27,-74,1661
2031,-1108,95,2632,1816,97,-1871
2032,7119,-5889,-7753,-1723,-1229,-714
2033,-1520,7751,-2215,1019,-199,-1861
2034,6010,-657,-6205,-1561,-1438,-219
2035,-235,1029,-6978,1077,160,-1240
2036,6719,-6501,-5130,-1844,-543,-608
2037,-1306,18,-2733,1377,-143,1760
2038,-928,603,1899,240,565,1626
2039,-7042,5352,273,-1955,-1540,1138
2040,2147,-6448,-6733,697,1123,-681
2041,3317,-1175,-7486,-994,266,-1927
2042,-4222,-442,3140,-663,903,-242
2043,-5093,7512,3110,-1297,-810,1184
2044,82,5522,-6710,73,608,-685
2045,496,7292,-4361,-1951,205,986
2046,5771,4861,3999,-1713,-1781,-574
2047,-6949,1853,-513,1778,-773,-1542
2048,-3671,-7714,3974,1889,-1828,-1889
2049,3381,-5238,7213,1849,-1353,1069
2050,6761,116,-2826,298,-115,1388
2051,3517,-2268,7231,-273,1177,576
2052,3533,3192,-6169,-1482,-1246,1076
2053,-207,7823,-7564,1756,268,730
2054,-5118,-861,3391,84,-1458,-1959
2055,-464,-163,967,1172,-744,878
2056,3338,-7411,7706,-1104,-1150,979
2057,1470,-7771,-5304,51,-1243,827
2058,7845,-4701,-2862,-1250,-1051,-1688
2059,7280,2681,-4147,1002,-1395,1470
2060,-5120,-1990,-800,642,1573,-1402
2061,2785,-7735,-1172,-1169,-1969,792
2062,-1383,-1380,-2767,-1403,-120,-170
2063,3743,2784,5457,-488,1267,-1536
2064,-6955,-976,-1114,525,1716,-1579
2065,1138,2712,3124,-1892,1970,1447
2066,-6715,1026,5207,-1966,1463,-1475
2067,-2322,3296,6360,185,1575,-1417
2068,7441,592,861,207,-1327,-127
2069,-6158,-1978,4624,-352,1739,-1718
2070,-6707,-313,7170,839,1535,-139
2071,1454,7931,-5708,289,-1975,751
2072,7848,-1130,3750,-377,-1759,650
2073,1267,-2103,2300,1604,258,-1139
2074,4907,-2566,39,260,1296,-614
2075,1329,4684,-2305,857,-25,1666
2076,5458,-4235,-5940,-786,874,-926
2077,-1457,-1846,276,-275,-257,-1118
2078,-4244,1129,5790,2,-924,873
2079,-857,5186,-644,-1269,189,-210
2080,-1208,4041,3540,1859,1488,959
2081,5420,2161,-4716,-1069,-361,1134
2082,-59,596,5239,534,-560,1423
2083,6340,7746,470,1006,1488,-774
2084,5725,4959,2659,-803,777,-1221
2085,2609,2066,4819,-13,427,-1083
2086,7781,6274,3629,47,10,891
2087,2734,5733,5002,-1695,250,1349
2088,-2062,4164,-2917,-934,814,-1839
2089,1688,-1836,5137,-1749,-163,-1352
2090,5797,-449,-555,861,-986,-857
2091,-3331,6451,-5680,-1964,1315,-248
2092,-2108,-1779,4154,166,771,-1716
2093,6110,20,3533,-603,989,1814
2094,-5270,4864,-3883,-640,-647,-737
2095,2770,-7121,-2391,-1002,-822,-180
2096,2476,3539,-3052,-103,-500,-1211
2097,1235,7141,-5011,576,1923,172
2098,7004,7336,6825,-658,394,-1754
2099,-3063,4206,6600,-1633,859,-188
2100,4933,5890,5680,1904,-1817,63
2101,5520,3541,5927,1686,-441,412
2102,-6121,3903,6621,374,-1176,1659
2103,5436,3306,-2098,-274,-779,-1018
2104,-4661,6928,2938,960,1074,99
2105,5005,-1367,5242,-1279,-373,-830
2106,7270,-7337,-6973,28,165,-1227
2107,-4398,-4966,7465,1093,1052,-33
2108,-4413,-945,-1945,673,-549,1778
2109,-3005,5712,-5788,-721,1464,-1230
2110,-2544,2508,-3336,-1175,-1385,775
2111,6298,-7505,-3085,1746,608,-382
2112,-36,-2620,6841,1587,1511,478
2113,-2388,6421,1908,-840,1596,1104
2114,-6597,3268,6864,-1280,1369,-1656
2115,-1602,-7881,861,405,763,1655
2116,3890,6600,-5054,-356,443,1123
2117,4023,-2170,-3599,-970,-1038,-1957
2118,-7544,-6804,3862,113,-858,-886
2119,1862,2395,2974,-1331,-1367,1764
2120,6264,5346,923,1168,1813,735
2121,7320,-5839,2231,-783,1449,822
2122,-3464,-2496,-5377,-832,-151,854
2123,1351,1778,6432,-1474,-1143,-738
2124,3813,4206,-608,-1556,-1396,-1615
2125,5403,-5596,3207,801,-302,-420
2126,7567,-2768,-157,1350,1908,321
2127,-1307,-4649,5496,1466,1543,726
2128,4648,-1650,3011,-970,1737,1935
2129,-7650,-209,-3414,-648,1799,1861
2130,-7632,3727,-1782,1363,1015,-698
2131,548,4280,-4107,523,503,-1201
2132,4838,-5996,4075,-1528,766,6
2133,1611,535,4150,317,130,-705
2134,-2121,6012,-4540,889,-408,1332
2135,-234,-3227,-2935,-1463,1724,-1473
2136,7657,7556,4635,-110,-1027,-1277
2137,298,49,-6186,-1809,219,1345
2138,5888,66,4985,-1561,-1313,-1731
2139,-2275,759,2672,1502,-1859,-775
2140,7890,879,-3923,-631,-1094,1371
2141,-5169,2682,4732,-1901,-356,900
2142,752,-2126,2739,-1631,151,781
2143,96,7838,-3045,-1977,-1156,1770
2144,2948,-7503,-7747,-1472,-1608,-1115
2145,-1675,5036,-5704,-1176,281,396
2146,7613,-1628,-2904,466,743,-1982
2147,-875,-18,-2900,-1915,-1390,-408
2148,-6285,860,-845,-1742,-1631,-474
2149,-2291,7384,-994,-770,-156,527
2150,-1412,-1397,-3942,-517,1353,307
2151,-3936,-7143,2354,77,-1042,1936
2152,5467,-6423,3996,984,-896,1734
2153,7302,1090,-1993,242,224,1007
2154,-3729,2912,2486,1713,924,-1725
2155,-6082,-994,1492,-485,452,1794
2156,6814,2779,-6814,125,1513,1221
2157,5176,609,-5965,161,-109,1223
2158,5682,-7678,-3401,894,-1431,466
2159,-4234,3582,-6919,-1770,274,-480
2160,7792,-6553,5776,-384,710,-1494
2161,-572,-4327,-2106,1657,1,-187
2162,3452,3225,-2128,1503,-36,483
2163,6753,-2947,7334,-1111,-747,-314
2164,-1667,-6848,-7991,-1671,85,1553
2165,3404,-5044,240,1796,-346,-729
2166,-1702,-4192,2440,1976,-899,153
2167,-208,2212,-5834,1288,1776,666
2168,-1190,-3326,2313,-68,-1878,-919
2169,2139,5868,-6615,-588,990,204
2170,-4839,374,-101,13,1891,953
2171,-3896,-1826,-1510,-1036,598,1939
2172,4168,-6585,812,-586,94,101
2173,-3917,7469,2897,-1116,-1922,-224
2174,-1197,-707,6534,35,1206,-485
2175,303,6231,-5737,-1229,1946,-664
2176,-1431,2497,-1123,990,1308,-1450
2177,656,-848,7435,1701,-1396,732
2178,6128,2172,1904,-528,466,1840
2179,7696,598,-6785,-2000,-78,-1701
2180,2365,-659,-5264,-1671,-625,-1037
2181,1511,-5634,7154,-828,-363,144
2182,-2295,2663,2870,1015,-227,395
2183,425,-7545,-6220,286,1021,-650
2184,-2334,7961,782,688,-520,951
2185,-2949,229,517,1924,-1075,-1415
2186,3107,728,966,-1398,1451,1899
2187,2200,-7200,5791,1451,-658,-12
2188,5167,7619,-4967,1803,1082,951
2189,2628,1419,-5641,-854,63,1294
2190,-5693,416,6264,-1120,-579,1159
2191,4279,-249,415,-226,562,1738
2192,7912,3692,-3944,-236,1387,-767
2193,7640,-7014,-704,-1068,-727,-1704
2194,-723,4448,2089,1363,1742,400
2195,-5318,743,-5785,-32,886,-1186
2196,-2956,3852,-6346,480,888,-1953
2197,6668,7132,-6686,1055,-1476,-92
2198,6776,2109,3484,-1354,-1878,1258
2199,3222,-1126,-4564,-1163,894,1841
2200,-6835,7310,1836,-542,-372,533
2201,-7298,5585,546,-229,-1268,-911
2202,1874,-6806,-4335,-931,-640,-1627
2203,-1659,4909,-2266,-322,1981,1993
2204,-2194,-6250,-7223,-1346,-141,-1090
2205,-1451,2535,6397,1317,-146,-1872
2206,383,4952,4737,-53,762,921
2207,-4602,1536,-4962,445,-1577,1332
2208,6369,3275,-942,-1110,-743,-1244
2209,-2590,2165,252,-126,-233,507
2210,4908,-6359,5090,1874,79,1319
2211,-4988,-6726,-2499,1052,1591,-1442
2212,-7251,6224,-3835,-588,209,885
2213,6171,-257,4935,178,-1621,-858
2214,5462,3289,-6661,1880,-1010,-1923
2215,-272,1566,4283,1205,1762,-1120
2216,-2854,32,-5292,1253,139,-57
2217,6720,-4897,-5667,-1913,-1182,-1163
2218,-4668,-3618,3757,-500,-695,1985
2219,-6705,-3962,-3129,1694,-1548,16
2220,-2562,240,2479,-1473,170,195
2221,395,7340,-6268,-437,-1650,898
2222,-7066,4647,4675,-779,-1687,-895
2223,6574,-7244,2033,-345,-292,1278
2224,-4488,-3064,-215,-1521,1588,464
2225,-5449,-7064,6977,-348,599,808
2226,-4452,-5416,-4127,869,1917,254
2227,7244,409,-3202,-1279,622,1306
2228,-2056,5310,-2260,-560,1908,-473
2229,6547,2510,4691,469,1782,276
2230,6101,-7235,-1898,-782,428,-1189
2231,-6218,-802,-5390,-1963,1024,-1935
2232,-4640,-7509,-2971,-1303,308,-412
2233,2243,-7735,6982,-72,-1811,1662
2234,5393,-2731,1962,-1737,-809,-1638
2235,-3227,-5085,7171,756,1482,703
2236,-1309,7210,-3361,-699,-1780,1326
2237,4294,-265,-2283,-555,-1408,1435
2238,5058,-721,585,882,-1323,966
2239,6375,7405,-7439,-1394,-912,-1340
2240,-2956,1351,5792,-332,1486,692
2241,-2406,-4319,-5366,-620,1368,-502
2242,-2165,-4908,7097,144,1484,-972
2243,-2814,-3237,1006,-1219,328,1973
2244,-5188,-6410,-7115,1850,1555,-1013
2245,5366,3927,5440,-1105,1691,313
2246,-7080,-4086,-1600,1159,-795,1718
2247,-7592,4659,3776,705,-954,-1323
2248,4033,5149,826,-683,699,-680
2249,815,3219,4448,-1990,-1031,-1501
2250,5561,-7557,-5000,1704,320,-544
2251,-2226,7919,5142,-177,-1932,-1266
2252,6224,-4219,2495,128,-1975,-1734
2253,-1070,7959,3493,-150,-235,-338
2254,1935,3223,6882,1580,18,1271
2255,-7969,4377,-2532,250,325,1090
2256,3803,-6142,1022,1115,-1471,881
2257,-392,7406,6330,-1559,1093,1477
2258,4669,4594,279,783,-1624,-51
2259,-4763,2567,7815,-39,816,1765
2260,6975,-1976,3294,1977,1769,-1494
2261,4450,3391,-5230,-313,542,-1245
2262,4539,3992,-677,1985,1599,1146
2263,-5153,-711,-6861,1777,-1400,-1204
2264,1868,602,3761,1695,698,534
2265,-2502,-3714,-7349,-1877,-1229,473
2266,-6850,7388,6836,890,-867,449
2267,-6836,-140,4570,824,-512,1342
2268,-525,-5778,4594,-277,752,-1743
2269,1345,399,-3457,1832,680,125
2270,-1087,-3176,3604,-1857,-929,-560
2271,-4343,-4052,1259,38,-426,-842
2272,-6718,2618,-3728,498,1571,-1124
2273,-7757,6024,173,-1232,-822,-1026
2274,-2029,1821,2464,-1384,-790,-881
2275,-276,-7572,-4418,1135,1458,1262
2276,-4091,808,2929,-1027,-1593,901
2277,7047,-3424,-2221,1579,-196,-53
2278,-7057,-5779,6271,1446,-47,1146
2279,3414,1096,2068,1366,1345,884
2280,-5111,-5865,3204,965,-1815,-1734
2281,-2044,4114,-6211,-1146,-403,-36
2282,-6524,-62,1369,-158,-1717,837
2283,5025,7125,-659,-408,1723,-583
2284,3750,-5414,-7940,1909,-484,1003
2285,3217,-806,1564,893,1392,-1777
2286,4406,-6100,5136,1246,142,-1813
2287,-7453,7643,-620,1099,358,626
2288,680,2021,-5353,133,558,-1093
2289,-6920,6876,5964,-1080,-843,18
2290,-1999,-5548,-3488,-765,-1050,-28
2291,5565,-3508,-5027,-685,768,1925
2292,6943,5203,-6593,-1261,565,131
2293,967,-3235,3424,-89,1359,-15
2294,-2954,-4141,-6601,661,-138,1135
2295,-4642,-824,-4323,1446,-1865,-1769
2296,4110,-3804,3775,-1250,1453,1014
2297,-3909,-6454,2253,-1171,1796,-487
2298,5774,-1364,1839,616,1809,-1922
2299,-406,-3269,656,1193,-1242,1286
2300,-6755,-3925,1447,-1929,1120,1945
2301,7765,-1580,-5024,-66,1595,-1984
2302,-1035,-5286,4589,240,-1890,-1692
2303,-3341,3317,3556,1727,1621,-1086
2304,-4292,3083,4552,-1193,-113,1613
2305,5553,5029,-3322,-1320,-1502,1960
2306,-6387,2374,-2306,-659,1642,793
2307,3433,-3309,-1572,-1103,1521,-1598
2308,-1898,-6155,-4115,932,451,-1045
2309,-3137,3037,5767,1575,119,-259
2310,4656,1436,-5885,97,620,73
2311,783,-4791,3964,1631,-551,-657
2312,-7101,6456,-1715,-769,-1808,-1701
2313,-4558,6993,1213,-559,-612,-819
2314,-3125,-1672,-27,371,762,-220
2315,-6367,-6992,3261,1931,158,-230
2316,1376,-2928,-6825,-741,903,1980
2317,1925,1278,4927,-412,1409,-1417
2318,-5415,213,467,-1403,647,295
2319,7926,-2196,-3565,-1337,575,-1097
2320,7386,-6292,-1960,453,962,-1509
2321,7409,7808,5188,-1411,1937,-829
2322,2852,-6910,-7401,-698,615,1310
2323,-42,836,2039,1552,-1279,230
2324,5499,-1676,798,1003,-988,-1243
2325,-3179,-7166,-3336,-1180,788,-1035
2326,1096,2859,-6709,-833,1116,678
2327,785,-2500,-5158,-1931,-265,1526
2328,-2320,5593,2187,351,367,-155
2329,-1548,5,-2324,-1422,-681,-1324
2330,-7463,830,846,-217,26,1491
2331,2096,65,-5215,969,154,-1519
2332,-7640,1319,-1516,-1925,-149,1016
2333,1797,-6109,-4812,-1943,-526,-500
2334,4392,150,1273,-1977,1065,1
2335,-552,-6557,4795,-526,-780,-1006
2336,4791,6299,7821,-118,1703,764
2337,4493,-2214,2814,-1423,987,214
2338,-2869,4784,3189,-497,152,-1107
2339,-1200,6713,6893,-285,1765,270
2340,-761,-5413,6808,-680,-800,-1936
2341,-3212,7930,-3480,-1588,771,666
2342,-7125,-5590,-3636,1858,-476,-916
2343,612,7248,-5265,-1217,1048,-423
2344,-1983,-3426,4504,990,-918,-1787
2345,-6981,-34,-7924,-1603,-1725,-1237
2346,99,-3662,-6075,-71,1846,40
2347,7413,1966,-5080,1486,-1658,-604
2348,-5161,-6489,2913,-1509,1179,-1711
2349,4643,-5479,-3340,985,-270,-896
2350,4162,888,4597,1545,443,-562
2351,-5901,-4531,1503,547,232,355
2352,4706,-711,-4879,1832,-287,292
2353,6154,-3464,5156,1463,1887,795
2354,-308,5211,-4678,-956,414,1801
2355,4738,-5947,-2639,-1248,907,1942
2356,5998,-2429,-1118,774,-402,1311
2357,-1581,7387,1090,1138,131,-1734
2358,-1866,-6972,-3812,-1662,-1966,232
2359,-3242,-136,-2090,1589,1310,-1912
2360,-3775,2968,-2983,-469,151,627
2361,2461,488,6985,191,-538,1573
2362,-4635,-5178,-504,1858,1906,-1200
2363,-2207,-5044,-2182,-492,-536,-1282
2364,-7009,7255,65,-1770,286,686
2365,1556,-7531,2893,-1759,1427,1891
2366,-4046,-6745,-5517,-195,216,655
2367,4736,3772,-2421,-1393,-1422,-423
2368,-4734,-992,-7230,1648,1942,-362
2369,-5614,5160,-164,-1871,240,1592
2370,6986,-3001,3013,-1896,-1895,760
2371,2432,5972,1174,-83,-656,-613
2372,-4671,2960,4786,653,-1415,994
2373,4018,-4636,-3633,-23,194,889
2374,4384,678,-5304,33,-69,1427
2375,533,3168,5440,-1503,-1105,-229
2376,7168,3034,4168,172,-1199,-1726
2377,-5978,1206,5169,-541,-573,-1169
2378,-3524,5217,-7767,1040,-650,1266
2379,1158,2153,7822,996,1,-1014
2380,-4403,806,-7038,292,1714,1734
2381,-3048,-1464,-4496,-1451,-338,100
2382,1465,-518,5638,1211,-1515,1114
2383,-5811,2231,-6174,1281,590,1588
2384,6490,1032,6988,472,-63,-398
2385,2554,-5446,6103,355,1178,-792
2386,-1079,6753,6652,738,-1431,-148
2387,6240,-222,5638,513,-1281,679
2388,-6323,6614,-937,-551,-1575,-915
2389,-4477,3876,-6693,-1968,1796,1611
2390,-508,4911,1434,-1092,-1694,217
2391,-6729,2046,-6655,605,-1890,-301
2392,-2423,-6538,-5347,181,-570,551
2393,-7619,5290,1021,1962,-1500,-1154
2394,-3294,7883,6116,-300,-1400,-373
2395,-6012,7770,1141,-1234,105,1591
2396,-2413,-1712,6444,550,1301,1926
2397,7304,-3537,5185,-706,752,1876
2398,-666,-7756,-5654,32,1767,-754
2399,3228,5207,-5073,-291,-1191,-469
2400,-6539,6743,-2085,-509,1780,-1188
2401,-1050,2876,5005,-1149,-704,-1497
2402,-147,3609,-6743,355,-949,1015
2403,2337,6928,-6160,-326,1120,-958
2404,4464,31,412,1746,1034,-1862
2405,-6687,6338,7133,-1258,-1646,17
2406,-3425,1061,-4497,1862,-1054,-1116
2407,7299,-2979,-6085,783,-633,1251
2408,-3853,-2075,-4236,-188,-1681,1077
2409,-6925,526,-7384,-816,-1633,678
2410,737,-4160,3085,643,-225,10
2411,5582,6779,-4059,-1228,1177,-734
2412,-9,-3116,5478,-1859,535,-782
2413,5243,-51,-4686,667,-1864,45
2414,6439,7725,5217,1998,-389,-1077
2415,4955,-6495,72,318,420,989
2416,-3827,5824,-5339,1923,627,-307
2417,4956,4864,5090,200,1352,-1235
2418,713,-4229,749,-221,-1704,680
2419,7539,6090,-7339,-1249,124,-112
2420,5869,-6893,1850,231,1364,-1685
2421,7094,-5700,3898,-1972,1355,1282
2422,-6326,357,5729,1577,267,-1860
2423,-6516,2487,7936,-924,-1515,1790
2424,-5275,-1702,-5658,202,1873,737
2425,1481,-537,7466,849,-320,-1489
2426,122,5763,2800,475,-1107,1494
2427,2417,-2824,1976,-325,1604,-1441
2428,7957,-6026,-396,-398,55,-942
2429,6313,-7221,-3793,1596,-1931,550
2430,-5718,-5945,-1691,-1251,-1738,1224
2431,-7555,6906,-1036,216,1984,550
2432,-4023,4961,1586,125,-400,1059
2433,-913,3762,6392,-583,456,985
2434,1738,226,-688,1875,793,-18
2435,2840,-1281,-1428,-1753,1819,-1649
2436,266,-6125,32,-673,-1219,797
2437,1934,-4530,-2108,1990,478,-1461
2438,3521,-7409,6012,-1730,335,-392
2439,2450,-7622,6280,725,-681,626
2440,-2488,-7408,7855,-639,-1044,1065
2441,-4954,4984,5796,-1606,914,-337
2442,-1661,-1177,-1360,-1518,-1906,-1858
2443,470,-458,-4587,1701,-392,-403
2444,2568,-3659,-5162,1060,-241,199
2445,4832,-3150,-5866,-1187,1322,-586
2446,-438,-3205,6069,1121,-1046,396
2447,-699,-7721,-7629,306,-1519,1338
2448,-3674,7029,1865,1666,-798,-1656
2449,3894,-839,-7820,1751,373,-675
2450,4643,3016,5470,-1378,-706,-235
2451,-4290,4502,-633,-461,-883,-329
2452,1062,-3720,7917,910,767,234
2453,-1105,-4053,4469,617,214,-1797
2454,-4407,-3551,7136,-1701,-497,585
2455,2760,-498,-2231,-1394,-97,199
2456,2735,5653,4838,1636,1399,1742
2457,6121,905,-2500,-1261,1661,352
2458,4396,5895,-6817,-38,-1172,-122
2459,6670,3607,-2681,316,-567,974
2460,-2344,-5976,-3824,-1726,-589,356
2461,6247,-1133,-7065,-1211,-1235,806
2462,1449,-3171,-6507,-454,-1791,-1437
2463,2974,7849,-3311,-1619,-1150,-488
2464,-134,-646,-7291,-845,844,390
2465,-424,-6388,5144,-573,1838,-1450
2466,1284,6397,-4405,1890,-1476,31
2467,-898,5163,-6692,438,-728,1187
2468,-3146,-5680,-5716,-496,1020,535
2469,2015,-4599,5732,-364,1443,-365
2470,-5391,-5722,-2353,-1583,-1076,-1501
2471,2004,-7481,-1753,-987,1668,-1159
2472,3851,1821,-7455,-1412,-943,-849
2473,4951,7074,6317,-917,-244,234
2474,-4465,-6698,6468,-1341,-1067,-1154
2475,-7227,662,6884,1830,417,216
2476,302,-2782,-6533,1824,89,-1583
2477,-6611,4168,4022,-1171,-645,1043
2478,7869,1111,2851,98,1023,149
2479,3074,2679,5264,-1554,1807,1739
2480,-543,1800,2995,-1717,69,-1801
2481,-4481,-4076,-5128,-423,134,-308
2482,5221,1470,-7953,1502,-1986,-1018
2483,-2769,-4028,4141,1206,-599,-1719
2484,1394,6076,-6511,-1188,-780,-803
2485,-3095,6490,7025,1237,-60,632
2486,366,5923,-6636,-1051,267,309
2487,5594,-3027,6731,-1436,-468,1350
2488,1871,1496,3393,-1376,-1701,913
2489,-4984,-4722,4177,-1813,1275,-300
2490,-408,7908,3296,-1736,-7,1884
2491,-7463,4092,-6849,-1645,720,-1977
2492,3850,-6214,3535,-457,-1803,-391
2493,802,4872,-2274,430,1240,-45
2494,-5349,5182,-1409,181,-1280,-48
2495,7713,134,-4065,-624,-1530,529
2496,-5955,-4237,7690,783,1036,-1891
2497,658,1854,4128,-250,-1881,-1055
2498,670,4734,-1337,1431,-107,-544
2499,-5506,-702,4460,-1790,510,-1325
2500,5205,4946,-4017,1285,-847,1005
2501,-2607,-6446,-5257,399,1351,-702
2502,-7230,4257,-2419,-223,586,-857
2503,-5960,-489,-3121,1243,-1082,-1625
2504,-759,-7247,7604,1452,808,1623
2505,5515,-1320,-5467,-39,1877,-874
2506,-890,-29,238,1752,831,1842
2507,-3986,-3906,2687,75,-1857,-1075
2508,4840,-4345,3934,432,-1932,664
2509,2035,-3550,-3281,1189,-613,-452
2510,-355,6806,5780,-1228,-168,-1940
2511,-2075,-7037,-4365,853,1500,1721
2512,-2578,1926,6522,938,201,-293
2513,6910,7789,-1814,-491,-1758,-158
2514,4802,3611,531,-1866,-1105,1555
2515,-2257,384,-3626,589,1083,-510
2516,-4133,5384,-5328,-1468,1458,220
2517,3490,3706,-4510,289,229,-149
2518,-6100,4389,634,1326,1952,588
2519,-1648,-285,-1343,998,355,1358
2520,5419,-3717,1051,227,-1209,-1976
2521,-6247,5144,2714,-1288,-1745,-1254
2522,-3897,-5478,-1374,1387,-1133,-915
2523,-5887,2708,5246,-469,-444,806
2524,-3932,-532,7366,450,-358,-1361
2525,-7579,-555,5228,-987,603,917
2526,-877,-748,-296,-942,964,-1346
2527,-2408,-6766,1164,1023,-1567,1622
2528,1567,-3278,276,-1291,-808,-133
2529,725,-6005,-1952,1138,1300,-692
2530,4472,406,277,-1514,1116,-230
2531,7621,6671,-1620,-1708,1099,-474
2532,3517,-1704,7268,-553,1559,-876
2533,-6940,-2215,2022,-209,1120,-747
2534,-7175,-2554,-701,-340,1725,-1811
2535,113,6935,4459,15,1624,508
2536,-343,7593,6677,1162,-1863,-760
2537,942,5831,4477,-583,-1690,1411
2538,1670,-520,-4175,-1187,212,-21
2539,3391,-7814,2885,-1795,-295,-527
2540,-4609,7148,5372,-696,-1945,88
2541,7251,-3319,-333,250,-1001,-874
2542,1048,-1624,-3754,-1365,-956,21
2543,-4720,1843,183,-613,1873,-853
2544,324,-6257,859,-870,620,1253
2545,-185,-3349,-2942,532,1410,208
2546,-1414,2770,-2511,1952,-180,-214
2547,7577,-2776,2196,1717,892,-716
2548,1369,4729,2493,0,-1872,-1576
2549,-5270,7101,-7010,-600,-586,-1636
2550,-5805,-6284,2838,-1479,-1998,-979
2551,4553,6649,150,1205,1107,-26
2552,971,5329,-4033,1419,1707,237
2553,-1144,-2693,2577,475,-481,-1247
2554,5399,-5311,3363,1617,1272,-1353
2555,-4247,-4847,-5624,-1051,1721,-160
2556,1127,5448,-7207,993,-1540,-1726
2557,-554,-433,-698,-464,380,-1442
2558,-507,4311,7495,-236,-882,24
2559,6444,5814,-7179,1,-695,924
2560,-7991,3287,-1811,1189,1535,-235
2561,595,-4079,6452,1055,-1810,1009
2562,-967,-6385,7193,-1979,-1353,1404
2563,7138,5703,1038,-1167,1095,-1656
2564,1500,3435,-254,-212,-855,-659
2565,-2094,-334,5742,1645,1242,1503
2566,-3103,4820,-975,-794,-711,-1864
2567,2154,7247,3509,0,1420,-886
2568,-4235,1333,5966,-909,-1183,-331
2569,7850,-7139,-5184,1423,-1957,218
2570,-365,631,-4508,861,760,1952
2571,7338,918,-5961,-1777,-453,1939
2572,-935,-1991,1297,-902,1,-1831
2573,4513,-6618,1735,1189,287,-1693
2574,4656,1755,2605,542,-566,86
2575,3160,2593,7810,-1293,357,1987
2576,6355,5627,-4667,-229,1593,-905
2577,-448,7747,-6429,100,-1550,1628
2578,-7902,-1669,-7842,-560,-848,-1160
2579,-6623,-2343,4297,-653,-1896,-640
2580,-3782,-4117,-4140,1225,295,1267
2581,7103,5154,-7704,-593,-1910,531
2582,-6001,1334,4796,1140,241,911
2583,-6549,-6903,-888,-1638,-916,-1516
2584,3576,7556,-1920,705,1584,726
2585,6632,2895,6106,-1612,1524,470
2586,-2666,2330,586,-550,1085,-149
2587,-7311,6908,913,-236,772,-89
2588,-2112,-115,6980,-689,-586,-407
2589,2729,7534,1852,1934,-1841,1353
2590,1884,-3273,554,1192,276,-888
2591,1483,-6668,-3224,1457,65,1441
2592,-1327,2397,4823,-1251,-574,-1652
2593,-1513,7855,1851,-1290,-919,-1755
2594,-4070,7104,-6348,1501,-633,-537
2595,-3681,4321,2353,-355,1424,944
2596,4644,-2569,-339,495,800,-1648
2597,6022,-7710,-7889,-110,-1006,-533
2598,1153,-2604,-4584,1687,-1940,-1493
2599,2663,1766,7303,-1760,1658,-1642
2600,-2801,-150,-7236,1130,1710,1837
2601,2447,2052,-4806,-599,58,-84
2602,3209,-6312,2877,1830,-1829,-1999
2603,-3710,-5381,3667,-862,-422,-207
2604,-6981,-5203,3704,-1532,1029,1218
2605,3088,-5855,1584,-936,-843,-1707
2606,7663,-6910,20,1558,585,146
2607,3468,5936,-402,-592,1531,-1144
2608,-5866,-5777,750,-1489,-1837,277
2609,2464,-4027,-6593,1248,963,953
2610,-2543,4134,6250,-350,1486,484
2611,784,401,-4453,-244,1525,1490
2612,647,7910,728,440,996,124
2613,3760,4325,-1963,3,-258,-371
2614,-962,7531,-4209,-1063,928,-1257
2615,3000,3496,-7164,1267,-796,1474
2616,-6262,1179,-273,1321,1808,422
2617,5892,-1485,-2186,1167,-1948,-1102
2618,6611,-6090,7506,646,-877,-857
2619,-7558,3435,1275,1506,1436,1322
2620,7043,816,-6381,-1355,1819,1388
2621,3333,7676,1835,-20,-987,1057
2622,2872,-4733,-380,-754,855,1751
2623,-3446,5569,5771,893,638,1645
2624,2755,-6522,-1683,-490,1619,1458
2625,-341,7368,1618,961,-386,-110
2626,5363,3241,183,1842,-1072,-1001
2627,-94,-1105,-2786,-1675,-1009,-215
2628,-6119,280,268,-344,-405,1216
2629,2032,-1723,-1740,-497,1504,514
2630,1492,5028,1503,682,-783,-411
2631,-6988,392,-7277,736,-1205,1640
2632,-4594,2530,394,-930,-1968,556
2633,5651,-185,2127,1048,-1855,-163
2634,2658,-2827,4884,1425,944,1432
2635,104,4448,-4229,694,-183,425
2636,1495,4412,2196,-1156,930,-547
2637,4472,140,-353,-455,545,-479
2638,6343,-232,5286,126,622,1482
2639,-5621,2351,4319,708,1273,1601
2640,5366,7156,993,992,1963,-1499
2641,-2265,-1246,243,105,18,745
2642,-7042,4277,4760,-364,1192,638
2643,4959,639,7252,847,521,-450
2644,-4805,6099,2392,-1608,1708,435
2645,-3692,3758,-3083,1979,284,-1177
2646,396,-4257,4572,-545,-701,-1030
2647,5006,-7239,5700,-1399,-449,170
2648,4634,97,-6383,-787,-758,-696
2649,831,-6464,-6580,-1377,624,-1835
2650,-1116,3846,4135,-340,-1887,1517
2651,211,663,4044,-465,-302,614
2652,1245,-7211,5922,-566,10,27
2653,-5249,7508,5315,287,-1245,1838
2654,-5536,-3945,7864,-350,-1161,-1632
2655,-7040,331,-1131,-245,-841,1007
2656,-6509,6924,6212,-1968,1322,-605
2657,6708,6021,2433,-1858,1599,-714
2658,2305,1661,-1708,975,-899,-1005
2659,226,3896,-5609,-1752,974,-388
2660,-296,-3614,5601,294,-284,-13
2661,2945,516,-3416,309,-1006,1189
2662,2446,-1881,5360,1587,-99,-852
2663,-4659,-2563,-329,-1851,1418,-836
2664,7046,-961,7195,1174,-462,-52
2665,2325,739,6338,-1395,-188,-890
2666,-4688,4965,4395,-1467,-1391,-1047
2667,-5095,861,-3705,888,-1379,-129
2668,-1985,1844,3885,577,601,-912
2669,-4421,6503,2134,633,731,-378
2670,7948,-4697,-1477,-364,1957,1086
2671,-7092,3465,225,-1075,-1735,1839
2672,-3334,-1609,6956,-1650,-876,157
2673,750,1360,780,1811,1207,-1189
2674,-5602,7164,1997,-1292,168,1733
2675,-6661,5852,4802,176,1997,1369
2676,3874,-218,-1407,1049,190,1581
2677,-377,-5852,6646,-792,-91,370
2678,-5467,3864,1154,-681,1876,-240
2679,890,3010,2892,1364,-221,-718
2680,-3737,-7611,3487,1675,-1095,812
2681,-7183,-512,4432,853,-794,1709
2682,7759,-309,6883,1945,-392,-122
2683,2880,-3824,-7877,-562,-1035,131
2684,4930,1871,-7069,619,-1861,1911
2685,3657,-6228,5959,-188,192,1683
2686,5460,-3171,3945,649,301,787
2687,2299,5706,-4795,-1546,516,-249
2688,1008,4047,3805,-560,-1217,-1438
2689,-7739,-1608,-6159,1047,-1024,405
2690,-5941,-1809,7658,1762,405,77
2691,-1656,-2138,6434,-597,-1236,403
2692,-3225,-6590,7787,1845,1048,961
2693,5867,-2123,-4560,634,268,1987
2694,2003,954,-7309,420,471,-1844
2695,-1576,-1410,-7707,725,418,-244
2696,4931,-2329,2412,-1563,651,117
2697,5280,7722,-3707,-1257,337,779
2698,-4621,83,-3757,-86,1352,1373
2699,-2729,-2993,1702,1190,-1602,-1582
2700,4621,-2047,3648,-1459,983,1433
2701,1462,3012,1649,1921,-1493,-109
2702,-398,486,-597,-1850,143,-548
2703,1388,483,4015,-1116,-1413,378
2704,3629,-7639,-7913,821,-772,-606
2705,-6728,-4671,-1252,541,1666,-796
2706,1653,3806,-6109,1595,-379,233
2707,4057,-1279,4805,681,-542,312
2708,2854,-6847,-3771,-562,1758,743
2709,-3030,-7540,640,536,281,-1011
2710,5993,-4750,-5469,-176,557,1263
2711,2554,6272,-6341,243,825,329
2712,1166,1690,2982,-772,364,-1684
2713,-4330,3410,3747,-591,1026,1434
2714,-911,-5646,3812,-1850,665,-1393
2715,-1312,-624,-2176,-1144,-648,1742
2716,-7644,1552,2705,824,-1774,1830
2717,-6346,2828,-101,1626,1596,-1739
2718,-5523,-7534,-1158,-1450,-362,357
2719,-901,768,243,-1663,1666,-721
2720,-7290,5167,6296,-1150,-1313,-183
2721,1765,-4652,2264,850,-1854,1497
2722,6584,7952,-6586,-1325,944,-869
2723,-3637,5158,7879,837,-323,1514
2724,944,-6254,2535,-1760,110,1667
2725,7838,-5088,7955,-1490,1169,785
2726,4493,-2790,4170,158,-1638,-1521
2727,5358,1069,-1151,491,1035,-334
2728,-1510,338,-6917,-113,-680,-1038
2729,-6443,-4609,-4339,-1697,1188,329
2730,-2132,-139,7189,291,1454,1001
2731,2270,-4325,-6781,1062,-436,320
2732,-7814,-715,-5799,-1463,71,-1339
2733,-7443,5175,-3450,-1283,-1478,-519
2734,1432,-3693,606,-1626,1667,1623
2735,4199,-2285,-6707,1630,1755,-1779
2736,6148,6103,2271,-1215,852,-1048
2737,-5179,-7813,1412,1709,-625,-772
2738,-2560,-1617,7846,-720,-730,-437
2739,4123,2509,-3541,1455,-264,396
2740,3,-3500,4629,-1278,-780,-529
2741,-121,4042,5195,1478,-390,328
2742,6303,5686,-7426,1880,400,1860
2743,1220,-254,-6435,351,-1001,-388
2744,4683,-2622,2450,-222,-1585,-279
2745,1849,1394,3076,-19,-779,149
2746,7670,1070,-2066,-263,170,1532
2747,3783,5571,441,25,773,1786
2748,3162,7502,-2800,-1295,514,891
2749,-5636,-7444,-6056,1831,-1829,196
2750,2546,15,-3436,388,-612,56
2751,3851,-5917,5068,106,-1861,-1416
2752,-1178,-3930,5856,1412,1223,-8
2753,1487,7849,5363,1754,1624,216
2754,7829,-7073,-6692,-1897,860,645
2755,-6973,3795,6796,-1973,692,268
2756,-4802,4198,3556,-486,-1340,647
2757,-1175,3927,925,-1952,1277,-714
2758,-3431,-1265,4785,430,244,-820
2759,-5891,-4158,-1896,1956,651,1878
2760,-7698,5527,-4585,1528,-843,1414
2761,-1627,3324,791,-1575,-1650,1198
2762,-6766,3221,-3210,-1977,-287,166
2763,-3990,256,-2792,803,1967,1958
2764,-2619,-2076,5474,-239,-268,-1021
2765,7863,1797,-4595,-326,1379,-1840
2766,1335,6075,4408,-747,-1284,1184
2767,6298,4354,-6090,-1992,252,-1206
2768,2932,-7099,4977,-1491,-999,1294
2769,6003,6187,7427,1307,1168,-19
2770,-696,-2604,-7019,-1738,-1782,1629
2771,3620,-3812,-6280,-1083,-762,646
2772,-6338,2835,-462,-1512,761,435
2773,7651,7111,-2256,-1713,120,-1544
2774,-2887,-635,1339,524,1277,-1229
2775,-3635,4261,2399,-37,1230,870
2776,3882,-417,-7808,196,738,114
2777,-7125,2513,-2508,854,403,-1586
2778,-6328,4537,-687,1192,-1447,1963
2779,2041,7183,-4461,1944,101,82
2780,-5604,-4701,-1996,-822,-490,1824
2781,-6022,212,3887,136,47,360
2782,3935,-3191,5390,-1530,-812,-1753
2783,5743,4682,7046,871,-1936,1129
2784,-4836,247,1233,-484,-1726,-61
2785,1142,1721,5874,1408,-1402,778
2786,-638,7607,-1350,-321,-1654,1146
2787,2165,7148,-777,1063,1084,-282
2788,-6055,1389,7418,-313,1082,-1965
2789,-761,4787,-4222,1885,1798,-1214
2790,-4190,3981,6220,1469,74,69
2791,2206,-1759,-7425,-835,-60,-466
2792,-1871,-2444,4800,1711,1240,-1167
2793,2744,-5130,6504,830,-1773,-708
2794,-1084,-3103,2491,1351,-1312,-1323
2795,2707,-1437,4557,-64,-855,1964
2796,3641,7328,6529,875,1196,-45
2797,413,-5377,5548,-1,961,648
2798,4233,-7022,-4314,-1159,683,-6
2799,-822,-5184,-1210,824,513,927
2800,3781,5476,-2340,1886,1116,-14
2801,-5065,-6569,-6948,-477,859,-1648
2802,-2228,-528,1165,309,-181,-1931
2803,425,-7947,-2064,-1765,-641,696
2804,-7409,3620,-1882,1167,-346,1246
2805,-7050,6661,-2502,906,-735,1899
2806,1656,-7176,402,596,-1891,-1266
2807,4039,844,-1416,1094,283,1843
2808,2166,-798,515,-1042,1128,-1156
2809,6508,2535,-4621,-1784,1444,-1953
2810,-7715,3248,-1278,1020,977,382
2811,2606,5359,-6763,758,-636,-700
2812,-5609,4279,3932,300,-1271,-288
2813,1270,-1235,6816,-1805,277,153
2814,524,1438,-2852,1965,-1617,-1672
2815,-6381,7089,-737,1336,-1068,-1447
2816,-2736,-2489,3206,-1699,1227,216
2817,730,-4286,5306,1475,-1713,1589
2818,1386,4262,-2528,754,-150,-1472
2819,-3576,4086,-5165,-514,1418,-864
2820,643,6622,2520,1761,1400,471
2821,-5687,-1108,1911,1697,-1349,-1851
2822,-7060,-3639,2884,245,1778,1293
2823,6669,-1827,6651,755,610,-1172
2824,2672,-3202,-3099,-254,183,-536
2825,-473,-5814,-1099,1474,-1853,-319
2826,5111,6522,2842,890,871,1407
2827,-1193,4889,-761,1745,1875,224
2828,-4301,-4082,-6613,-761,-1081,769
2829,5948,-2868,6478,955,1896,-1882
2830,6158,2816,7377,-1969,766,-109
2831,3971,3622,-4757,-662,890,-352
2832,-384,-6927,-3791,576,-1655,1849
2833,-6706,2227,1601,781,896,335
2834,7369,-7354,3603,1412,-1210,-630
2835,-3988,264,1721,1755,-1527,-834
2836,-5460,-348,6931,837,1285,-1008
2837,3141,3989,1885,1120,-823,-383
2838,-3021,4301,-3176,-1622,1096,-938
2839,-5388,-353,-5751,39,-1735,1011
2840,2841,7828,-5296,-490,-719,923
2841,5311,2305,7550,1653,1709,587
2842,-90,1598,2916,1196,-914,-1534
2843,-6796,3312,2626,333,773,-1184
2844,5248,2648,-6210,81,-1531,804
2845,-7227,5993,-4351,1726,879,81
2846,4103,7346,7269,313,-1652,-1616
2847,-1347,-6739,5670,-1371,523,214
2848,5903,-2047,-3533,-114,-947,-699
2849,6330,856,-220,892,276,-1858
2850,5905,-2280,-2460,-436,-897,315
2851,471,1981,5893,1454,-565,795
2852,-7799,-1838,2000,1166,-964,-738
2853,-5062,5225,5996,1305,-621,-927
2854,-1372,-4562,7984,-811,-1429,901
2855,5775,-663,6852,1010,-1640,1514
2856,-2734,3384,6403,-1598,-1995,-742
2857,-4020,3358,129,164,-1458,-1539
2858,5456,1524,3342,1994,-436,272
2859,6521,3234,2793,-1036,-1823,-1042
2860,-2571,4613,-5195,1330,-1774,1802
2861,-7345,-191,-6537,-876,1414,-1667
2862,5628,4853,-2933,583,-583,-1663
2863,-4280,-1437,1127,-1226,450,1397
2864,-1411,-1644,6578,50,-955,-1779
2865,2569,-6021,-500,-1861,1677,269
2866,-6695,424,2901,-1490,-1893,1121
2867,3197,-551,7236,658,908,-1405
2868,-5303,-2140,7480,-1465,197,1321
2869,910,4148,3455,-712,767,976
2870,-6318,3050,1359,1355,1443,1313
2871,1590,5745,-3447,105,-1914,1448
2872,4017,-7557,7124,-1773,-1417,-1484
2873,1618,-7137,3910,1192,-1400,1821
2874,-7667,3676,6608,-1501,1595,-190
2875,5199,7305,-3894,1146,-1454,1768
2876,6829,-239,-777,-370,627,-1228
2877,175,6413,6111,-964,1578,1148
2878,1275,1435,6590,1896,874,587
2879,4310,-4849,-3957,-1973,1848,-1908
2880,-4254,4170,-6096,81,1117,1425
2881,-6720,-3825,-5653,-1683,-1080,960
2882,4364,-6455,-5125,1632,724,-1357
2883,4819,1029,-1626,-657,-1332,1211
2884,-4573,439,4942,-1207,-1042,-381
2885,-7356,2606,-3250,1559,1680,387
2886,5699,-5388,6181,1763,1566,1728
2887,1588,4845,3303,1505,1810,-221
2888,-5941,7507,2651,1681,307,1449
2889,-7128,5399,-432,-232,284,-1766
2890,-596,5994,-6052,1623,1689,-402
2891,5498,2020,-6483,1573,-1616,-340
2892,3473,-5411,943,586,-901,-1250
2893,3562,-437,3695,1214,31,1889
2894,-4875,4480,7997,1699,322,1727
2895,-3722,-6537,5792,1675,1198,-1389
2896,4651,-6874,-2545,1457,159,1987
2897,-7432,-5624,6488,-1692,1921,1355
2898,7217,2334,4323,1834,-1452,-131
2899,-2948,-660,94,-1848,-156,-1882
2900,3286,6968,-3423,-659,425,-1164
2901,6423,6645,2992,-635,1125,94
2902,2114,3908,-7318,-166,-1227,948
2903,3769,-118,-6660,1450,-1507,273
2904,-6618,-7307,6967,-1401,542,196
2905,1098,-183,-4957,220,-1796,287
2906,298,-4003,-2046,-1136,-1337,759
2907,-1018,-1382,-3474,-315,-271,-1140
2908,2390,-1696,1681,-1243,179,102
2909,-4979,-6572,3885,1250,-1789,42
2910,472,-5794,-1392,-1265,211,-1640
2911,1049,3967,3505,-1268,1964,-9
2912,397,-2980,6811,995,-1465,-1219
2913,-4069,-6742,2375,1603,-442,-874
2914,7058,-6707,6954,1788,377,-1535
2915,-3670,-7390,-1193,-1116,145,-1011
2916,2386,-4283,-6166,-428,-673,1573
2917,-3633,745,-2012,172,921,173
2918,-6395,647,4724,-823,-372,443
2919,-5631,-5516,6126,-113,-1680,-983
2920,6249,6706,2476,-940,1450,-1760
2921,3985,1046,-6631,-1981,-266,1272
2922,4911,-2856,3780,-1829,-204,-824
2923,435,4688,-2157,52,-1335,-338
2924,-3124,-6128,7761,-145,-1931,-1640
2925,-2965,-4420,-3080,-10,568,1488
2926,-2415,-6509,-6595,-708,-6,1874
2927,-6571,-1567,-4124,274,235,1688
2928,5887,7052,-5923,-848,611,46
2929,-7102,1374,349,1079,-1606,-1264
2930,6132,3999,-2722,921,1814,-17
2931,1589,2199,6583,-1042,-208,573
2932,2321,7,-2215,1486,39,-352
2933,-4231,4220,6494,926,-1610,86
2934,4272,-7964,6721,-712,-1655,-1266
2935,1589,-2414,-4392,-433,1512,-558
2936,91,1361,-6930,1239,914,1796
2937,-5419,3038,1900,-1829,-504,1172
2938,-7433,3165,-5790,-811,1893,-336
2939,4237,-670,-573,1558,-1370,1662
2940,-1460,-1193,4302,-103,-197,-1480
2941,7346,7756,-4934,-603,1178,-381
2942,-1530,-4622,-6394,250,-1896,479
2943,-2748,1065,1688,1840,-665,1362
2944,2812,-4392,-3475,1853,-1880,740
2945,-6312,2224,411,1950,-1064,-1949
2946,-1959,-6932,-533,-50,1706,-457
2947,1493,5307,3838,-369,-1634,303
2948,2252,5417,-1005,1138,-29,-321
2949,-6662,-6439,7031,724,929,-1645
2950,2883,-4877,-6585,413,1175,1195
2951,5502,-7390,-6192,896,-599,1414
2952,-3813,7852,2264,-277,-1634,-1949
2953,4867,6866,3971,-867,853,208
2954,-4544,-1728,6325,388,348,1864
2955,5199,-2756,-1296,930,-1465,543
2956,5757,-328,2605,-1806,1985,-1670
2957,3137,-1046,-3563,1235,771,795
2958,2782,848,-3262,83,-863,188
2959,-984,-282,-2842,-178,-635,896
2960,-2153,-2374,4109,-784,164,-1924
2961,2647,-359,5633,1390,-361,1560
2962,7826,3139,372,415,145,1486
2963,430,7346,6825,-1081,-1778,568
2964,7456,7124,652,-1473,-797,-875
2965,-4225,147,-6522,1796,-912,-882
2966,2145,4430,422,1478,60,12
2967,-4603,6616,-3949,-1558,482,-440
2968,5391,1719,-6572,684,-363,1147
2969,-2075,-1807,5062,-1599,737,-161
2970,-5256,-7474,1837,-1619,-1402,-1175
2971,-951,4215,3562,1969,1605,-989
2972,-7897,-1820,-5093,-957,-475,-319
2973,-5477,-1780,5247,1993,1542,-1449
2974,4439,-2033,1287,-447,-1559,377
2975,3924,-694,-6007,-909,-623,914
2976,3658,-524,-7004,701,-982,214
2977,-5253,-6238,1281,-1193,1917,156
2978,301,-2607,2870,1381,-1308,-388
2979,-4618,6937,-7941,77,323,1290
2980,4201,766,-6953,770,1675,-477
2981,-412,-348,4344,373,-112,-1247
2982,6495,3110,5243,-729,-46,-1686
2983,5318,-625,-3125,535,-1722,-1133
2984,6417,-4876,-7198,1433,404,-447
2985,3308,3693,-767,646,248,679
2986,2285,-7251,-5823,1078,576,-723
2987,-6374,2231,-7423,1533,618,1731
2988,6013,149,-7521,-1731,175,-1273
2989,-6589,6804,2401,-522,-853,-1714
2990,728,7224,-3897,1213,135,-1354
2991,1772,2393,-2404,-1775,1970,-1319
2992,-4290,-6251,-7814,-1499,874,-1060
2993,1870,-2390,7916,1013,-266,1285
2994,-4841,-3874,-1062,-1092,172,-1021
2995,3868,-4362,-6106,-562,-206,-1006
2996,-2664,3235,-3300,-1385,1810,-1863
2997,-5557,-7631,3258,-1482,-530,-130
2998,7719,-2816,-7487,1852,331,924
2999,-6932,7443,4605,-87,-1337,-503
3000,-2983,-6481,-3474,647,-1048,633
3001,7681,-3291,5245,-713,1734,893
3002,7632,-5521,-6991,1858,-833,-373
3003,5264,-7742,3215,-809,-698,-176
3004,-2204,5345,754,456,1525,1848
3005,-7380,6306,-2229,76,195,432
3006,4013,-6196,581,-1535,1373,-98
3007,-7676,-395,3205,1281,-1706,-1664
3008,2561,-2707,3008,-1822,-1764,558
3009,-1932,-2136,404,573,-1047,-911
3010,-179,3000,-5366,-726,-1788,1531
3011,-2250,2528,-3042,-690,1824,-1228
3012,3926,-6614,4761,-954,1930,-1725
3013,7027,2852,-6669,458,-1581,1303
3014,231,7802,-2774,-310,-1130,-3
3015,-908,-7205,-3746,-1602,-1574,398
3016,275,-1365,-4954,786,873,-259
3017,-2695,-5635,-5323,-1900,1285,-913
3018,130,4415,4867,794,-1477,-538
3019,3606,-4913,-4912,-1703,1955,-247
3020,-7080,7387,-312,-1241,-980,-1658
3021,1404,2162,7205,-1190,-1709,1772
3022,3366,398,6294,1811,1686,216
3023,-6551,-7196,-3827,-1314,747,-1216
3024,7980,-2146,2432,-1395,-344,1011
3025,-1971,5485,-7311,1191,1518,-1153
3026,3540,-3873,87,1265,159,186
3027,-2339,-3551,2224,-1527,-762,543
3028,480,2814,-7611,1995,-1432,-1965
3029,2876,4457,-2578,588,1002,591
3030,-6693,-2588,-4038,376,929,542
3031,-7213,7151,459,-1001,1986,-1838
3032,-5946,-7091,510,47,1126,-1749
3033,1307,-4960,6337,-883,916,1699
3034,-1412,-6412,6981,516,-1473,-1498
3035,-2031,-1488,-5378,964,1842,-1745
3036,-1788,1169,2040,-691,192,1502
3037,7946,-355,4425,271,1508,-344
3038,-3949,2160,-2397,573,1300,1240
3039,5038,3368,2413,1395,475,1004
3040,5250,-7448,-2266,-1627,-624,1721
3041,1198,1092,7300,563,-1047,-1405
3042,3030,1631,4123,81,-1744,-802
3043,7776,5349,-4348,1718,1287,-1743
3044,2072,4635,-6417,1063,1729,1989
3045,-3102,-5382,4144,-1298,1921,-1910
3046,-3463,-4289,-7091,-1312,984,-764
3047,-5899,5553,-3277,844,538,-127
3048,-6422,-1553,2373,346,1482,-645
3049,-1801,-364,3181,-32,-909,-181
3050,-2974,3879,1108,537,-405,1251
3051,-7882,-7268,-5760,784,-685,-472
3052,1141,-6552,-4755,444,-1282,-1927
3053,-1207,1798,6914,1275,-433,-987
3054,-4400,7812,-2458,-63,499,-417
3055,4630,-4493,-2493,-1685,284,-607
3056,5472,-5374,-2384,377,-1741,233
3057,442,-79,7767,-1969,-397,1036
3058,4277,3449,-7289,-656,1729,-1248
3059,1888,2580,5760,-51,-519,284
3060,-7032,5315,6811,1657,-1368,-260
3061,4464,-5118,-3842,-1718,-1098,-803
3062,-7656,1544,-4708,1244,-744,1052
3063,2079,-4029,2977,-1230,-920,-644
3064,-2649,-7855,2943,1051,-1334,-578
3065,6504,-3324,-4173,-848,-1052,-1861
3066,-2346,-2569,-871,-1201,1311,1017
3067,6648,-391,-1649,-1936,430,1904
3068,7023,3572,6543,230,1126,-1551
3069,792,-1508,4445,-1121,77,670
3070,3532,7,1379,649,-1841,-1711
3071,-1884,1151,1192,-1120,-1683,-1134
3072,-1351,-2231,-4815,-642,-1382,985
3073,3716,7716,5571,-668,1368,-1034
3074,-3685,-4951,5848,1403,1935,-1222
3075,-6625,4491,5666,-1680,1365,1972
3076,-1471,3214,-3189,1105,466,-1607
3077,6223,-4211,595,276,1436,-621
3078,-621,4989,4457,-1489,-1182,1644
3079,2610,-736,7421,180,-934,-1224
3080,-4342,-3334,6997,-1354,-1974,-286
3081,-3283,-3755,-2081,444,-864,524
3082,3186,1987,-4215,-1601,1218,-745
3083,-1867,6626,5526,1438,-376,352
3084,-3612,380,-7818,893,1162,1264
3085,174,6540,3969,-441,925,741
3086,-4331,3795,3010,314,-1398,731
3087,2891,4783,-4438,-1711,-1467,304
3088,-6011,6673,-6995,220,-1399,-305
3089,-4915,-2223,-7325,1022,-444,1296
3090,-4623,-2839,7277,26,-160,-1591
3091,-4172,3437,7194,588,-358,13
3092,-6087,-7353,-5614,1905,-1623,1426
3093,-4087,-7884,-1027,1924,-1282,-867
3094,-6387,3976,-6176,-1365,-595,1872
3095,-742,7070,3017,-3,-44,572
3096,-181,6632,-3322,-138,1941,-1380
3097,-4803,3227,4818,1256,112,-1889
3098,7503,6346,3568,947,-1231,1843
3099,-3332,7679,-5069,275,1842,-1570
3100,-4363,1201,-6995,-1097,1914,-887
3101,-6890,-7670,-1990,579,1922,524
3102,-4096,-2237,7741,1000,-942,-1724
3103,5306,-383,4366,1130,-1772,517
3104,-4360,6874,-3521,555,-1049,1104
3105,-1333,-4549,4992,-1245,1030,-840
3106,3911,-2970,5751,1893,-1119,261
3107,7176,2271,-7181,34,452,-1493
3108,-3955,-911,1619,-1389,-1546,1695
3109,-7512,3539,7520,401,250,-1483
3110,4590,4750,-5306,859,-524,-97
3111,-1329,-5182,6361,-272,229,130
3112,-1983,-2320,5633,-141,187,-894
3113,4708,7717,-533,-774,1709,166
3114,4917,7180,2342,-130,-847,490
3115,-4068,4679,1859,1625,-1212,472
3116,4665,1510,-7355,1476,217,-575
3117,2103,-7101,-2737,-1645,1443,-1580
3118,-2926,4532,7527,-868,-1028,1463
3119,721,1366,-4408,-846,-1419,1922
3120,-6204,-4864,1142,-1305,897,-1806
3121,1143,-2096,-1255,-1210,1352,-854
3122,-6133,4891,5701,-1825,883,692
3123,3646,6100,6094,-1371,1150,-403
3124,-633,5372,-3950,-1463,843,605
3125,1195,4619,-4851,-1173,454,-398
3126,2838,-608,-2360,874,-965,1153
3127,7033,-7582,2803,980,-508,500
3128,-5105,7297,-7734,1726,1784,-1172
3129,-4592,-6270,4738,1427,-1110,-237
3130,7948,-2259,627,-1300,1381,-1626
3131,6774,1865,331,-732,-641,-1172
3132,-130,2531,-7825,1351,1917,-1974
3133,1092,-7972,-5741,-1967,-1041,-388
3134,3364,5115,2351,1210,-738,931
3135,-3034,-1326,7309,374,-806,-800
3136,-1804,-261,-6679,-1938,-776,1587
3137,-2384,5632,7152,699,-1106,-104
3138,5034,-2769,6090,-633,-402,122
3139,-1109,4498,-4759,-1376,592,-880
3140,-1648,-5488,7249,243,1083,-83
3141,2170,-3679,-4387,-250,1762,-1093
3142,1071,-1783,4983,-119,-1454,1437
3143,-7492,3742,3310,-1337,1484,887
3144,2591,-7896,7400,1459,-25,816
3145,5243,-4969,-7808,-666,906,1308
3146,-6330,-6694,6492,1403,-918,1471
3147,-2963,2713,3647,912,-1882,-1967
3148,-474,175,-2453,-1335,-203,-1946
3149,-7680,-2753,-7877,-906,-172,426
3150,-3737,5747,5359,-494,1690,685
3151,-1029,3505,7871,172,-1284,-442
3152,5628,5550,-2033,422,-45,1732
3153,3592,-1025,3819,-1146,1717,1174
3154,-1974,2557,-149,1071,-673,1703
3155,7406,-1528,-2396,-909,-1733,812
3156,-5720,-4914,-6409,-1134,-1893,1384
3157,-5051,2913,-7858,957,1692,-1979
3158,7590,-3431,-7013,1658,1328,19
3159,-7722,-3352,-1528,531,1428,-1959
3160,1282,-920,2007,-1513,1745,1043
3161,3942,2290,-429,211,270,-1781
3162,-1239,4772,5819,309,-831,-1006
3163,-3211,2965,77,987,-1893,282
3164,4443,3051,-1206,-604,-1488,1364
3165,2546,7050,710,-62,-1095,-1991
3166,4494,-816,-4416,-1354,1313,-969
3167,-4046,733,6465,1074,-1451,294
3168,-240,6498,7680,1072,-133,-1015
3169,-4619,7893,4044,-598,-1713,1909
3170,-2858,-1925,-6366,-814,-1922,1262
3171,-3000,-5430,1507,-647,1150,1523
3172,1831,-3049,-6245,-1762,-1955,-1229
3173,-3614,7156,-343,-1323,1698,1574
3174,473,-376,-4462,729,-1673,802
3175,-2784,6858,-7220,-1530,-1153,-544
3176,7712,-4832,6699,474,1390,-1256
3177,1391,-2396,-4213,-1635,-1771,-1160
3178,6146,-6310,4654,-1965,-287,-720
3179,-6978,-5364,-1359,-32,-1946,639
3180,-1452,7763,3371,-1606,-1039,-312
3181,4766,-952,6903,887,1478,-390
3182,3964,-1291,-6961,-468,1915,-857
3183,-5756,-7189,1695,193,-102,-765
3184,-4364,5209,4527,1962,446,1510
3185,-6428,7542,-7524,512,-197,-1873
3186,-5248,-469,-7063,161,1471,364
3187,2541,7210,6691,-618,74,-1299
3188,482,-4228,7452,-332,1633,-1663
3189,4390,-7776,-3819,1095,-1437,-1558
3190,4511,-3896,-5560,-1081,-1316,1453
3191,-7288,-277,277,231,701,625
3192,-714,-2486,3643,-1065,-1832,470
3193,-7799,2644,5245,-1649,-799,-644
3194,6670,-6096,-1533,834,1512,-1995
3195,46,-2561,-5442,-1937,-1977,1538
3196,3040,3253,-6662,-323,-1863,-1758
3197,4107,5094,-6531,-1343,313,73
3198,-1952,-2380,-5259,-1095,-1352,-700
3199,-2695,7095,-1748,908,1426,94
3200,1115,-5284,-6993,1950,-972,735
3201,-2145,2628,1521,1314,21,1497
3202,-3726,5302,-4766,1538,-1219,-600
3203,3113,3666,3456,-539,592,-633
3204,131,-4951,2948,-1822,1173,-1944
3205,7048,-1645,-7365,1122,-447,-1624
3206,-2848,-6913,-964,512,-1329,-1917
3207,-6497,-4927,-6164,-103,-1616,48
3208,-5071,-4094,5884,1474,1930,-910
3209,5540,-3005,5752,-667,1989,-521
3210,1389,-5197,855,1403,-682,-1523
3211,-7001,-3504,6638,275,1425,995
3212,3951,2656,-1784,1110,-1011,-1737
3213,-4752,-3033,7104,1338,-6,357
3214,-6824,664,1472,1534,707,-1120
3215,7079,-1658,6107,830,1750,-1225
3216,-5740,3256,1263,1763,104,697
3217,2299,-4808,3519,1544,1001,575
3218,322,616,-3426,1327,-490,1234
3219,-1858,-3896,4980,-147,992,1765
3220,-5182,6762,-6661,1442,-1919,-45
3221,-4343,-6015,-5711,1879,-25,-202
3222,1846,6700,-7807,-1420,-1008,-1357
3223,-5919,-805,-6579,494,-192,1706
3224,-7614,-1073,-1450,1564,1727,213
3225,-2810,7793,5263,1196,592,237
3226,5863,-1220,-2927,-705,1333,-1522
3227,-107,-2450,2055,-322,-749,411
3228,4800,7900,-4219,-341,440,976
3229,3180,6036,-3282,-1068,486,-1468
3230,5804,-475,-5526,-1192,1207,-601
3231,-7880,7033,5098,1629,303,592
3232,-7764,-3706,-5376,1888,-1516,52
3233,5843,-2171,-6791,-692,-1971,1397
3234,2194,793,-1527,143,-1298,-608
3235,6879,857,-4988,882,-1669,-954
3236,4854,-7153,-7243,1575,-546,281
3237,-722,-93,4377,328,-272,-404
3238,-3691,1239,3666,-1794,-1887,1737
3239,3416,6196,-2424,-1602,-1442,-9
3240,-1910,-4926,819,626,638,1081
3241,7377,271,2091,-1434,-1196,774
3242,-2790,3144,3106,1573,-1288,325
3243,1969,-305,-5382,-870,-558,1186
3244,6765,-3073,6670,624,74,10
3245,-2684,-1051,-7845,1042,782,443
3246,5102,5634,-3632,-167,1989,-693
3247,-298,-3581,5961,-1070,491,1969
3248,-1016,-7149,4216,1231,681,539
3249,7530,7334,7684,-230,1482,-1644
3250,-6897,6257,339,1427,-819,1074
3251,-659,-4805,2685,-1704,-259,1884
3252,7856,-4148,-5377,-259,1705,-1778
3253,7119,-4691,6700,-939,891,544
3254,5645,1791,7179,1695,1508,12
3255,-3372,-7015,3475,-1915,-1724,-1969
3256,3599,-3410,7582,-1325,-299,-88
3257,-7372,2206,-3392,1576,-25,-124
3258,-7077,-6272,-199,1191,1113,1368
3259,5930,7749,-6310,426,259,-368
3260,-7738,-5902,-7706,1567,960,1879
3261,4134,1361,1464,-272,-1324,602
3262,4082,-5526,-3585,-1102,-1335,-1690
3263,3622,-2589,-32,-1883,-1173,695
3264,655,5229,-2254,1441,-1820,1211
3265,-750,-6000,1040,-1283,840,1518
3266,-5256,5387,5843,1239,-1403,1041
3267,-975,2914,-41,-1718,1873,1024
3268,198,-7291,4733,1014,-1686,1748
3269,1534,-798,3264,-188,1987,-1559
3270,462,2108,-2876,-776,-1551,1235
3271,510,-72,-1475,225,252,-236
3272,4402,-5982,-2703,1115,-275,946
3273,1251,-4001,6473,-1162,1798,-297
3274,-3665,2927,3859,802,566,1062
3275,-3253,-2348,1935,-718,836,-1188
3276,3308,2865,4039,320,-1367,-1834
3277,6845,-1593,-345,-1786,-1094,-259
3278,2586,-5794,-7494,1215,817,-70
3279,-5709,-1750,7009,-1169,508,1075
3280,-284,-6853,-4060,1251,-673,976
3281,-3932,-1374,-1421,1892,646,420
3282,6946,2808,1447,-1768,871,1310
3283,-3679,-5531,-4185,-171,-1811,-129
3284,-4793,-3501,6475,1370,186,-1184
3285,-3822,7056,-3451,-1216,-46,-1889
3286,-4128,1469,-5637,-164,941,-1139
3287,-3708,5129,2351,1567,-282,-258
3288,-2837,580,2457,-55,1564,89
3289,-3919,4864,-37,-751,-853,684
3290,1882,-1495,-591,-1089,-1919,-1717
3291,1231,1760,-3994,1291,1355,1344
3292,6847,2268,3913,-1566,-1815,99
3293,-1138,-7203,-7741,-906,1612,1485
3294,-2593,6768,-7943,-1587,390,-1914
3295,4043,-5255,6473,-660,1397,801
3296,5834,-3282,6086,-1853,-267,1288
3297,5182,-1807,-6621,-1429,1743,1850
3298,-1988,5213,5291,1584,-338,-563
3299,2308,-764,-7962,862,-1271,-1284
3300,-6629,6855,-3629,-1316,-715,21
3301,-5674,6040,1904,248,1559,1798
3302,-5136,1288,-2161,-494,488,137
3303,-7598,-7002,-2359,1783,-1435,1004
3304,585,-6339,-5324,1615,-1107,860
3305,2759,-1194,2840,-781,-764,926
3306,-2888,-3141,2518,-542,151,1709
3307,-4741,5910,-3739,-1860,-576,1311
3308,3876,-3404,7155,-622,-75,-326
3309,-1853,-5653,4232,853,-813,1058
3310,3848,-6598,1677,-1255,-1094,656
3311,3709,5726,-525,-1532,-581,-67
3312,-5474,4310,6897,-160,-1183,1141
3313,-1454,4726,-1730,-1435,-1205,1970
3314,5191,-1699,4673,-394,1438,-1264
3315,-4816,-1271,-7078,-118,-587,497
3316,4921,-2731,2484,-1684,-543,430
3317,1833,-7672,5189,1418,-269,12
3318,9,-2577,-4844,-917,772,571
3319,-3518,7021,1678,1648,-1972,1552
3320,1009,284,5021,-86,-1723,1151
3321,-95,6802,-2053,-998,-762,-215
3322,586,-3820,-5667,-468,1395,1214
3323,-6912,-5473,5272,-1511,-973,1650
3324,-1945,1247,-4968,-1772,1910,416
3325,7377,-7778,-7558,540,-269,-607
3326,6195,-3164,3890,1373,-1302,-623
3327,-7049,-1456,518,-925,-1276,-1568
3328,5479,280,-6662,-800,1149,877
3329,5959,450,-6111,-1450,-969,-576
3330,2731,7409,4198,1259,518,1682
3331,-6815,39,-7202,380,-777,1937
3332,7470,4696,4855,1433,996,-877
3333,-1535,-4699,7178,-125,-1370,-516
3334,-6314,4490,-5769,1446,-912,-121
3335,-381,-3013,5275,904,-270,774
3336,-3793,-653,1484,448,524,846
3337,1079,-1769,-7705,374,-1510,131
3338,2273,-2826,1870,-743,-726,-1879
3339,4508,-1924,4783,-1255,1866,602
3340,-6368,2486,3778,-349,1342,1015
3341,1396,600,1188,1387,-1601,335
3342,1325,-7860,-263,1901,-1410,1870
3343,-5838,-931,5181,-799,-1961,59
3344,-1583,-2567,-5718,-235,-346,1635
3345,-2944,4629,-6791,1076,1332,-697
3346,-339,7812,-3337,480,-1895,-1244
3347,-3607,-7956,-782,1883,-1731,-179
3348,5481,-5768,-744,953,-1370,-1563
3349,-1383,7590,-2642,910,969,-771
3350,-2684,761,-6327,-1530,1660,-1235
3351,-3313,-262,3909,893,1210,-1633
3352,-5410,-2369,-7910,1060,946,-111
3353,6925,-7333,1309,-480,638,-839
3354,6675,4904,-714,-890,-621,-1790
3355,-6523,-7400,-6803,-1393,109,1622
3356,-3521,3735,3214,-1920,-1139,-992
3357,3418,-5334,-4698,22,-1794,1342
3358,1581,-3802,-6966,406,1624,-643
3359,1278,-4158,6126,-1229,1719,-1181
3360,1501,5317,-7962,701,-1600,998
3361,-2825,-1942,733,-565,-1189,-792
3362,446,-4225,-4704,-1635,-1630,9
3363,3560,-7952,-4135,670,211,1376
3364,-7538,7640,-1492,1575,841,1813
3365,-1239,-616,-3253,912,-1593,-243
3366,1715,1565,-5570,999,953,-867
3367,1068,-5499,-921,1741,-1031,-1261
3368,1660,-2689,5364,-884,-1962,-779
