Sample,Ax,Ay,Az,Gx,Gy,Gz
0,-7780,2366,2915,1490,-1749,1160
1,7074,-1696,3495,-950,396,872
2,2652,3011,-2895,-1026,1621,-631
3,2238,-4587,-5443,-1188,1696,1639
4,6012,3304,7875,-459,1764,1227
5,-2667,261,-6220,-1957,-633,-1793
6,6373,2514,-6498,-920,1425,1414
7,4039,5738,2430,-1832,-1431,1607
8,-6469,1456,5,1326,1919,-398
9,-3792,-3553,-7340,-299,1858,-314
10,-4986,-3422,1006,-508,-187,-1551
11,3666,-4712,-4543,1575,1970,1607
12,5337,7467,3505,918,-693,-1220
13,-6202,5604,-1197,-1496,898,-873
14,4788,-2231,-1842,1186,-760,37
15,771,-6400,-3803,-632,-1656,-1056
16,-5133,2144,-7174,98,773,-476
17,3095,2016,-4210,1895,884,-97
18,-4890,-7304,-1475,-247,495,-1027
19,-2764,-7808,-2770,381,-254,-294
20,93,765,7002,-571,-1523,553
21,-1350,-5743,7967,1857,-1556,407
22,2514,2312,-2002,460,1687,1696
23,3674,6536,3398,1509,-1854,-438
24,-1379,-1683,-2312,-43,790,-1922
25,7138,-5441,6774,530,552,369
26,4143,-7559,-5365,-1330,-58,-1564
27,-2988,-928,578,-1161,1102,-673
28,1059,702,-1653,98,1597,776
29,-292,-2541,-5959,1481,424,-1128
30,-2753,7393,-7450,1877,-870,1618
31,5439,-5499,-3333,-534,1646,804
32,1520,-7598,-5950,810,461,988
33,-2394,6344,-5976,-1337,-671,213
34,5809,-267,-899,1056,147,-1733
35,7557,5051,577,1290,282,-1726
36,4224,-2671,-864,-1619,-1270,1920
37,5831,-3959,-3670,-17,-64,925
38,7881,-6923,-6500,1772,-1685,-491
39,-4294,-6339,715,236,-175,-570
40,-833,-605,2163,1126,-1614,-804
41,1858,-7372,4670,-556,-551,-1613
42,-7866,-1402,-5513,1101,-671,1880
43,3079,-7475,-910,1104,1876,-802
44,-1824,6560,-7346,-854,340,578
45,5687,-6638,4223,-1150,1753,-1049
46,-6006,2762,886,270,-1252,-1766
47,-3517,-210,3465,-663,1841,900
48,3943,-7863,-2276,-12,1897,-458
49,5753,-5089,-2417,474,-813,1030
50,-3718,5345,-1045,1083,302,456
51,3063,-1953,-3325,-554,-1879,-1452
52,1741,-272,-262,-554,-413,-702
53,2071,815,-1426,884,557,-1930
54,4941,-4062,-5579,844,-1969,1157
55,5710,-5634,-7007,-195,1683,1495
56,-120,-1254,3521,1464,-288,-1698
57,7440,5099,3882,-501,-1119,-1677
58,6356,-3804,-1509,212,1587,428
59,-5492,-176,-263,-1433,43,-1934
60,1659,-5966,-6539,46,-1101,1461
61,5848,-2793,7973,-1116,1929,1730
62,-6526,-7732,-2753,1136,1621,-1969
63,1775,454,6175,-1645,273,235
64,-3631,142,316,575,-1236,-132
65,-6668,-3683,5281,-1725,134,823
66,-5212,5868,2321,1266,-1558,1863
67,-7414,10,3824,1345,363,-1490
68,2771,-1631,-4237,-1658,-1144,198
69,5486,-6662,-111,-206,1863,-1259
70,-7289,-4343,-5727,119,185,-1019
71,-1752,-7254,-7734,-1372,-1986,-1443
72,-3310,6009,296,-1895,-1050,1023
73,1437,498,-4301,691,1154,369
74,-5896,6914,-1625,-1739,-1168,-1757
75,-6642,-2259,1367,-1831,-1438,-1037
76,-1286,1802,-7142,-934,-1058,-1885
77,-3968,-2309,1558,119,-1359,785
78,-5837,3353,6511,-1223,-1755,-361
79,-7794,-5456,-6509,1442,1266,-730
80,523,3367,6976,-1330,296,1489
81,6985,4207,-3908,140,1148,-1707
82,-7248,-5348,1683,-1616,1402,-1324
83,-883,2034,7475,772,884,-1311
84,1264,-3091,4081,-1221,-1083,-990
85,5308,3366,1046,-224,-248,-494
86,1230,-4827,-7683,906,-912,-1950
87,5532,-6982,5481,-1172,698,89
88,1273,-2139,3803,1311,421,158
89,-7027,3883,6930,-1202,1570,-90
90,3494,7894,-7999,1534,-1976,810
91,-1165,-7684,2891,-1868,1409,570
92,-3365,3156,851,-44,65,-10
93,7137,-5482,-3981,1147,-1522,-1706
94,518,-1415,-2228,-1460,-71,475
95,1320,-3065,-7556,-453,1885,1879
96,5430,63,5490,1182,-1174,-1613
97,-7013,4522,4659,789,-872,-12
98,4502,62,-6685,190,419,-1720
99,-1489,-4138,6878,1031,607,469
100,-4388,-1163,-204,-1478,1716,1976
101,3589,6319,-3192,-1685,-689,167
102,7299,-2943,5370,947,-1252,-532
103,-3065,7216,-2765,1876,-236,-1146
104,-2411,-6288,108,-1874,-621,1044
105,-5904,-6390,3340,1043,1475,-1608
106,6660,-1243,-1699,1020,-1811,-1018
107,-435,3794,1785,579,-1795,-1034
108,-4562,314,-7625,-1842,-440,237
109,-3110,-7770,-4722,1580,-1607,-1444
110,-2091,-7479,-268,1722,-1075,-1923
111,-7629,-1072,3801,-701,-1673,1923
112,7807,6024,6583,-1282,-682,918
113,2704,-4982,1408,-357,-1299,1384
114,2610,-3547,4696,1566,-1511,-1165
115,-2201,4917,-5823,-913,-1131,1884
116,-1293,-909,-7294,1750,-234,-1628
117,-6880,4371,-232,-826,-427,-642
118,-6006,4631,4631,1706,1213,714
119,-4689,7152,-3619,-927,1038,-1184
120,-5215,1194,3086,-618,1814,-541
121,4710,-1902,-7571,-1679,-426,-38
122,2900,-2940,6275,244,-1302,1657
123,6444,-2050,3355,-1818,533,-1251
124,-1636,920,-6115,765,1626,-1466
125,-6328,124,-159,-1682,-790,113
126,2619,-710,5777,-347,803,1522
127,2802,3177,2947,980,-904,195
128,-5225,4364,-5314,303,326,-164
129,2985,-745,1162,1751,-1023,1847
130,-6265,-6106,-4645,-1701,-256,1493
131,-3505,-3740,-4648,1768,311,446
132,5332,5823,-7977,1739,-872,-1597
133,2553,4419,-5653,-1602,-1885,867
134,5267,-1985,5958,303,1230,87
135,4551,-6612,4544,-1199,-1134,1699
136,2524,-2718,-2595,-710,914,417
137,7498,371,-2038,722,742,-352
138,4320,-4196,4000,-1118,1321,-1214
139,-3198,2522,-6414,1076,1877,-1723
140,-4803,5328,-6518,-1852,1261,-467
141,-6403,3041,-6531,1315,1994,-41
142,3249,6153,1742,730,487,1395
143,-2715,6819,-6949,-1279,507,1626
144,552,5135,2731,229,-55,395
145,-4658,-143,-6832,-45,-166,-39
146,-2217,4409,-6421,-277,1001,-559
147,-1174,-6951,-5184,-1411,996,80
148,-634,1826,5793,-1268,-963,-1869
149,-2369,6423,-5070,1635,-1868,433
150,913,2332,-450,1418,-1478,1602
151,7493,-6794,-7774,775,1108,-1973
152,-5875,1462,3798,606,227,1421
153,-4425,361,6977,1841,-1422,-216
154,6121,-4831,-7189,886,57,-293
155,5711,-905,5276,-88,-996,921
156,5975,-6605,5857,1732,1997,-1767
157,-1535,-3538,1453,-1362,17,-827
158,-7099,7441,6222,-239,762,643
159,2185,6849,-6891,511,-1628,-107
160,-1335,-1728,-1718,1121,451,-90
161,3242,-1545,1419,352,1171,-1186
162,-476,-3614,-3819,5,-459,1804
163,-3249,-365,1191,843,-1656,1102
164,7327,-769,7813,-1916,-774,-835
165,477,-5455,-4498,-781,-532,-28
166,-7810,5785,895,-1450,-1302,-434
167,762,-7393,4398,52,1575,119
168,5284,3616,5262,1809,1012,-251
169,4230,5665,-2715,1431,1460,1921
170,5300,-3251,811,1689,-517,-977
171,-6042,2615,-4581,623,-350,-1729
172,3878,-4725,-3146,344,-297,55
173,-7804,-2831,1940,1865,-1072,-965
174,-1409,6280,1360,1020,667,571
175,-6760,-6968,1520,1138,-1644,-1272
176,-3504,-1584,-1749,1104,-1925,1419
177,48,-1619,6078,1002,1886,1321
178,4221,2187,-1371,146,1900,-1518
179,1415,7669,-4982,1958,1114,405
180,1692,1287,1884,-1347,546,891
181,3718,-5834,-2191,35,-1984,104
182,4550,-6101,5030,71,-1832,-1043
183,-803,-5947,-1249,685,1346,-40
184,7918,-7219,-7592,1102,1153,1554
185,-2059,-7545,-5998,595,-1855,-1527
186,-3495,6701,-1081,1410,-210,-385
187,3395,1408,4745,1274,-1605,1402
188,4795,7152,-1022,-1999,-385,-978
189,-6539,211,-5307,580,1764,-135
190,2297,7246,4221,1043,-1111,-546
191,3772,1160,-1536,339,1040,189
192,6285,-6024,-1022,-485,-630,1898
193,-5414,-5969,-85,-1163,-961,-1062
194,664,-7278,-1840,1844,-889,1476
195,-2296,-5378,-696,-1814,1134,1300
196,3676,4158,-6720,-1721,-1829,1603
197,2881,871,-1980,1501,-50,389
198,-2811,-2336,-7898,919,-1900,1574
199,-3331,3724,6078,-468,-1117,1807
200,2178,-4876,2250,-1351,985,1370
201,-2990,-5151,-1192,865,-1743,468
202,-3320,-3215,4922,-693,1420,-1874
203,-5510,2937,-1280,972,177,1046
204,3324,931,-2579,-1282,812,-1604
205,5592,-2225,-5377,-1443,1671,-602
206,950,-629,-920,309,32,566
207,1507,1212,995,-1464,-352,-637
208,-3685,-4990,-5268,-703,1661,-1144
209,-4887,-1256,-1710,1147,-968,-189
210,-6600,5328,3029,-335,16,1372
211,4626,6861,4634,660,1403,1137
212,3132,-3937,-4606,1074,-378,1889
213,-5617,-1453,6463,458,-1447,1103
214,-5373,-82,-3118,-371,1573,550
215,-5799,-1837,5276,1492,573,-1248
216,4273,-2470,3191,552,-337,-260
217,-3299,-7955,-156,52,-781,-1421
218,-7480,-600,6616,-1948,407,-457
219,4104,-1964,-774,43,1553,-1710
220,735,-5869,7887,-679,17,1932
221,5872,6125,-137,-1577,914,-1379
222,-2356,6761,6473,-1759,505,-639
223,2375,3035,-3946,-419,1058,-353
224,5189,1196,2749,-134,845,651
225,-4263,630,-3936,882,1953,1474
226,-1435,5630,-7901,1895,-462,-827
227,-3010,2086,-4918,657,1649,-158
228,-2796,-3952,-1324,1253,201,-856
229,-3102,1954,3275,600,-1417,-380
230,7153,-6667,-2826,35,1929,-1345
231,4357,3375,2631,1143,-961,1596
232,-5127,6897,4158,1618,1015,-568
233,1731,852,-5008,-333,1048,-1081
234,-2029,6458,3955,1500,781,484
235,4253,-4478,-1099,-859,-612,-7
236,3886,7619,-5284,-674,-1403,-488
237,-159,-7150,503,-1420,1030,1651
238,-5683,150,-649,1336,-412,720
239,-4162,4038,4800,-606,512,287
240,4417,774,-3179,1999,-667,1460
241,-7282,-6124,-7125,-155,-1612,-761
242,2467,-4771,-777,1398,-268,1439
243,1036,5159,1146,-54,-1924,489
244,-1594,-7368,-4990,-277,-851,1261
245,-2928,-2646,-1454,747,192,451
246,-902,-3334,7469,-1877,-678,-1578
247,-3002,-740,3008,1439,-526,358
248,3194,7308,-1730,1769,-1708,1657
249,-7009,-4309,-418,1120,226,1594
250,676,-1592,3339,-1801,-210,1014
251,21,7891,503,-1305,1595,-504
252,7855,6677,-5528,-133,-1646,-467
253,-3757,-6976,-4736,1216,1501,-505
254,-595,2180,-5422,1038,1960,-1535
255,-1194,-362,-2075,764,1594,-1689
256,-4459,6508,-225,-9,-169,-1725
257,-904,-537,2368,-1892,682,-1171
258,-5596,1998,906,-835,1015,272
259,-949,6094,3362,877,949,535
260,2566,575,-3722,1452,-334,-333
261,-4890,5752,-6309,-1323,1784,-1980
262,6586,-4979,-6501,698,315,374
263,-586,6384,5873,641,1394,-756
264,-5203,-391,653,-722,1428,-915
265,6738,-2767,-2166,1288,-1505,1288
266,-5786,1631,509,107,828,688
267,-1288,-7834,-2128,-290,202,352
268,143,181,2109,1434,-739,-1501
269,-7593,-7548,109,-172,335,-1516
270,4983,3139,-3095,354,1834,1525
271,-1753,7034,-6045,814,356,-92
272,-7520,7911,1997,-1747,-37,442
273,-1239,2579,5180,1417,1337,1312
274,-7451,1349,-4555,699,-186,851
275,7927,5154,-2927,1790,44,-160
276,7096,14,3653,-140,359,739
277,-1638,-429,-4227,-106,1129,-1822
278,-799,-1148,7055,1456,1207,1636
279,370,824,1124,1117,1185,-494
280,-649,6347,-3034,-1239,1965,-798
281,3116,1171,6646,-1243,600,1986
282,-7634,546,-7302,-93,-1548,-346
283,-4767,5042,6973,-1574,875,-133
284,4636,7850,-555,683,398,-1109
285,-605,-2829,3083,-1603,-1612,1884
286,697,5718,5581,1729,526,23
287,-5549,-4807,-7846,1047,-1533,327
288,3312,250,3840,-288,289,32
289,5387,-1028,-7025,924,-271,-1030
290,6158,3950,-1726,-1050,-1363,905
291,-3262,-1460,-1876,923,-1354,-1638
292,4268,-6263,-6973,-1814,-541,-1278
293,-5432,-3181,2567,-789,-133,1124
294,-3079,41,1188,1099,-236,1609
295,2104,-3039,-4981,611,-1861,-140
296,-3868,2594,4811,319,1095,1819
297,54,3455,5100,1637,-1263,854
298,6531,-2624,-113,0,-1362,-1493
299,-7591,1610,-510,-1133,-1222,-975
300,-1000,-4815,6323,-180,1110,-582
301,-606,-3809,3793,-121,-1055,705
302,-6879,2756,2439,-417,-1550,53
303,3218,5886,-5695,1543,-63,1113
304,2551,-4476,-4695,-1438,-1102,-1560
305,-1453,3656,-966,-1703,-1053,1318
306,-1629,-2516,5443,-1768,624,-811
307,7093,2216,4268,-164,-657,1001
308,1229,5400,819,658,-1520,1126
309,-4835,6798,-7187,-1001,525,-879
310,143,860,1030,1789,-1551,-234
311,2442,2763,-5692,-1105,996,-690
312,-5529,5151,5020,1880,-1530,734
313,-2189,716,-2234,553,-1538,-543
314,4492,2845,766,1276,-219,1897
315,7394,7977,2881,-1968,666,-490
316,5136,-4547,4456,-162,841,285
317,-1740,-5009,-3585,624,-463,516
318,-4469,3442,5325,-358,-106,-907
319,-1541,-324,2306,625,1841,397
320,5354,7426,247,1631,1249,203
321,-3718,3292,5780,148,1357,-529
322,-2570,-6306,4272,1,-1805,-939
323,-3997,-6130,-320,1941,-1285,179
324,2708,-5221,4623,824,-840,-1654
325,5559,1220,4448,450,1253,-1592
326,-5683,-2016,-5946,-1580,1233,-975
327,3381,-3089,203,1364,1402,618
328,-1016,-1186,-1496,1819,-172,1658
329,-4900,-5619,1076,290,-684,-132
330,1653,-7075,-5299,1236,994,107
331,5407,-4735,3349,-1956,-1278,-897
332,-2638,937,2139,-1008,-1097,1905
333,-571,-3932,407,-1414,-896,-697
334,-2446,-6423,-7084,1061,664,1445
335,-2564,5740,6281,-1708,1641,777
336,3011,284,7116,177,1109,-580
337,-6565,2055,6731,314,-536,-542
338,-7709,-7898,-7671,-912,207,882
339,-2270,-4549,-7358,-14,-68,1994
340,-6835,-2034,670,-1199,-447,1989
341,-622,6258,6170,-1086,-135,-1999
342,-5095,2932,-2708,-468,-946,-511
343,3665,2023,-3953,48,-1512,-1010
344,6429,-7685,2668,-1697,-300,-1314
345,2032,-113,1831,1656,-83,-429
346,4602,7029,-6734,1369,-1181,-463
347,-7745,-4975,7415,-1518,-361,-1949
348,-4443,-1435,5605,-1417,-43,315
349,-3856,-1639,7180,1882,883,616
350,4305,4292,730,173,111,854
351,7581,-7080,-5081,-1440,-1530,-1490
352,7484,-512,-2562,651,-606,-23
353,-2861,-2206,5744,1771,-1881,-661
354,5126,-4419,4431,1745,701,639
355,317,7819,-5260,97,-918,-966
356,6118,-6573,-1131,-403,494,-1555
357,-7997,3606,6183,-641,703,-1212
358,3631,6492,-5417,229,-1657,-159
359,-3421,-2441,-178,-560,-1387,-107
360,-4141,-70,7610,579,915,-1454
361,-7143,457,4424,1962,1781,-1017
362,337,-2126,-3316,-729,-1753,-1292
363,-690,7111,3910,534,-918,-243
364,134,-3998,-7626,211,61,192
365,-5419,-7865,-4712,1840,1309,121
366,677,5528,4555,1597,-206,1570
367,-7427,4130,1284,-1515,-1855,-1851
368,-2426,210,3237,1717,-1591,-1998
369,-3525,-7460,5143,-1399,1219,498
370,217,-3179,-1334,1077,197,-1912
371,1923,-6596,2849,-1076,-297,957
372,7727,-5687,-2678,372,-629,202
373,-3867,-4494,-2515,-840,962,-731
374,-4347,2031,-3110,-1253,-832,-1564
375,1101,-2555,4579,1868,1964,-1125
376,-6005,2437,-4777,817,-1839,-1267
377,5436,2357,-6629,-1966,915,-141
378,-3331,-2085,4565,-327,-1619,-1845
379,6669,-2815,-1267,1780,-1895,338
380,7234,-7530,2255,-1492,557,-1720
381,1211,5149,5531,-1893,-1027,-113
382,-5391,3954,2113,-1948,-1595,513
383,-2240,7248,7943,294,1370,425
384,68,5414,7888,1166,1817,1391
385,-2873,562,-4407,1061,1665,-1143
386,-2455,6792,-7095,-1728,1099,-236
387,-1124,-560,-4223,1358,1822,1250
388,6699,-2320,470,-906,-341,235
389,-703,-5826,808,-76,396,807
390,-6555,-4030,-7591,1588,-1444,-1808
391,-2846,6953,-3756,839,-1733,-1752
392,-1069,6012,-6814,-749,-385,1663
393,5199,1361,5890,911,273,1495
394,4422,3066,1933,1986,1275,1110
395,-1270,-448,-114,1913,1133,-784
396,-5227,-7189,6745,-1823,524,1878
397,6318,-5847,-5551,-1609,-1150,-1340
398,258,-4186,-3241,899,-1169,1667
399,-1819,-1514,-7683,1704,-909,1580
400,6777,5207,-5203,1142,632,-1714
401,7038,-65,-2233,-623,526,1839
402,-39,-2024,-3053,1999,1403,-429
403,3392,-499,-354,-581,1281,529
404,6912,-5404,-3687,1962,-103,377
405,-7931,-6693,-6169,704,1482,-1640
406,-903,7959,-3506,-643,-1517,-652
407,6986,7704,5324,673,-894,1942
408,5379,-7877,-2673,-1604,1663,-1476
409,5199,5787,-1758,922,314,393
410,1772,-4877,-5036,297,-1729,662
411,-5877,536,-5422,-559,661,-457
412,-794,-2202,61,-1242,-1115,1279
413,4733,-4689,-1878,473,900,989
414,2209,-3166,-5691,-801,423,-1198
415,6772,3081,1598,-1335,1236,469
416,-5630,6149,2463,-1942,1840,-413
417,-81,-5287,-6983,178,1202,-1639
418,-3214,1360,2145,297,1860,1241
419,2550,3045,-2659,238,681,1509
420,5997,-3833,-1924,1368,-1762,-1249
421,1869,3630,-7004,1698,-18,-1995
422,-2186,-1994,4093,663,1707,272
423,-7931,2638,1476,-672,-1649,1182
424,-210,1402,4839,-193,-1335,1850
425,4905,-1223,4501,521,338,-283
426,304,3748,-369,-1756,-422,-1999
427,-5986,-3971,2418,159,299,-1013
428,-982,393,1555,-605,896,-532
429,6029,2375,4682,-524,-1392,-1367
430,-5096,6714,-7699,712,-1590,-1737
431,-1317,3238,-472,462,-1697,-1352
432,-7809,-893,-3996,-1192,1459,1946
433,4344,1713,2206,-893,-1328,139
434,-2338,468,7849,-324,-1876,-1695
435,-6382,-3138,-4411,-349,-1091,-656
436,2457,-283,4812,-119,909,776
437,-6049,-3916,-5251,-1950,984,1563
438,-638,-2923,6593,-430,-23,618
439,5281,7618,-2399,-1380,224,-387
440,-6251,-246,-4922,1621,1629,887
441,-6611,4263,4877,-300,1791,660
442,6057,-4078,3465,-1979,111,-1184
443,-1857,-2552,-1386,859,-857,1650
444,-3197,5887,7301,585,593,1471
445,7076,-957,-5020,297,-1123,1735
446,-2620,351,1237,-1519,-1636,1824
447,-4571,-7341,-6903,-1816,-1575,-302
448,7162,4951,5114,1505,1163,-1044
449,-979,4863,4727,-1184,-851,1216
450,-3329,-7602,-2978,-928,-1842,-1601
451,4403,4609,-6632,512,1164,821
452,858,-4498,3858,562,-163,-613
453,-3540,1131,4897,-1691,-415,474
454,693,6968,5437,-466,-541,-1115
455,-6676,3895,-1381,238,1236,-668
456,1050,765,-7227,168,-1239,-1941
457,6764,-820,5986,-40,1683,-1422
458,3752,5417,-3955,292,-829,-492
459,4948,5457,65,-761,-157,91
460,-5786,7765,-2144,-720,1650,207
461,-1099,-3031,1263,1091,-902,-1318
462,-3569,2906,6350,1600,1612,-1228
463,-6300,-5503,1864,-494,-136,791
464,7783,-5229,2503,-1632,-1748,-233
465,-7818,-4765,-2944,918,1724,-999
466,-7725,2570,5243,-453,-712,-156
467,-4048,-1892,-782,1486,38,1204
468,1340,-7024,-1426,1656,-656,-850
469,1657,5521,2327,1487,-746,22
470,1720,6687,567,-1111,-412,823
471,-3093,160,2714,-1436,775,-1003
472,-609,-1813,7130,86,967,1239
473,5643,2412,169,1265,-968,1454
474,-3611,-3963,7593,572,-394,-808
475,-534,706,-1401,-1701,-1039,-1495
476,4567,2979,-4840,-1001,835,-514
477,-281,6065,2378,-826,836,-1692
478,-7229,6598,4258,-452,935,93
479,-7580,4318,65,-260,26,-1769
480,-2375,-7201,-3125,1745,381,1188
481,-3086,-6283,-3983,-1507,164,-269
482,-6018,2333,-1160,-365,1380,233
483,3961,666,5971,-1439,-719,1978
484,-1431,-1788,1229,-206,251,-1225
485,6655,7107,-6840,-903,60,553
486,6507,-5626,-4869,-1571,1816,-1459
487,-7173,7068,5185,-662,-1403,1475
488,-5712,-409,-20,12,-1340,-413
489,4525,3148,-4383,612,1170,486
490,-4233,-7415,-5143,400,832,890
491,3761,3590,-4979,-189,-118,-129
492,-384,-3727,4452,1491,279,-1304
493,4755,-7883,1562,-1012,1514,1403
494,1450,1544,-7210,1952,-1193,1377
495,-2612,-5429,-4164,1364,-386,-1009
496,1721,2220,2122,1219,569,1174
497,7952,621,5504,1754,-1369,1933
498,1044,578,-2553,1800,14,234
499,1756,3080,4548,1906,1431,-1416
500,-5104,-2787,6503,-1768,1944,1118
501,-4598,-3705,5143,-844,1199,530
502,6918,-6697,1892,-1973,232,1494
503,-1020,-1614,-423,-1070,-68,-901
504,2124,-2621,-7587,137,1104,849
505,7230,3591,-5609,-78,1649,1560
506,5845,-143,6576,1367,-1520,1329
507,3017,7061,7908,-1678,-1500,1850
508,-3719,4983,-3135,-551,1519,-351
509,2288,1057,-4212,1588,-1079,1677
510,5719,-6300,1881,209,-1122,468
511,876,-1870,6207,-1416,-1113,-384
512,-6743,5505,-6097,124,-934,-81
513,5597,-2829,-7722,1946,609,-1160
514,7375,-5903,-4069,1673,1737,1803
515,2999,-7976,4140,-1853,923,-842
516,-5219,1167,1155,913,488,1422
517,508,-1254,3412,605,1912,-1690
518,-5491,-1390,-6156,963,-612,-1236
519,7624,-980,-7986,-754,1630,374
520,-3492,-1832,-5034,-1812,-1918,-1630
521,6978,-426,1641,-473,63,-337
522,5397,-2827,7443,862,594,117
523,2793,-3986,-1348,-320,-1833,-1724
524,3433,5168,3036,859,-1087,-1791
525,6675,-772,3847,-1482,-1560,-990
526,-4900,-3317,6929,-1888,1388,-727
527,5666,-178,-7882,-482,959,-1531
528,-4979,-4474,-4694,-928,-676,543
529,-1850,-2073,-7295,1312,-1913,1440
530,-7781,2568,4027,-199,-374,1834
531,-2121,-4480,-1921,531,707,-1608
532,-5890,-3178,7051,242,7,1963
533,5782,1248,-2727,-1945,-120,-1704
534,-2163,-3115,6140,-1403,-1213,-1997
535,-6955,-1488,5361,-1142,118,-1677
536,-717,4501,-3267,1062,-1663,1716
537,5992,-3446,-6268,1675,1476,103
538,-6134,-3064,5385,1865,187,789
539,7923,1897,5831,1103,-67,-208
540,-1853,7078,-340,847,1288,1974
541,3868,-4148,7293,669,-1030,19
542,-7093,7488,-3863,1236,-1544,147
543,6603,-4857,-4381,-1549,15,-830
544,4077,7663,5251,-942,1590,669
545,-7893,-6029,4466,1789,-679,-931
546,-4056,1625,-2842,1285,-1450,-376
547,-3280,-1826,6917,-1965,-1453,536
548,-7480,5639,6728,1687,-1966,-403
549,-4478,2058,2983,-1300,286,1716
550,-1013,-6066,5083,324,1809,-1502
551,-6274,-1803,-2602,-1863,796,-48
552,-591,7267,-4755,150,-1517,797
553,252,2306,-2280,-140,-571,-642
554,-7523,-7236,-7528,-733,-801,-1323
555,-2722,4074,1037,787,-4,-1637
556,6610,-5921,-6656,-1379,-404,-1251
557,1841,3599,457,-1985,960,-1413
558,-4596,-4399,7659,652,329,1796
559,3764,-700,-467,108,-525,1230
560,5708,-5941,-4380,-1333,427,-373
561,-7572,-4083,1443,1233,461,-1202
562,7890,7718,-1110,1407,505,493
563,6311,-7040,-3474,-1110,-1727,-910
564,-606,422,-4027,1948,-1155,1939
565,400,-3362,-7029,422,-324,1603
566,7506,540,-4968,1130,193,341
567,6915,6104,651,1771,810,261
568,-4414,6166,-3979,-1357,1675,-796
569,5087,1508,2870,-789,-1573,375
570,1925,3150,6475,1694,-1142,-912
571,-4395,3864,6324,734,-417,-1800
572,-604,-4415,-6320,-774,809,281
573,6723,-3504,7348,1823,1154,1049
574,-5385,-2815,-7879,-1969,453,-1241
575,-5645,4577,-817,128,1093,863
576,-3635,3805,3370,-42,611,-456
577,-1510,-7608,2426,-993,-752,1629
578,-6316,-5306,2626,1778,-1870,-786
579,-6519,-7897,-2218,1111,94,1851
580,-1725,5650,-5088,-126,1752,-1347
581,4392,-2991,5230,-125,1019,1777
582,-5924,-888,6206,1535,1921,394
583,5315,7010,-6392,-389,-502,1553
584,2262,6304,5318,392,-1953,-1984
585,1620,-5753,1422,-1580,-467,1435
586,28,-7229,2355,-77,852,-1351
587,5076,-4014,5146,-1506,-965,645
588,3768,321,-4121,-539,949,775
589,6105,-2831,-1176,-298,794,662
590,3775,-2842,-5947,-1338,-1029,68
591,-3045,-4924,6889,-1312,-443,-701
592,6779,-5546,-7026,-929,125,1388
593,-865,-6898,-6033,-1696,-997,1527
594,5947,3715,3088,-484,-112,1731
595,-2868,-4095,6287,256,225,278
596,-145,3388,-6091,1704,-881,-37
597,-6218,3928,-682,188,-662,-19
598,-6624,-5811,-7004,-1873,-1493,-142
599,-3543,-7799,7809,1980,-777,967
600,5677,5320,-2971,1335,913,-816
601,-6191,-4973,3163,-362,394,1721
602,-5723,6341,-5569,-9,-998,346
603,-321,6502,7340,1499,960,-1690
604,-2781,800,2090,645,1070,1282
605,-7353,5068,5177,-1293,-959,-1270
606,148,-4822,1544,-1356,-357,-464
607,-6354,6537,797,-928,35,980
608,491,5376,4451,1552,-318,334
609,-2671,-6665,-4203,-1559,138,-1440
610,5708,-7830,-3015,807,897,-180
611,3167,-4613,-7482,-1325,1631,160
612,2006,-744,-3555,-1171,507,-950
613,6327,-3640,-7724,107,309,988
614,3519,4985,173,1071,51,-196
615,4868,4842,728,881,1686,-1270
616,-7971,-629,-2941,1808,-1544,1359
617,-4660,-3200,7975,1769,192,-1265
618,3866,7725,4355,1907,823,-1402
619,3834,4179,-7899,1688,-1571,-1440
620,-161,2390,1883,1135,1860,-962
621,984,-5367,953,515,1903,-1425
622,-6278,-5678,493,-1863,-577,612
623,-6448,3590,1547,1597,-1655,927
624,-5539,-302,-5562,46,-704,60
625,-4726,-6975,6026,1763,1367,-144
626,6177,5780,1928,400,-874,834
627,-2009,-2794,2477,-1156,-845,-1744
628,-1149,-2975,100,1704,164,179
629,821,94,-2477,131,727,-1229
630,7961,941,-6492,497,1535,-1409
631,2827,-531,-7531,-775,510,-193
632,199,-7685,4277,-1829,118,-1389
633,-5571,6003,-875,-1720,-1888,-1471
634,2822,1613,7683,-1364,-1289,934
635,-794,-6638,3087,938,-1424,-1289
636,-3543,6271,5094,1127,-215,-1914
637,6940,-1579,6370,469,-791,-1935
638,5455,-71,4091,-1234,-608,-78
639,4970,6064,-2055,509,936,1641
640,6793,3979,-3388,1083,-120,936
641,-2474,1394,-909,1267,-1963,85
642,-1838,-1489,7763,-1673,1841,1573
643,1304,-6399,-7981,374,998,257
644,3103,1953,-4226,136,1388,-1629
645,313,-197,-507,855,472,-1019
646,-7285,-7998,5943,-1050,-1829,-1825
647,-3162,1035,5509,-270,738,1398
648,6217,-359,-6234,-445,-586,438
649,490,2748,-1391,-517,1891,-358
650,-1759,-7549,2630,-1761,1522,1346
651,-1934,-4655,-660,806,911,-1071
652,7417,6259,6724,959,-1549,-1208
653,6693,-6243,-1792,-582,-1100,-1211
654,5356,-6639,4588,-345,1131,1290
655,-4057,4349,4037,807,-1230,318
656,-4893,7006,-6315,-861,1046,-1122
657,-602,-5097,-1483,-1745,1773,1490
658,3382,7286,1196,1200,-1501,-1347
659,7478,516,1883,-117,365,385
660,7397,-520,-4267,6,146,-908
661,-5940,2088,-6334,-1607,-458,-763
662,2265,-4255,-2672,-1083,-1971,1227
663,-2870,6378,-7357,-580,1643,1807
664,-957,-2426,1756,774,1535,-818
665,6611,2296,-2314,1509,-1889,1471
666,3250,4595,-1171,-1248,143,-1655
667,-6977,-7000,3878,1396,-1452,255
668,-7253,1687,-1000,1467,-1800,-1987
669,-7542,524,7767,1999,1594,1911
670,6368,7128,5214,587,-1761,1190
671,2336,-1005,3311,-1390,1857,-1965
672,657,5455,-6941,-283,-396,-1209
673,321,6211,2722,1956,697,969
674,-224,-4037,-793,-588,-390,-1686
675,4240,7859,772,-860,-505,396
676,-7284,-1642,-5847,-930,-109,1742
677,7504,-3212,-7718,-649,-1344,1016
678,-5711,-698,7264,134,920,523
679,1878,-738,2872,952,-345,1531
680,6160,4795,-3409,-1400,847,132
681,-571,-350,6088,1230,40,-36
682,5077,-4727,-7410,1333,-225,236
683,5140,-5591,-3914,-1387,-1607,685
684,-812,-1989,1524,-1651,1484,85
685,-3843,-5535,4065,-20,237,-128
686,-6213,6993,-5683,1212,-1180,-1313
687,157,-4136,362,-338,1393,207
688,-5604,4464,400,908,-1071,1734
689,-2111,-1924,-6268,608,1580,-1402
690,1706,-45,2820,870,-146,-286
691,6199,4739,1380,1786,389,-1868
692,-6545,2877,4425,1435,690,1480
693,-7518,-6865,7976,-968,-869,-445
694,-3500,5919,-754,1116,1146,-651
695,5868,5865,-6820,1380,-407,369
696,-1914,7974,7903,893,-1918,944
697,-1335,-7985,-5556,-114,1909,435
698,6079,-1766,7392,995,-1428,439
699,5389,4289,4642,1196,-1961,1210
700,-2363,7798,-6939,1515,724,-84
701,-2997,5290,880,1992,50,-291
702,4106,6038,4872,-1995,1946,-916
703,-2402,-3385,7512,-1968,664,-1245
704,-4286,-5354,-465,-294,-979,-618
705,-6085,-3711,7934,1810,839,395
706,-4137,-2806,2376,-996,1444,298
707,4917,3377,-7216,-1510,-293,-673
708,-3432,-7763,-5656,-509,239,-1847
709,1801,-4867,-3661,435,1730,1998
710,4342,-43,4620,-467,1959,1872
711,-4370,5755,-2647,396,-1794,-246
712,996,-5225,-7010,1074,102,-514
713,-1416,-1189,5532,-160,-799,-1271
714,7307,7571,7418,-1125,923,1619
715,-1568,-1597,-5978,-1607,-91,103
716,3551,6053,3737,-627,1015,295
717,-2962,-948,-4548,-1472,-97,-696
718,-2493,1129,113,-586,681,-173
719,-4672,1555,-1380,-800,1569,-480
720,-7429,-2115,4358,-567,-527,691
721,-2349,-340,-2611,-1723,-1490,-1061
722,-6540,-1179,6872,-564,1460,201
723,3914,985,878,-732,714,1178
724,3152,7019,-241,1563,959,-950
725,4378,-3197,5691,-1741,219,753
726,1587,585,-4739,-862,-1015,554
727,3766,165,-7821,312,-1446,1322
728,-6004,7642,300,-582,176,956
729,-5617,-3628,-4928,117,143,-1917
730,7396,-6430,5330,-1056,-652,1048
731,2865,1558,-6151,1533,78,1725
732,-2774,3215,6568,-701,-1881,-1568
733,-2803,-4383,3602,-460,1833,-581
734,-3418,5631,-2255,-1455,-346,-1128
735,259,5277,-2711,871,674,627
736,4575,474,-5086,-1796,-1183,-3
737,-7285,-1379,-4941,-1857,483,1158
738,197,-2429,-7694,186,-4,-1034
739,-2203,6415,824,557,873,-728
740,-4141,4974,4831,1550,-123,522
741,7411,4375,-1576,213,-1436,-1016
742,-2534,-4290,-4061,-418,-430,355
743,667,5627,-1621,-1726,-1401,-1463
744,-5353,4784,7156,-205,-871,1257
745,-53,-6061,1341,-898,-1969,636
746,1656,2704,-4989,1786,1824,-774
747,-3819,7972,-41,-564,-1059,-287
748,-3735,-7522,-1308,902,-1560,1687
749,3061,1543,-556,-556,502,-1921
750,3317,7820,4448,-1674,1956,1481
751,-789,-3304,-7469,1206,-1831,-436
752,-4446,6974,-5231,1110,-683,1494
753,3378,-5526,-4312,-1666,915,-160
754,5667,-6820,5717,-1308,-892,-1253
755,141,1712,-7635,-620,330,35
756,1972,767,4688,704,345,1127
757,6101,7371,4490,-1864,265,-1131
758,6241,-6451,1834,-725,1198,561
759,-1137,-6824,-2195,1236,-1763,-86
760,4273,5979,-7426,790,667,-741
761,-1302,-5671,-4784,-1005,-147,972
762,-2490,4620,4912,1006,-436,1889
763,1892,-190,-3377,-22,-449,-1934
764,-3037,1219,4259,1791,-301,1992
765,3176,7862,-6289,1872,-1566,-1518
766,4167,3809,4025,-1481,-1591,1981
767,5257,572,-195,-187,-902,1913
768,-6856,-1490,6155,1257,-926,-253
769,-4117,878,835,-124,110,-1841
770,5182,5173,-475,-180,-202,-703
771,-3578,5292,393,-435,-112,-894
772,85,-250,7955,-713,-73,-1795
773,7395,2671,7473,954,837,-1904
774,1325,2423,5791,-1517,916,346
775,-5320,-7681,5508,-1253,-1785,1041
776,6916,5324,-3340,1941,1106,713
777,-5958,-3838,-3199,1833,1905,-354
778,2590,117,-1810,1455,1917,387
779,-3790,-5596,3181,-1349,1350,1750
780,5507,-4056,-7327,-829,1053,427
781,-4249,-4460,140,-1234,-1522,-42
782,-7162,204,-4094,-256,-328,1735
783,3970,-1873,5829,-1205,1524,-963
784,-1776,-5014,-4217,-1184,-1695,482
785,-4713,4893,-7721,967,415,-1513
786,-1224,-6697,-5060,108,-632,-31
787,3790,-204,-749,1570,-1735,1107
788,-2217,6678,7733,-1893,1426,-1616
789,2587,-2562,-2112,-1671,-1926,1610
790,5733,-4805,-7946,-1018,-1630,-72
791,6682,-6213,5764,1004,1190,-450
792,-3536,-4909,6904,228,135,-1170
793,-7142,-4771,-2263,422,-118,1727
794,1347,2138,-2139,1907,-1834,721
795,-5462,-4838,-2126,964,1177,1249
796,-532,6618,-7258,-1921,1608,1877
797,7722,6712,-5646,-634,-1400,-1756
798,-2039,5014,-2639,-687,355,1412
799,-2362,-7167,-1370,1299,-1147,475
800,4396,-5375,-6802,843,892,1138
801,-4785,63,-7515,864,-1826,1037
802,-7664,-765,-3177,-1767,935,-149
803,-3704,-7961,624,-1308,1577,138
804,-1886,-1139,-7648,629,-1052,447
805,5318,7967,6122,-1039,-809,1603
806,-7126,-2698,-7091,567,1124,-288
807,6653,-3080,2901,330,1866,-1287
808,5600,828,-3985,-965,156,833
809,-5027,-1824,5834,-1959,194,1274
810,-2410,6973,2040,-1363,71,1799
811,-6574,4129,-4546,761,-1392,-1923
812,-6286,-7807,3388,1925,-1404,-1944
813,-7879,5233,-5316,1147,-552,-1873
814,-5703,2604,-6760,1927,1459,743
815,-329,-6226,2068,969,-1040,1773
816,920,-4327,-7856,-1082,-1250,900
817,-2245,7515,1787,-1739,-427,-822
818,627,-3945,-235,-156,-1796,-146
819,-1427,-5762,4104,579,1581,-1163
820,4242,-1929,1742,980,-1631,-1857
821,-2416,-7436,-6904,1248,-1695,-390
822,964,-4952,168,184,1976,1963
823,2295,-2805,4186,-30,-193,-1806
824,4629,-1825,-7924,967,133,1859
825,642,3076,-6460,180,653,1096
826,5500,4887,-2716,1158,-393,1955
827,-420,2283,1648,-381,1536,-1155
828,-497,-7521,-1609,43,965,-303
829,2704,5384,-3482,1456,-82,386
830,-6378,-6275,-7601,48,1860,467
831,7893,7076,-3127,291,-1842,-316
832,2884,1516,-5331,1880,-1357,844
833,7924,-4283,2455,33,-221,-1304
834,3385,-5292,3692,422,110,-131
835,7367,5646,-1241,1809,-515,-717
836,-7478,2397,-1648,-405,-578,973
837,4796,-877,-6217,339,-881,294
838,-2041,-2403,-7658,-732,346,1804
839,5011,5428,6325,-898,-1800,-1429
840,-3326,-4722,1235,-1059,1036,992
841,3614,-6284,1481,548,1041,-349
842,-980,-536,-469,1900,-1736,-852
843,4333,-502,-6134,-942,-1175,-221
844,7650,-684,4540,737,1550,1439
845,6971,-3848,-4970,1768,1707,-834
846,1086,-6210,-7236,1803,-371,1163
847,6489,5639,-1616,-1818,-1333,-1550
848,326,-4614,1638,1384,-207,731
849,-2662,-6605,-2770,1946,1310,1449
850,6751,-1940,1989,-506,-45,1691
851,-7067,-2219,-6673,-1712,-947,694
852,5245,-1363,-5953,-1231,-29,-906
853,-4087,6130,3845,-1108,-736,-512
854,-4511,2643,-4968,189,1627,738
855,-7341,-6894,-2725,1024,-510,-1333
856,-2410,-256,-4675,287,1781,-460
857,-7903,-3621,-5938,-1273,121,-1518
858,-4636,-3886,-5778,-1837,553,1246
859,-510,1418,-2629,1575,-627,1366
860,1193,-7230,3421,-771,-1549,1436
861,145,1470,4177,-1832,1122,-1103
862,-1883,-7763,-6293,1701,-221,-1950
863,-423,-3669,-3691,1838,-1134,-422
864,3878,7595,-4975,1093,327,-1559
865,946,2728,4678,1011,-1918,-1832
866,-358,-2770,-295,-467,535,1833
867,4743,4657,-4864,961,-1068,-47
868,6304,378,-2484,-800,-1452,1242
869,-7331,-686,339,503,1147,-1006
870,-3460,-2582,5331,305,1675,-395
871,-5168,-2849,480,-1024,1311,1444
872,6616,-3946,-3879,-1936,824,509
873,-1640,4298,7513,-77,-1065,734
874,-7304,-7517,3383,-1239,-439,1268
875,-6129,6838,1163,-45,-652,1356
876,1922,6079,5999,-323,-865,-306
877,655,-315,-3322,-1152,-1235,-823
878,-119,-7834,-55,-1775,1383,1703
879,2001,-1176,-3355,472,4,-1305
880,4935,3563,634,1012,-62,-716
881,203,-3300,-7403,1718,1525,127
882,2712,2117,-1145,1408,910,-851
883,-6230,1229,5116,-1775,-602,388
884,579,1298,7249,829,-740,-255
885,-3890,-5308,-6793,197,340,170
886,7517,-6018,6658,55,-865,1567
887,1033,7063,1137,-826,-1968,400
888,1898,-553,-4190,1368,1377,-1032
889,-7326,3884,-1651,-275,-307,1767
890,1562,4245,6135,1545,-1381,-566
891,2969,1119,6516,-814,1134,184
892,-3157,-3621,-5994,-1334,-863,246
893,-2201,5289,1234,1564,-1440,1593
894,4728,-1059,-3542,-1671,469,-150
895,-3867,-7340,7851,-870,-827,-1800
896,1936,1637,2863,1368,-1663,-339
897,6988,767,1868,-1974,-443,-1458
898,6248,-4367,3236,1891,1494,484
899,1939,-2826,5026,-720,656,-169
900,5818,1303,1629,-1720,186,-1274
901,2204,2078,4565,-275,1497,1766
902,-5220,3159,-1591,357,-843,-1375
903,7111,-2515,-7801,957,-929,914
904,1300,3519,-67,58,623,227
905,7978,7705,1559,429,1865,315
906,-313,558,3803,734,671,31
907,-4082,-6441,6891,647,1341,-1943
908,2242,4793,-6590,947,-1194,-1769
909,-173,5638,-4964,1159,-594,80
910,-1523,-1752,-2592,1144,1102,-865
911,-4413,634,5093,-543,319,1804
912,-7050,3497,6643,424,-1259,-217
913,1544,-6124,3432,1072,1979,541
914,3542,4268,7044,1777,-54,-1379
915,7338,68,1348,-1542,-498,1487
916,3037,-7223,7089,1432,-804,744
917,-2793,1692,-6380,-508,1600,950
918,-7469,-5626,-4475,972,-1202,1163
919,299,-5663,-7837,-353,810,282
920,4418,-6221,-5243,1584,-1755,-1150
921,-6969,-6083,-5200,-1875,-118,-246
922,-2036,-1284,-5157,876,-1409,1951
923,-2419,-4835,-4203,1225,231,-151
924,5056,-1318,-5718,-1187,-402,-1659
925,-3024,-222,4544,1291,1588,-166
926,-5829,5531,-3573,1730,921,-1650
927,1243,7599,-7511,-309,1742,654
928,7788,2213,-2860,-335,-606,-1281
929,6425,2514,-3008,-1671,-182,421
930,-3627,-2001,1724,-234,-1695,-1545
931,-4513,6352,-7900,1555,-1665,-1103
932,-1730,7489,-2161,-752,1716,1034
933,-4957,622,1002,-1431,-706,-1383
934,608,-2967,4752,-1372,-976,1667
935,-7744,5149,-1377,1932,1780,1087
936,1472,5405,987,-442,-183,-1033
937,-2610,5849,-5287,520,-1673,1275
938,-6342,-1174,-3508,774,733,556
939,5704,-2413,2187,1936,-1431,1544
940,-742,2841,3812,253,-740,248
941,7906,-5121,-659,401,-171,777
942,6367,4794,-7821,-1290,794,-257
943,5473,356,5543,-1402,1604,-1271
944,2731,-4246,3159,1765,-1825,1465
945,1213,-2340,1160,-355,1724,1927
946,855,1137,-2909,-1522,-1665,-1796
947,-1476,-7738,855,-138,833,753
948,-6464,1245,-665,-1216,1017,-851
949,-2428,-5303,-2702,-231,893,-808
950,-2365,4807,6593,328,1593,-1682
951,1665,6723,-5326,1769,-313,1615
952,-5670,-7922,-4246,-1943,600,-1939
953,5614,3265,5016,-1750,368,-443
954,-1716,-2106,7920,-577,1345,1695
955,-704,-4658,880,-1184,-1485,183
956,-4030,-548,-3377,297,1011,517
957,6406,5393,6790,-105,-578,1875
958,7890,2570,1052,-22,1333,879
959,7969,-2150,5472,-1992,-1842,109
960,-7271,-4969,6365,1894,1041,-1751
961,-2201,-7942,-4686,884,57,-1739
962,5490,-5594,2113,-1923,810,-444
963,5676,-7902,796,1938,-3,-1005
964,685,-7924,1480,-873,-849,1321
965,-2557,4865,2463,1232,1769,904
966,3466,-3322,5725,1805,-162,1137
967,6428,-5732,-6925,822,-1292,1910
968,-4513,1085,7211,1804,614,795
969,5582,726,2211,-799,-599,-1935
970,-7831,-236,-1724,1799,-851,-1595
971,3438,6157,-5660,-259,-638,1744
972,-368,3769,-7882,1862,-1861,480
973,6141,-1539,-2611,988,-1487,-631
974,4443,7092,1064,-122,562,-1839
975,894,2894,3722,408,-1379,-542
976,4426,-269,3424,1850,-405,-1483
977,-2581,-5200,6853,1070,-382,-1439
978,3725,6331,-6637,1457,-154,-589
979,-7829,-4609,2494,1901,-39,-1510
980,-5606,2054,-4611,-1084,804,-805
981,-2801,-7642,6682,-1398,1562,1061
982,2747,7830,239,703,-1535,-390
983,-6554,-1461,6333,1898,1732,1933
984,-4648,7533,6139,-792,-1931,597
985,2204,-6324,2283,449,-1599,-1592
986,-4376,-3090,6944,-1889,1886,982
987,-3859,-6171,-589,-510,-479,-918
988,6983,2751,2774,281,-877,662
989,6002,3365,3652,-461,-1637,-390
990,2520,4281,4628,803,1670,-714
991,3067,-3987,4284,-1970,1467,-800
992,-3683,4138,5041,61,601,-908
993,-537,7889,4875,1400,-844,935
994,-1829,4554,5477,260,517,-668
995,-15,5834,4584,1918,-925,694
996,-3969,561,2906,-1340,1399,-1440
997,186,-7887,859,100,1806,-572
998,-833,-2463,7192,587,-88,-976
999,1399,-5818,-6777,-879,582,106
1000,2698,-3400,1769,-724,-1710,1656
1001,-3666,1726,4352,614,647,1212
1002,-2350,-4431,5858,125,-1698,326
1003,5753,2123,4408,643,-1699,1282
1004,2891,-3732,211,1370,109,1939
1005,3116,4499,2075,-1382,-224,1650
1006,5070,-1545,1653,1771,884,1350
1007,1836,7819,3692,-1943,463,-1501
1008,-4735,1301,1395,-1982,-1082,-804
1009,-1716,-1486,-2390,-695,156,1721
1010,-5398,-3563,-3691,472,19,462
1011,2080,-6058,1010,-1308,1882,-396
1012,-5203,3279,4332,37,-1363,-786
1013,1790,5872,2834,1942,-1957,756
1014,-7830,261,-6065,-1565,-453,201
1015,-5313,-4308,-6865,403,-1897,1096
1016,897,614,1932,-763,1600,-1796
1017,7846,-3545,-3011,-1484,935,-1107
1018,-4245,6070,-2640,-1340,846,-689
1019,1356,7158,-6123,259,1815,835
1020,-1061,-1082,-820,-208,1169,-1017
1021,-5392,3203,5241,-183,-1786,-955
1022,-7699,5181,-5302,-1854,-1935,-1340
1023,1478,-2895,4307,-129,-1239,-1873
1024,-681,728,3562,-967,-983,1346
1025,689,6247,-3495,-754,1803,-1275
1026,7911,7009,-2763,1222,-841,-896
1027,6915,3838,3494,1,-1004,1643
1028,-3857,-4089,3087,1322,-721,-1235
1029,5665,3225,3188,1241,-153,1099
1030,3530,-102,-4382,-1201,1015,47
1031,7478,-3216,-1232,213,750,-975
1032,2556,-7163,-6908,-1570,-621,1229
1033,4491,-2471,-1886,-1413,-1908,1359
1034,2178,-4294,432,-1576,559,1906
1035,3249,-4842,2817,721,1531,1661
1036,-1582,6725,-4096,1146,-93,-1385
1037,-6418,2233,-7966,-272,-1609,-1842
1038,-1371,-7004,958,866,-955,505
1039,-5381,-3006,7978,1191,1905,-366
1040,201,5776,-4407,-257,27,713
1041,2397,121,-1659,1132,1651,-1282
1042,-3861,4519,-4976,-769,-661,710
1043,-7984,6286,-380,36,-1841,1098
1044,-7243,3350,-2841,1517,1539,-1874
1045,4207,2996,-7047,-944,-1725,-1361
1046,-4789,-6818,5097,-188,1745,-1256
1047,-2522,1914,-2293,-1146,-246,-1227
1048,6619,-3906,-6225,-296,-1192,992
1049,3127,3357,-4125,613,-349,960
1050,4474,-640,-2969,-1928,-689,584
1051,-2297,7225,4229,-1208,-658,-915
1052,2325,-1091,-7915,-13,-255,-1315
1053,-3913,-3013,5895,1521,375,-58
1054,4108,589,5325,1426,985,1036
1055,4001,-6332,-6312,-1844,1894,-1271
1056,-4048,4988,5215,238,-325,-54
1057,189,-782,-6686,-1609,-267,-382
1058,-7787,1815,5260,-1956,-1862,-610
1059,7055,-7419,-6189,-1217,-1166,1908
1060,-1053,3689,-6165,-1943,-1139,-1893
1061,-2523,-6795,-1347,-873,-746,1680
1062,-5803,-6949,-5102,1109,273,1347
1063,55,-7812,6801,-1627,-953,1672
1064,-7900,-3570,-2582,-1054,1145,-414
1065,-2920,6178,7395,1509,1777,-1576
1066,-4312,563,-1665,-169,-570,-123
1067,3955,-6368,-7608,-1243,916,-977
1068,-7974,-6940,3579,349,850,60
1069,-6765,-6844,-116,-810,737,1012
1070,-6151,-7410,-3443,1551,707,698
1071,5048,4193,6314,-1932,-380,-998
1072,3854,4153,1023,288,-1894,650
1073,1082,7262,-7812,751,-39,-20
1074,-2794,-290,-2722,-1227,1978,-478
1075,4115,-7655,1884,-1175,-1514,649
1076,-3052,2052,1363,-1523,1740,688
1077,1487,-2282,2669,-88,1690,-766
1078,893,-1295,-5919,1493,-1974,1637
1079,5624,590,1880,-1871,930,-646
1080,3730,-5421,-3611,1393,-1817,-878
1081,-1883,-3458,2685,379,-1866,-21
1082,-541,-7309,4164,1928,-683,849
1083,-4132,-5056,4383,338,440,386
1084,6286,-1606,1934,-1942,-1680,1615
1085,-1954,-6036,1097,-1966,395,854
1086,-1977,-6000,-7045,-1817,1668,-973
1087,5711,5695,2101,1821,-507,-796
1088,-4603,-6200,-1711,1130,-1458,1005
1089,1069,2006,3830,1639,-230,-324
1090,-2291,-1815,1545,-285,-1092,-910
1091,1472,3662,7481,-1920,908,-500
1092,-1776,-442,-2730,1247,-110,-805
1093,-2144,-2541,4630,434,-100,-350
1094,969,3550,6094,1329,-1673,-539
1095,7886,993,6662,1548,-1936,1035
1096,7203,-7072,-7332,-949,-384,0
1097,-5855,-5869,4767,-1155,1216,-1415
1098,1563,977,1102,-1019,171,767
1099,3961,3429,-5826,1260,993,-3
1100,-1478,-5243,7469,-1379,1241,-344
1101,-785,348,-1333,1593,847,-1188
1102,-64,-5561,-2335,-31,398,-26
1103,7266,-5767,-6988,-1550,-1339,1633
1104,3876,4188,4911,255,-992,1220
1105,2524,3325,2969,-1838,1212,1707
1106,-2588,-7098,-4038,-636,1479,953
1107,4425,-5670,-7556,1618,1585,-1202
1108,-4655,4134,-4722,133,-1120,-1404
1109,4125,1530,5284,-307,-1328,1845
1110,-7496,-7368,5775,-706,297,-196
1111,3928,-5802,-4117,89,442,997
1112,6906,-6586,5539,1852,-1667,268
1113,-5134,7113,-3181,684,514,928
1114,-284,2951,-6525,-499,1884,-284
1115,-3031,-2589,-201,-571,-898,-923
1116,4140,1509,6224,-123,-235,-1312
1117,6815,2661,-1892,1917,931,-446
1118,-2444,-7246,2930,-533,-1894,728
1119,5771,6093,2521,-357,-1298,1706
1120,7091,-5789,-672,1386,-674,1297
1121,-7687,-3145,5106,-1194,-234,-1883
1122,7571,-4459,-1696,261,163,-1731
1123,-3606,3710,7904,1708,-1002,-598
1124,4851,3505,5053,1888,417,-1098
1125,-3656,-4589,-7910,-1810,-1495,260
1126,209,535,-603,56,1916,-553
1127,6301,4804,-4822,-497,214,509
1128,4287,-4767,5772,228,-1903,119
1129,1625,1502,-1660,830,-1624,-764
1130,786,7587,5497,53,-1047,1485
1131,-1389,3676,5621,1732,1249,1166
1132,-5142,490,-6761,-127,754,-1614
1133,6154,-6524,2177,-607,-1499,-727
1134,234,-2390,-600,-120,-1051,1091
1135,1816,-3714,5249,-1501,612,1732
1136,-511,-7003,-2433,-221,1180,395
1137,1061,-4842,-6290,-1181,354,-1521
1138,-1639,-4084,-1344,-1355,-979,-1289
1139,-4888,1059,-3996,-799,-1871,-1134
1140,5674,-1058,5439,713,701,-560
1141,3952,2009,7701,-395,-153,-1422
1142,7569,-1511,6999,633,-1084,-1478
1143,4387,-6839,-206,-639,1648,1115
1144,6186,-238,6903,1469,48,1094
1145,-99,-3403,2412,591,-924,1141
1146,-3377,3413,-2095,-230,-37,1604
1147,1003,-4361,3405,635,-576,-1359
1148,-6074,-5715,2405,835,-1696,-206
1149,-4387,-3735,-6489,-627,-1845,679
1150,6386,-1808,1029,1735,1331,-339
1151,-4510,358,-584,-1483,-1478,-933
1152,4297,-6526,-3854,1915,-1314,1133
1153,-5468,-4714,5479,-905,-175,-1051
1154,5317,-1906,-6572,-1429,1773,-911
1155,2691,6784,6845,-1283,-1101,12
1156,-6536,-7366,6977,1213,1271,-1578
1157,-7004,1120,5732,-1312,-1714,-1857
1158,1676,-5510,5944,-852,-175,1387
1159,-6535,-7496,-3095,439,383,1733
1160,5510,-1785,-6756,-1119,459,-121
1161,5307,5919,-4746,1465,1400,-1317
1162,7342,-4677,-239,-1840,-1218,1733
1163,-1189,-3450,5256,1859,-1835,-1402
1164,3926,-5909,1345,1956,1903,1731
1165,6063,154,3420,975,-1244,-598
1166,-3932,-4794,215,902,1131,-554
1167,-6282,3477,-7897,1925,1130,72
1168,4884,4131,-6264,1799,-829,1190
1169,-2236,-7125,4361,1291,-1063,-1258
1170,-5628,6508,-3711,1898,-161,-371
1171,582,-2778,-1434,-1005,1527,-1390
1172,262,949,-3038,636,-1522,1601
1173,-4650,7249,-4281,127,1500,1554
1174,-1878,5239,-2310,825,847,-1133
1175,-3302,4955,-6460,-991,-1106,-1716
1176,7954,-1960,-3512,-1238,1767,19
1177,4637,6196,-6545,-1335,1103,-1042
1178,-1539,6579,5227,-1913,902,-1051
1179,-5568,1012,7974,-35,1159,-1307
1180,-3975,-7667,451,736,220,1435
1181,2203,-4188,-1230,-464,443,-993
1182,-1439,-2708,-750,-1569,-336,1475
1183,6405,3427,102,1757,-305,-65
1184,3274,-38,-4887,-527,281,65
1185,-3862,2019,-3959,1534,-534,-1510
1186,1134,-7943,-5603,793,-1194,663
1187,-1470,2715,-2623,-172,-1241,-653
1188,-7114,1750,-5530,-268,-701,-1544
1189,-5341,-2960,-5606,11,-1953,-769
1190,-4423,-4460,-7781,417,-1523,512
1191,4727,-4500,5521,1659,467,-435
1192,-2624,-1216,-6184,-1565,1252,320
1193,-4046,-7768,2013,-1646,1139,-1252
1194,-3354,6956,-744,-1163,-1923,1510
1195,168,5345,5398,728,1892,420
1196,634,3076,6774,506,1497,-1325
1197,-1926,1246,-3631,1901,-929,1876
1198,-5244,1804,-1533,-672,1137,-1647
1199,3849,-4399,3135,-176,-1160,1285
1200,-2136,1727,-7786,-1322,-1798,348
1201,2509,-4671,-4387,1084,1649,-895
1202,4991,-7337,1014,-385,-922,-1139
1203,-1895,6369,-1904,1246,1727,-1467
1204,1503,7943,4165,1500,1070,-1332
1205,-5454,5623,3387,1763,110,-44
1206,2518,1868,-5313,-68,1395,700
1207,6491,-4906,-7062,-1494,-1071,-1195
1208,-432,552,-5280,1574,1471,827
1209,2920,4773,-7166,469,1495,377
1210,-7411,4295,6899,-1605,179,1003
1211,-4303,-7306,2429,1120,263,1236
1212,-7041,-1704,-6413,-1362,254,1585
1213,-1240,4398,2912,-508,1649,338
1214,752,436,7477,-1344,1891,615
1215,6811,5398,3838,-267,1713,-1122
1216,-7428,5346,-7110,1395,-595,-1881
1217,-1070,-6388,2459,388,1001,-1031
1218,387,6003,3468,1249,642,493
1219,1565,7237,-1396,-1684,-1368,-1023
1220,5453,1308,-7471,293,-1220,1579
1221,2603,1160,-6306,-1499,704,1630
1222,1353,-7640,-5553,1423,1435,-865
1223,-799,-3633,7557,569,-1353,-1776
1224,1216,-391,311,-1735,-1610,1550
1225,7357,-2481,7520,1624,597,868
1226,2995,4982,1907,851,1118,1621
1227,-597,3144,-7576,869,74,1731
1228,1682,-5270,-3114,-1306,884,1277
1229,-3142,-1769,-1420,-590,1592,1265
1230,6063,-7135,6979,1378,803,494
1231,-2548,4940,-4761,-1593,1093,1340
1232,-1040,-3397,-3684,1724,1912,680
1233,-3573,5969,-5199,41,-1239,-878
1234,5462,-5306,-4715,1061,871,719
1235,-3964,7583,4265,165,786,1146
1236,142,-4946,-2580,1055,-1919,-136
1237,1882,7487,-3983,-1884,-163,-267
1238,-4795,-7229,7694,-284,-213,-1100
1239,-3403,4201,-1300,-169,-893,719
1240,6575,5150,-2193,-1299,-1607,839
1241,5818,-198,1724,269,669,-898
1242,-5672,-7519,4511,1092,621,-699
1243,6431,3992,-3406,-1059,796,-1574
1244,7009,6219,5491,1228,699,897
1245,6933,-7364,-1388,1937,1569,-505
1246,7741,6998,-6466,1261,444,767
1247,5404,1293,5287,-1241,-1923,1774
1248,-5086,-5416,5756,-782,-76,321
1249,576,-2916,-1125,378,-758,353
1250,-2965,-2177,5408,-1886,87,928
1251,-6934,6651,4432,1494,-1147,246
1252,2356,791,6495,-1708,-741,231
1253,-1972,3257,-1494,529,-1780,-940
1254,-126,-6991,-3668,-1036,1856,744
1255,-2167,6046,-1921,-359,-1799,-1353
1256,-128,-7006,6065,445,-897,-481
1257,429,-3955,6498,-1930,847,794
1258,3258,7576,330,-458,-295,945
1259,7985,6786,-6720,858,799,-1535
1260,-6250,-2681,1518,1530,756,-1458
1261,3698,-32,2191,559,-1034,1087
1262,3729,-7201,-2554,1166,-1697,-1548
1263,-516,3712,-6063,-556,-479,-853
1264,-2538,-2524,-1818,-387,696,-1501
1265,6340,6187,-5690,1957,-1417,-407
1266,-3429,867,-6421,659,-77,1868
1267,525,6955,-1976,198,-1623,1669
1268,-1917,-5805,2262,-446,-1110,-1049
1269,-1024,-5397,-4767,-360,684,-1511
1270,3233,-3094,-3487,908,1228,-1153
1271,7590,2124,2644,1447,109,1150
1272,-7232,2902,-3998,-92,-1764,826
1273,1464,5001,-6703,1535,1535,1460
1274,-6659,-5120,6384,1591,-330,-1598
1275,1494,3848,-3277,-582,-436,-1883
1276,3491,-1946,-7505,576,-2,-719
1277,-3314,7662,-106,1778,34,-13
1278,-3529,2423,-4656,-1349,685,27
1279,2510,6308,-2471,1915,498,1556
1280,6214,-3445,2085,-244,-1209,-806
1281,-5037,-133,-1206,-919,-106,-586
1282,1013,4615,-76,-1318,-20,-1602
1283,6176,3363,-1352,-970,-1975,-378
1284,-2917,-1274,6881,1103,-1194,-1704
1285,3114,5843,-7399,449,-1003,-1687
1286,6948,-7584,-750,-1874,592,-1157
1287,-7191,6890,5456,193,365,-1603
1288,2837,-303,-5045,1480,-11,-1457
1289,-1134,7002,3270,-1927,-140,1222
1290,-7969,-1869,-903,1562,-84,-779
1291,1357,-1024,2381,-1422,517,-1134
1292,-2849,6505,-2515,977,1409,695
1293,-7986,-1021,6598,-761,-1816,1769
1294,457,880,-3593,45,1031,-282
1295,-6014,7362,-3032,-1853,1584,-1025
1296,-1728,-7796,6777,1185,-356,-1720
1297,4523,-3544,6900,-335,1250,1016
1298,-6736,6013,6596,1401,-630,573
1299,-6015,2104,1920,-1659,1863,-1785
1300,5347,1783,-3508,1383,-948,1866
1301,-1773,1324,2376,-298,1651,-1313
1302,-3927,-60,-7872,-1822,1958,-175
1303,3189,6976,-3036,1883,-721,-882
1304,-6551,2776,-7803,-1679,949,527
1305,4704,6858,-482,-755,1110,1188
1306,5043,-3275,-6966,1016,-626,-1471
1307,-7133,1280,-3101,624,1058,-167
1308,-5136,-6473,6856,-1161,995,-244
1309,-4407,-7428,1477,-1172,1482,-543
1310,6449,-983,-818,447,-682,-866
1311,6028,-3923,4511,-1083,-576,213
1312,-4407,6728,1855,-467,-1128,1267
1313,894,-1011,4076,247,349,-1684
1314,3936,-5447,1053,-1226,-1614,-32
1315,-6640,-560,7530,-789,124,1584
1316,-7896,-4873,1801,-126,-1292,-952
1317,6010,5123,-6151,-1606,1747,-1726
1318,5169,6380,5140,-1159,-1060,-42
1319,-4509,6114,7139,-52,-1253,-1475
1320,-3460,3915,3129,-562,-389,3
1321,-5811,3425,-2664,1201,830,800
1322,-6082,7034,-4057,1806,-884,1626
1323,-3175,7148,1589,-1845,-1617,-1051
1324,6898,-2919,-3436,1115,1064,19
1325,3416,-5251,3198,-448,1083,-317
1326,-5281,3763,-4050,1479,-656,1189
1327,-5625,-2720,-1001,-611,-889,750
1328,-7764,6863,-3736,-524,1566,89
1329,2825,-1068,7627,-634,-1293,285
1330,-6703,-164,-3167,-1411,-933,432
1331,2458,1538,-609,446,243,726
1332,4034,7083,625,1504,-1577,1256
1333,6731,-26,5281,-1589,1205,1094
1334,2595,-2804,7307,-654,1803,272
1335,401,2892,-2101,546,-814,-177
1336,-2009,-933,3559,98,-29,-811
1337,4238,-1340,-5403,-315,-638,1079
1338,3163,-2084,5687,-1463,-270,-1262
1339,7608,-7879,3823,302,-186,-488
1340,-6363,-7462,-2837,-56,-440,-1779
1341,3231,305,-7291,-1248,-1125,-1152
1342,497,3463,6384,423,-980,43
1343,1358,-3262,-1993,-633,-71,1049
1344,-598,-7312,1920,-387,1018,-1799
1345,-4230,-3443,96,568,-939,217
1346,6822,7629,2228,-1349,-1131,-24
1347,2931,-3968,-4056,1673,718,1683
1348,-4010,-3297,6355,1344,217,1989
1349,-7452,-6418,-2976,109,735,448
1350,-100,-2508,-3616,-1279,-1430,-1596
1351,-7928,-5147,-7755,448,-1461,844
1352,7368,-6597,3978,904,82,-1392
1353,2482,-3192,-7013,1399,1507,-308
1354,-4770,3496,1468,1628,-520,592
1355,-6565,3311,5325,1755,693,-195
1356,7811,3087,3534,-875,-418,-1278
1357,4011,-5362,-3428,1543,1871,-1588
1358,-3865,-563,3244,-1847,549,-923
1359,2191,-4787,-1025,-1651,714,-1295
1360,-4333,208,-6196,-1963,1796,-99
1361,-1136,4296,-2576,1857,1138,-531
1362,3141,4463,7273,-383,1623,1467
1363,-6089,-1869,4271,467,1336,-63
1364,-4153,4518,-946,-1937,128,-1788
1365,-4780,2126,-5017,1327,-265,744
1366,-5015,-1832,1500,-159,-1055,41
1367,4105,-1071,4693,861,-1780,518
1368,-1697,-7793,-7632,-829,-1756,1630
1369,-3140,6077,1575,-286,51,878
1370,242,-7246,-4099,-865,-851,-1914
1371,6147,-392,724,-681,-1079,323
1372,-3189,4506,-152,683,-73,-563
1373,6269,-3862,-62,-1525,-1190,686
1374,-4432,-6906,140,-1369,-942,-1885
1375,-3166,796,-6094,-469,-332,1680
1376,7883,-5282,-4126,-1397,-172,-175
1377,7591,-6572,3456,-1146,-512,-1921
1378,7567,5978,-570,-1169,455,-952
1379,-1176,6379,5037,-1379,-1471,291
1380,6194,-4195,6396,1123,814,-1319
1381,7999,7898,-4205,-1185,408,-958
1382,-7787,693,2879,583,-1502,-1751
1383,5907,-7132,4382,-579,-794,1840
1384,-3747,7184,1902,-123,-577,1455
1385,-5184,7393,3391,-714,1887,1129
1386,7907,1105,-2883,1108,406,1677
1387,5201,2073,250,1537,-706,1456
1388,-4647,-5987,4273,-259,-1737,-255
1389,-1513,-3626,3552,847,-658,-794
1390,7920,-3954,7688,628,49,-583
1391,4907,1378,-1281,121,-682,1457
1392,7075,-4068,-5983,716,-1730,1809
1393,-2706,4759,1367,-704,290,441
1394,-295,3964,2866,1907,-1911,-1947
1395,5365,5966,7418,-648,279,668
1396,5843,3056,4093,8,-580,1519
1397,-6810,5034,-5718,-1584,952,-1729
1398,-2555,5597,-3910,1448,-217,-1482
1399,7162,-3023,3142,-121,1348,520
1400,-3863,-7759,-149,-1184,1490,73
1401,-6568,-7799,2268,-1558,1809,-951
1402,3143,6915,-717,137,1590,930
1403,-4013,-2578,-3740,-1675,1736,673
1404,85,-1918,-2649,1615,1721,144
1405,-3460,2003,-5596,-220,-1059,720
1406,7034,1271,-343,-217,960,550
1407,-2931,6056,-2702,1822,1755,1974
1408,7210,-4350,-1314,-500,-1875,-1187
1409,1062,-2866,-7206,1755,-1852,1493
1410,1266,2492,-3047,175,-1636,1699
1411,7371,-3750,3724,1704,-1195,-793
1412,6810,3460,-1692,-112,1674,-796
1413,1526,6683,-4666,224,-730,685
1414,6111,2651,-4569,-393,866,1463
1415,2933,-367,-5033,-536,-416,-1030
1416,3818,-5932,-1929,-279,-817,-1318
1417,-5157,-2434,2369,1568,-1959,126
1418,-6040,7156,2863,-1271,-262,83
1419,5681,-3361,-4646,963,326,-923
1420,-1213,6930,-4251,-906,-1979,116
1421,1917,5506,5934,558,-1568,825
1422,2387,749,-1819,-1694,-926,-20
1423,5725,-4068,-3531,1331,-1776,-1147
1424,5612,-200,3323,1527,1327,-864
1425,1680,3491,-7900,443,1353,-1329
1426,4104,7708,-2131,-1869,206,-1736
1427,2974,-7168,6709,1294,734,1637
1428,6440,-2253,5156,-1829,-772,1867
1429,160,-295,-339,1688,1494,498
1430,7385,5759,2025,-1138,1994,1669
1431,3858,1124,3959,-1,-999,-1763
1432,1879,4470,-7498,223,583,-1458
1433,298,-3122,3375,-1395,-337,-1200
1434,-2077,-4998,5912,1807,-431,-1998
1435,3641,4616,2321,1241,-102,937
1436,-5120,1503,-7125,-691,137,-1288
1437,3334,-2671,-2357,851,247,489
1438,-2399,6618,4620,-1253,-733,-1676
1439,4115,2653,-7532,-1725,1776,-816
1440,1500,-3489,-7479,219,1773,-1789
1441,4420,5179,3063,-757,1191,-703
1442,5998,2808,2932,-287,874,-1589
1443,-4805,2469,-584,-1136,1036,-1054
1444,-7033,-1967,-5058,1209,-1473,-343
1445,6918,-2306,6237,121,-750,-1702
1446,-2842,4800,-5507,-1481,336,-1188
1447,-2275,-3304,7599,-1258,1464,-1071
1448,-1715,7897,-3406,481,-1656,-30
1449,4431,5814,-2156,269,-1533,-845
1450,1277,1568,-4938,1417,-1980,577
1451,-3329,2567,4896,867,-458,-960
1452,4061,7722,-1359,376,-1173,1357
1453,7047,2441,272,1592,1234,1111
1454,745,3648,113,-997,1010,-1878
1455,-304,5206,-80,-444,-1735,1260
1456,3878,-475,2502,70,1543,1248
1457,-4742,6677,-3370,-1574,1218,-611
1458,-339,7558,-1164,1640,1847,-195
1459,6890,3144,4975,882,1675,-460
1460,-1875,-895,1204,549,545,-1610
1461,-5489,433,3550,-1202,-716,1297
1462,980,-7772,-7001,1106,291,-1732
1463,-5277,-2490,7984,-1967,-499,448
1464,6367,-3494,5860,1212,1302,-402
1465,6328,2466,-5512,1005,-1198,-642
1466,-5933,-3395,-2521,548,448,1817
1467,-3234,3604,-6719,-1461,-1089,1012
1468,1896,-7478,4925,-47,1149,1827
1469,-21,-4289,-6468,-1168,-1265,-1607
1470,6558,-2458,-4047,1359,1927,595
1471,5347,-7953,-1965,1860,-528,-196
1472,-3874,6537,-4957,1366,1872,429
1473,-727,-2911,1747,1495,892,506
1474,7810,4794,-7942,82,-1005,-1295
1475,-5778,5309,-6992,-970,-18,1975
1476,612,1906,-2221,160,-412,717
1477,-6637,-2919,-1080,-325,-570,-957
1478,-3333,-3276,-6395,1401,-141,-1902
1479,2430,-7130,6394,1877,1136,737
1480,4169,-7402,2388,850,-207,-1012
1481,-2573,-129,-7151,-304,-1987,22
1482,262,3375,-6248,-356,1997,1119
1483,-7007,-5813,-5064,-1619,-458,767
1484,1503,2585,-1549,-1345,1542,1803
1485,-5051,-2088,-3302,1620,-1173,185
1486,7553,-4922,-7637,-983,1802,-686
1487,-5082,258,-6646,-841,-713,142
1488,-2340,-6495,-6801,-1289,1448,-1739
1489,1824,2118,2562,-1410,-1284,375
1490,3550,5622,4519,-1840,404,1863
1491,1593,-5653,1474,-283,443,-1264
1492,-5464,-4536,-5945,848,268,1239
1493,-3433,-4080,7196,1322,66,-1412
1494,2994,-1006,-4588,774,-197,288
1495,991,7817,1925,-1779,555,-1872
1496,6622,4172,6345,1684,-862,-1155
1497,5819,505,2791,765,-1856,516
1498,-3920,6728,1782,558,1896,181
1499,-2422,6506,3094,1730,-908,-11
1500,7736,-7663,-6975,854,489,1190
1501,6112,-3460,-7223,-1043,-673,1470
1502,-5061,3753,2138,-680,-1301,1058
1503,481,-3193,7253,-30,-265,1067
1504,1951,3127,386,1003,1721,1139
1505,-3733,-7786,-612,-730,-1332,1764
1506,4355,1043,-3783,1015,724,1132
1507,-6541,910,-2996,-1892,789,-530
1508,6842,-6442,-6067,-1497,191,-754
1509,2109,1018,-6296,263,-1289,455
1510,-6538,7406,3346,1298,976,-891
1511,284,1114,-1794,-1141,-1089,1592
1512,818,6943,3615,-1620,-1781,197
1513,-1049,-4033,4913,-94,1054,-1853
1514,-3551,-5275,1289,-261,-1079,-385
1515,-926,7278,-381,-1049,-744,1797
1516,-4917,689,-5166,-647,-259,839
1517,2215,-7426,-4800,-1596,753,-1239
1518,-277,678,-7281,-279,-1257,-1627
1519,-2941,-6017,-1960,-520,-787,294
1520,-120,2467,-7016,-890,-155,1634
1521,-1718,906,1721,603,-1038,505
1522,-596,3654,3394,176,884,917
1523,5916,-66,6630,1509,-1369,-366
1524,1349,7837,-671,-1785,123,-306
1525,2502,2315,-5586,871,-317,616
1526,-6332,-7206,-1564,-1849,1964,715
1527,-5427,6650,-7342,1111,-1901,1788
1528,6281,239,44,-1642,1444,-1340
1529,313,-2939,1163,-1533,457,-651
1530,3115,4760,-2795,-1757,-390,-959
1531,4886,5936,-390,-1985,646,795
1532,-6659,-2496,7383,1790,-1155,1551
1533,4569,-6672,-6129,-1719,128,812
1534,3906,3829,-4934,-1605,1899,1614
1535,1055,5622,-3071,-623,-1716,-1737
1536,6803,-5517,2201,1876,-1686,905
1537,-538,7857,-3099,1564,658,328
1538,3642,2715,3897,-123,-801,-1000
1539,298,-5407,4974,-451,1434,1618
1540,-3427,5501,1233,1971,-88,756
1541,-7971,-7361,-3108,687,1160,1045
1542,604,5439,-1207,1195,-1577,1673
1543,7797,7119,2068,102,-300,-177
1544,1253,104,-4413,-1997,822,1228
1545,6583,-611,-3827,-1537,1633,952
1546,-2322,-3476,-156,396,500,1175
1547,1540,-7827,3379,944,528,-1627
1548,-7306,2194,322,-1531,293,619
1549,-4143,-7530,-7509,1816,393,1754
1550,-5346,-6788,-7735,-456,-1544,112
1551,108,-6806,-4182,-949,761,1108
1552,4582,-2519,-6307,518,-1201,1188
1553,7820,7669,-1871,1768,488,758
1554,6871,6018,-4116,-881,-1814,1906
1555,-6395,-5584,5168,407,265,-976
1556,-168,-7429,-169,-69,-149,216
1557,-4267,-3297,-3997,106,-1546,-1294
1558,2728,5674,7872,1497,-1225,1325
1559,2761,4277,1245,333,809,659
1560,-1938,-563,-6502,-1658,1061,-896
1561,5628,-2087,-3959,-433,732,485
1562,2486,-7042,-4401,-1774,-1698,-253
1563,-5447,7028,-5,136,1287,1725
1564,-7925,2040,676,1637,-565,-1807
1565,-359,1995,1124,1260,-366,-1230
1566,-6186,-3477,2903,646,15,-729
1567,-7068,-1984,5103,-1097,643,-1113
1568,-1799,6766,860,-751,201,606
1569,-3338,6775,5433,-768,-600,-565
1570,511,4227,1815,989,-1045,722
1571,-5273,-5291,-2440,-726,20,74
1572,-2571,3589,-5637,-410,-75,1616
1573,4710,-4410,6229,-1976,1042,1458
1574,934,4647,5037,-1298,1074,-1955
1575,-4604,-6365,-6883,54,-896,-131
1576,-6295,-2497,-3517,1507,816,-1617
1577,3612,-3243,2786,-1967,685,-202
1578,6806,-7927,2835,1966,-1817,-916
1579,-1078,7548,-5484,-1431,1937,-1204
1580,-6134,-5532,-2936,-600,347,-1931
1581,2475,6296,-2651,903,-1081,-396
1582,-6718,-1036,-3087,1839,125,835
1583,-4878,4836,-1494,-1469,-1246,717
1584,-7893,-3057,6643,1400,1196,1347
1585,-2895,-1672,-4105,-904,-492,-1130
1586,5488,1191,870,-1505,-1880,-821
1587,7939,1264,-5808,289,1625,1357
1588,5210,-88,4758,-1050,474,1788
1589,1218,4926,-111,173,1124,1219
1590,5988,3048,6478,971,1712,1570
1591,-5136,-2709,-6668,1141,920,-721
1592,548,-265,-4515,-1968,784,238
1593,-838,497,4149,-1520,-1196,-872
1594,-2818,-3572,6447,1878,1355,793
1595,923,-1192,-5818,832,1129,748
1596,400,-4070,-3041,-981,-1648,-1905
1597,2919,-3362,-7570,1843,-1662,91
1598,2193,-3062,-7170,1903,876,324
1599,1572,2699,6961,1283,-1002,1554
1600,-6210,-5510,587,1213,3,-233
1601,1149,-2933,3387,-1829,-1324,-157
1602,6760,3032,3594,-1982,-956,665
1603,7869,3100,-7747,1714,-649,502
1604,6838,-5574,-2011,-1265,1789,-115
1605,1619,4331,1346,-1871,-976,-713
1606,-7507,-4456,6511,943,-1994,1882
1607,-5089,6732,5315,1489,-1400,-752
1608,-7179,7016,5468,-1405,-258,-1085
1609,-6424,5761,-6380,717,1908,1993
1610,4915,6544,-3155,-1403,-714,-402
1611,-7505,-3820,1928,93,-1240,-420
1612,7638,7558,-2751,-1995,1020,1274
1613,-7676,2152,5105,-1758,-555,718
1614,1358,-1250,2014,-1104,-545,-346
1615,-3281,692,5478,150,190,-1977
1616,5682,-2670,3915,630,927,91
1617,-7728,6903,-5779,-1587,-92,1092
1618,1740,5420,7906,-1017,-1556,-1279
1619,-505,3829,-656,932,-1479,790
1620,-653,4596,5583,1994,1206,1195
1621,-6376,-6494,-6140,-1850,1845,533
1622,4417,7935,3508,-1003,291,-1308
1623,6106,3188,-7093,445,426,475
1624,3919,-7539,-3716,777,-259,-1529
1625,-1229,-390,1385,-1160,-26,194
1626,-3708,3297,-1030,780,1533,-920
1627,4061,594,5381,-1491,-1010,-185
1628,6508,-911,3027,-1313,-482,-805
1629,-2680,1003,3342,-123,87,-258
1630,2539,-7290,-7433,922,-1875,875
1631,1616,-584,-7067,1660,-1092,-699
1632,4360,4206,6467,-1702,-691,-1760
1633,-4652,2941,2278,-194,-1817,1980
1634,5431,4522,4840,401,686,1808
1635,2653,-6948,3081,-1968,-1417,1117
1636,3671,-4699,-672,441,-845,438
1637,2480,6024,-6696,-1127,-535,150
1638,5627,-7997,-6727,894,-996,678
1639,2264,-3098,-561,660,-673,-516
1640,6602,-5836,-5441,-790,958,-1079
1641,2368,-5345,-4399,567,1191,-1302
1642,-7620,-2926,-4085,-1722,-231,257
1643,-152,7033,-29,-143,-1298,-272
1644,770,-4523,-3530,1781,-1396,1548
1645,1526,4228,2833,-1405,1376,346
1646,4931,4449,4621,-1486,-1568,1373
1647,2842,-3237,-4036,297,736,-134
1648,-3178,-372,-3902,-133,-966,1203
1649,-7996,-4730,-1434,-1275,1033,-650
1650,6759,-3847,3171,1130,1440,420
1651,-5569,-2915,-7672,-605,1641,-719
1652,-4709,2314,-1797,300,844,1744
1653,5495,-3222,-5017,1650,726,1842
1654,4571,4093,-4560,-469,661,-1841
1655,4331,-876,-4270,939,115,525
1656,-7589,-2722,2936,-915,338,84
1657,-1472,-6375,-2885,1254,1852,-701
1658,6961,7958,-4537,-741,901,539
1659,4282,-5548,6240,-997,-13,388
1660,-4421,4475,-1272,8,-1510,701
1661,5445,-661,2197,-1467,1758,-4
1662,1162,-4976,1155,-1110,-487,-990
1663,476,3760,-3813,-981,280,140
1664,7117,-5053,-812,-346,516,-895
1665,-269,6806,-2979,-1144,-1232,1854
1666,125,-768,2042,1393,-1014,1838
1667,-1667,946,-3557,497,-73,174
1668,7678,-7160,-7528,251,-777,1840
1669,4660,6838,-3865,1014,1882,641
1670,4063,-6871,7341,480,1114,61
1671,-1677,-2076,7965,1274,659,-1522
1672,-4048,-1909,-2578,-229,-1405,1318
1673,2575,-3054,-7478,-221,-1102,281
1674,-7606,-3592,2974,285,-1280,-193
1675,-3256,4555,-1789,1047,1072,710
1676,7246,-1559,2584,1089,59,1467
1677,4076,-5536,2287,260,1594,-1516
1678,5849,7916,-3482,-1861,1652,-1259
1679,-4257,4106,-3345,169,-1742,1436
1680,1092,1835,5259,1908,-1676,-825
1681,-6698,3427,1223,1318,-1400,1489
1682,-2157,3623,3610,-382,-1323,987
1683,6008,5701,4445,-34,222,-95
1684,5068,-5594,300,192,-82,1963
1685,-4124,4926,-1275,622,-3,-1612
1686,2822,3096,2437,-628,1850,-1058
1687,2229,4966,-3636,-588,1028,-1851
1688,-7836,447,3199,583,-41,-723
1689,1350,-7671,2863,-325,-65,-1912
1690,-5119,-6824,5848,896,756,1196
1691,-4755,-6008,1514,-1681,1972,386
1692,-403,-1682,5598,-851,-515,-1584
1693,-2243,5461,-6214,373,1904,-584
1694,2553,2373,3395,-523,-258,387
1695,-5352,1911,-1584,-146,1210,-698
1696,491,-6909,-2648,-1023,799,461
1697,-4976,-1948,3455,-1850,1496,-1802
1698,2317,4024,-1574,-393,-220,-184
1699,-5565,80,-5538,613,64,-60
1700,5195,-4398,4159,1614,-1186,824
1701,183,7048,-535,-1183,1512,-1843
1702,3878,6536,-1656,422,-1415,280
1703,5619,-137,5451,-1893,-198,1262
1704,-6377,-5812,6336,1557,1302,414
1705,-5346,944,-3640,1632,1594,-288
1706,4964,601,4182,-880,-1598,330
1707,-4171,460,4986,-1500,979,1703
1708,-7572,1376,-2799,1365,-438,426
1709,-5127,3456,2294,-933,-970,-570
1710,5012,-7566,-5860,1026,1726,-1657
1711,-2813,-4296,-6302,-1675,1737,54
1712,1239,-3207,7571,1155,-208,-927
1713,6783,-1882,-2278,-830,1440,1877
1714,7866,-188,-1312,1571,1182,137
1715,-2425,-50,-5112,1779,1846,-877
1716,7032,5476,6144,729,-472,56
1717,7654,-6975,-3404,-1784,1800,-723
1718,-5122,7272,6216,-182,329,-1047
1719,-2620,-5169,-253,135,-1539,-129
1720,-476,2203,3638,-1051,1679,1650
1721,-997,2993,6949,1466,-1995,-442
1722,2616,2369,-6851,529,1556,1382
1723,6742,-6831,2462,652,1917,1778
1724,-5017,-1163,4569,752,-1239,-1291
1725,5083,-5916,1271,641,1985,76
1726,-625,-6044,-466,1124,1202,-741
1727,4183,5857,-7663,1504,361,1197
1728,796,-5057,-5051,1521,1910,1692
1729,-5706,2071,-4897,-466,-1652,1946
1730,-7222,-3571,2605,1458,1891,-553
1731,1139,2106,1791,-55,-1363,-675
1732,6741,5235,3512,1618,1526,998
1733,-4576,-7893,6641,-623,-1277,1978
1734,6794,7560,-7269,1220,1124,253
1735,3115,-5289,6671,-539,1867,371
1736,4661,118,1619,-1036,-939,-1096
1737,2556,6266,7701,932,-1291,-1597
1738,-2385,3512,1143,-667,1742,-1691
1739,-7992,-2585,3893,-1017,1061,663
1740,6170,5880,1064,-412,-815,-1690
1741,5295,-1502,-5910,1199,556,1074
1742,-5222,1691,3307,450,-416,-1135
1743,3316,130,-7910,-442,-1027,-1764
1744,-3348,326,-6258,105,-53,-305
1745,-1378,6174,4390,-1959,-693,992
1746,-4384,3867,3784,-1226,-1439,13
1747,5488,6133,-4291,1451,-1544,689
1748,-2641,4763,6341,-1707,608,-834
1749,-7095,-3162,-2063,555,-1374,-1161
1750,-7299,2311,-6457,-1460,507,-1022
1751,-3460,-5902,4542,-1791,-606,1643
1752,248,-806,-3015,-174,-848,-1996
1753,3846,2300,-7560,-1142,1190,-1496
1754,7909,4968,-694,672,-643,-1595
1755,-3447,-6165,3904,-1689,1464,1400
1756,5568,-4927,4683,-910,-1619,-1369
1757,4887,-5679,-1930,-1632,-939,162
1758,-2184,-2436,-6906,32,-1994,-1554
1759,-7158,7148,5159,-1222,-753,988
1760,6781,371,7647,-323,-207,-156
1761,594,-5289,-2954,-917,-1535,690
1762,-4098,3889,-7075,396,-525,1565
1763,-5902,-5908,391,-209,-938,-134
1764,5172,241,4268,999,1967,-1159
1765,-2001,-2591,3474,-751,64,1271
1766,411,5733,5403,1803,-1595,-1859
1767,-7661,-7719,4273,1324,-1890,1432
1768,4029,6831,3616,126,-1307,914
1769,-1794,5532,4780,1322,-132,-1411
1770,833,-3436,-1292,-1366,-1050,-1198
1771,-6675,-93,-7234,1156,-88,1646
1772,-5077,6032,-2701,-649,715,-780
1773,5329,4929,-703,-810,-1277,-182
1774,-6090,4280,-2135,-1131,703,939
1775,-6705,1951,-7631,-962,532,373
1776,-902,-4063,7337,-1136,-512,1774
1777,-2065,2009,-6753,1673,1910,1255
1778,-6974,834,-1622,-852,-1808,1636
1779,-5142,6114,5057,524,541,-1865
1780,2735,1752,-671,-1924,-1340,241
1781,4868,4573,2385,1855,30,137
1782,-5862,446,-3119,-1276,-697,624
1783,2124,7010,1196,1462,-773,1662
1784,-5319,-5572,4952,1058,-131,199
1785,6514,-7186,61,-1170,-1830,-1334
1786,-5383,-3873,4695,886,-1039,-1598
1787,1768,-7928,3307,-1848,1673,361
1788,6865,3330,-3033,-1317,708,640
1789,7591,5788,2341,-371,-338,-706
1790,-3778,6515,-314,-1974,1504,-1570
1791,459,2105,-4961,995,629,-808
1792,7168,-7173,3632,1360,1752,182
1793,861,4562,-1367,1509,468,963
1794,-1881,-138,-814,-1509,628,804
1795,-1529,7728,2701,-678,-1594,894
1796,-555,-4127,6933,914,1511,-1908
1797,3394,-6573,-3976,1839,-882,-312
1798,-1000,-5864,6024,568,-359,-1210
1799,2515,6168,4356,755,1650,248
1800,-215,-6447,-6946,1370,0,1755
1801,1331,6742,3501,137,1629,239
1802,601,3912,7297,658,1577,-407
1803,-7677,5971,5175,-1614,-902,-222
1804,-5191,7137,-7278,-1962,1863,-13
1805,837,1137,-2247,1144,-1829,857
1806,5141,7276,2217,1085,1923,-1063
1807,5056,-6591,5715,-1930,-1645,1912
1808,2106,-6678,-2943,-1695,1769,-1218
1809,1401,4292,3166,-230,-949,281
1810,2452,-2599,-4619,1077,-1955,-28
1811,1102,3238,-7611,1949,-1546,779
1812,-6164,-4263,3809,1881,-601,-931
1813,2265,-6237,-6201,-159,1767,-916
1814,1533,2890,2766,755,1543,246
1815,103,1655,4466,1174,-1321,1005
1816,-1789,-7982,-1202,1857,-1709,-616
1817,-5571,4991,-7798,1765,1497,-1404
1818,-5455,-6208,619,1231,1881,-1834
1819,-2142,-5943,3952,-1207,-513,947
1820,6946,-1722,-6551,1307,-1083,-54
1821,3954,-200,-1650,-1705,-862,-598
1822,-7050,-3093,-6842,1716,1215,-1083
1823,4090,-4001,3836,-67,1541,1102
1824,-6800,6289,-5179,1221,-1990,-66
1825,-5379,521,5181,777,1080,-103
1826,5756,5525,1540,1356,1662,-150
1827,-6990,29,6534,-123,468,857
1828,-4408,2049,-43,-619,-1749,503
1829,1448,7768,-6217,60,-1635,1173
1830,-1637,-7764,3431,1322,1507,-1841
1831,1800,-613,-6485,85,-373,52
1832,-7947,-4185,1944,161,-161,-1307
1833,-7097,-6826,-680,1173,-49,1883
1834,-817,-4430,-7948,1812,-683,1748
1835,2461,-6289,-1005,-1214,-1923,1580
1836,259,5691,617,1114,-1666,1477
1837,5826,-4316,-1195,-1746,-1453,377
1838,6298,-1176,5857,1594,207,1361
1839,-601,-3961,1245,1505,1057,-810
1840,-5330,1987,-4588,1882,640,-1495
1841,1162,4543,-1592,1693,1094,-1094
1842,5814,-6129,2410,907,-968,1312
1843,7884,5822,-1110,575,649,126
1844,1629,-2459,-4974,576,556,537
1845,7675,-3885,1077,-1799,1780,-1939
1846,-898,-5081,1364,785,-1093,-1107
1847,-4778,-2040,6746,1749,51,-563
1848,-4932,3751,3773,-606,62,247
1849,-1332,1447,-4573,-723,-194,-272
1850,1506,3329,3118,-1816,-20,-1076
1851,1410,321,-5244,-890,1853,1339
1852,6668,-7296,4246,17,1875,397
1853,2499,-3825,7610,455,-1029,-1967
1854,6121,-7154,5597,1039,-535,1182
1855,4053,-1766,-6101,1316,-1393,-1391
1856,6957,-6958,3962,1881,977,-1657
1857,-3347,-5819,-4995,1323,-1927,1895
1858,5001,2201,-3562,1404,-1306,1536
1859,-5073,-6028,-2542,64,1565,-142
1860,728,-5863,-7739,-40,-320,-1803
1861,-2837,-6215,5104,-1462,1079,204
1862,-3286,6574,108,1483,1258,-1639
1863,-826,-3822,-235,759,-949,-175
1864,186,-5754,5524,1578,-1805,178
1865,-481,7992,7985,1165,777,-1017
1866,-3827,-6050,5918,-616,1927,1737
1867,-6419,867,4866,350,-1857,-1866
1868,-6672,2528,-6609,1382,199,-1648
1869,5620,1583,-459,1286,-230,-256
1870,788,4652,5131,-817,1450,1693
1871,2641,-3903,203,-423,1053,-1012
1872,3852,2209,-3039,-171,556,1840
1873,5512,7159,5650,756,81,-75
1874,1966,-2419,-2750,-904,1680,-891
1875,3545,6505,-7326,1879,-1697,1903
1876,814,-2358,-4073,-1436,-1053,-1768
1877,6892,4747,7056,-1842,10,623
1878,3307,-6440,-7666,261,-1421,7
1879,-5280,-2758,488,-1515,1029,1838
1880,-1795,-1041,2343,-1433,368,-1226
1881,965,-5263,-7707,-331,-1517,1152
1882,2579,6185,6115,727,1844,-1662
1883,1351,2416,6809,-1934,-981,1966
1884,7038,4573,3489,729,1089,1707
1885,1670,-7975,5281,1317,-145,-317
1886,7766,5591,3575,1402,-233,-1973
1887,7971,-5738,6093,-113,1252,71
1888,4858,-4620,2237,-648,1052,1135
1889,4518,2543,7881,1223,358,1566
1890,-5156,2703,5113,1968,-1133,269
1891,6680,-2748,-6215,-1017,808,-1081
1892,7567,2659,-520,-553,-1513,1865
1893,378,-2860,-4719,-638,1688,492
1894,-3353,4694,-675,-453,833,-1810
1895,7483,809,734,1916,246,536
1896,-646,-2391,-7807,-1067,-1763,-145
1897,2117,-2504,-7565,527,957,-1595
1898,4236,2203,-6904,-1012,13,54
1899,3024,-6125,-2615,1037,1188,-1696
1900,2535,-1143,-2864,861,-1912,-1821
1901,-528,411,1818,-1145,-1564,1763
1902,5788,5888,3773,-407,1272,-1859
1903,2995,-4439,747,-171,-857,-986
1904,3121,-3384,-5993,-808,-384,-1238
1905,4882,-1756,7044,-567,812,690
1906,-112,7199,1027,475,-1437,-1609
1907,3919,7897,-5420,-756,1051,-412
1908,-955,2373,7307,-1847,1777,1251
1909,-1766,6333,-1566,143,-975,-1598
1910,-4077,-4002,6626,336,1732,-892
1911,-3126,-5816,7061,186,-1471,-1154
1912,-5533,-1073,-6275,1572,-1508,1580
1913,-4227,6034,-3325,-445,1557,165
1914,-4823,382,-2136,679,1565,-259
1915,-2749,-812,-5179,195,-3,-209
1916,1048,-3394,2268,-1519,-1612,732
1917,6259,1413,5133,-1929,1202,1107
1918,4587,-6652,7076,1760,-890,1837
1919,-7273,3619,4477,736,-792,1727
1920,-1731,5658,-6531,1542,689,184
1921,-7979,-3145,2847,-1606,541,-1567
1922,-2628,-5041,3238,-720,1251,108
1923,-4823,-4665,4159,-840,311,-1254
1924,-1176,3884,-3013,-1183,452,-1069
1925,6846,-1513,-4064,505,-578,-996
1926,4394,1164,4818,447,-1387,-139
1927,-2335,-350,2841,-64,-1582,-790
1928,-3392,4105,7224,-1244,879,-977
1929,-2094,4630,1653,-1192,1348,1695
1930,5992,-6881,6,1125,-1219,545
1931,-6313,5766,-6862,-1769,717,-649
1932,-4938,-1192,-4511,690,-558,1980
1933,264,4741,3494,-1820,-1027,23
1934,5890,3638,-3378,323,473,-272
1935,-188,2898,-3774,-1543,952,-1978
1936,-770,2329,5868,189,536,-1850
1937,774,955,4803,588,1258,-585
1938,-7305,-6600,4841,254,-1766,409
1939,-5193,-7485,-3856,957,-593,-1644
1940,1387,-4945,-4587,-1995,-971,59
1941,1718,1152,-6966,-1687,842,-707
1942,3565,2020,-7919,-1114,-1721,-1509
1943,7071,-1812,-7819,1892,-945,-1118
1944,-1473,2327,-86,-967,-269,151
1945,-7337,-4685,-7158,-1721,-1719,-1586
1946,6334,-1278,6674,-992,1490,1138
1947,1421,2388,1042,-30,59,-862
1948,-7121,-7298,4058,-1834,1190,-1490
1949,1275,-7345,-3861,1943,-1232,-1589
1950,4302,7842,-6183,-1266,-1645,1590
1951,-2772,-7835,4091,1102,-1265,-68
1952,-1625,433,3745,-530,-1794,1481
1953,7984,-4139,-2700,1592,250,1542
1954,-2169,-68,-4606,-64,-1984,553
1955,5009,-376,4241,1272,-91,1257
1956,-5739,6839,-4879,1786,498,1556
1957,6810,-4257,-578,-120,511,-1596
1958,459,1110,-3448,-1890,412,1332
1959,1974,-2453,676,-63,389,-1844
1960,5184,5206,-4186,-730,-429,-200
1961,2177,-4927,1868,-1826,953,486
1962,2482,-5541,-3920,291,-1699,1164
1963,5304,-5151,6361,-1538,1797,-1248
1964,-6736,-6942,-7681,-1150,927,1414
1965,-5900,-657,3556,-1414,-664,-1343
1966,7860,-2153,7575,310,524,540
1967,1718,-5269,5866,-1631,-1709,-929
1968,-1598,5715,1537,876,-1240,1373
1969,3849,2704,2511,233,791,896
1970,-5802,-4565,-2764,-1264,178,1685
1971,-148,-919,2679,-1451,406,-390
1972,2986,-6804,4959,-1727,-3,374
1973,6357,2520,914,389,168,1819
1974,5738,-5430,-5159,907,1294,911
1975,6367,-5868,5558,-1563,829,512
1976,1799,3730,-6380,885,1033,375
1977,-7247,6184,-5735,910,1353,1277
1978,2626,1400,126,-740,-1520,-701
1979,1363,-7532,4637,-619,474,-1251
1980,-1097,-4547,7675,-120,599,-1472
1981,930,-3098,5796,-330,697,486
1982,-2133,-3013,5249,956,1530,919
1983,7162,1446,4324,639,404,674
1984,956,2382,2846,30,299,-1007
1985,-6863,-5113,-4695,-886,1106,1243
1986,-3404,7424,6501,614,-1638,17
1987,6019,2479,-6151,-1581,729,-985
1988,3193,-1607,-7522,1140,1643,-577
1989,3172,6944,-4312,-1479,450,-1761
1990,-5622,4612,1040,1133,-61,372
1991,5989,1848,-5124,854,-354,1163
1992,-223,-5435,-4804,-291,337,878
1993,684,-7558,270,-848,1065,1172
1994,5497,2719,-6886,1702,-854,1533
1995,4810,1104,1866,554,177,-1413
1996,6736,-5325,2593,860,1764,799
1997,-6578,-2236,3330,734,-517,1766
1998,5189,6793,-2469,809,1100,-1834
1999,2571,7202,5581,1425,-939,1157
2000,-3036,7017,4545,21,-1013,-327
2001,-6113,2742,7438,-1197,377,1062
2002,4991,4066,6099,1633,72,1787
2003,2509,6071,-5592,-776,1390,-495
2004,5818,-7820,6961,1779,1097,1894
2005,3469,258,-3227,-570,-431,417
2006,-2661,6980,829,1235,-429,180
2007,7467,-169,4322,-1907,-1320,324
2008,3369,3601,-605,-891,1387,97
2009,-5789,3515,-4923,1648,987,-408
2010,-3813,-1704,4270,642,477,-671
2011,6395,668,-7485,419,-414,-437
2012,-54,7863,-269,671,1345,-256
2013,-6700,7114,2381,-5,478,1912
2014,7256,-7558,-7366,1326,-1905,1280
2015,-3398,-4340,-5467,953,1731,-1365
2016,4761,-7563,677,986,-1883,627
2017,-278,5088,3854,-1034,-862,-861
2018,-1790,-4543,6176,1490,929,-1745
2019,5885,3157,-244,956,-1848,1934
2020,6458,2563,5269,-1263,-470,881
2021,-3093,-237,-7754,-1682,1025,-217
2022,7863,-3049,6702,-1881,-1404,-532
2023,7575,1975,-7400,-597,399,-1048
2024,2772,-3654,7031,-952,1788,1631
2025,7844,-228,2310,681,635,1027
2026,651,-493,2384,-876,-1689,1156
2027,283,5751,3923,-1488,-298,115
2028,4731,946,-2427,228,-1227,497
2029,-7316,-3176,5560,1343,-1718,-648
2030,3722,-3365,-579,463,173,1074
2031,-5506,2516,1140,-1109,-1103,-1650
2032,1584,884,6401,-1885,-873,22
2033,3015,-1113,4754,1521,1873,-275
2034,5634,5648,4275,1532,-90,-695
2035,6804,6305,6101,-940,-1411,844
2036,2726,1591,-1695,-95,-513,-1875
2037,-3815,4120,-3345,1986,-1645,1905
2038,-6309,647,7437,-1490,1404,-1719
2039,-1662,-4332,5468,-671,-1790,1137
2040,3495,5928,-3954,-865,1280,1565
2041,-4688,-5759,-4404,-1763,-1717,1319
2042,-490,6080,-4939,-1965,561,75
2043,2890,-4896,-4372,1703,-1892,807
2044,-5224,-5535,-5940,-1161,-328,-1831
2045,-3551,3739,-2231,-1437,-1468,412
2046,-3087,-2424,-1091,-1043,-1688,-1005
2047,-1885,7164,3479,1372,-970,1595
2048,2306,980,-27,-133,1678,1634
2049,3971,-3362,-4010,796,-78,-53
2050,-3418,-1785,6765,357,509,-871
2051,-6568,1539,-1937,-558,1662,1268
2052,-2547,-2982,-3474,1314,1095,715
2053,602,-3475,-2671,-193,-226,-1055
2054,1976,3265,-2926,-1595,-1858,1390
2055,6001,7210,-5284,288,496,765
2056,-79,-4093,-6579,-937,-446,1815
2057,34,-421,-6418,-851,1472,-557
2058,-5536,1610,-3382,-404,-1386,522
2059,5789,1582,2840,1086,1986,1976
2060,-6303,-1863,-1516,-879,1517,-1779
2061,-7659,-1286,-5541,1882,-660,-775
2062,4963,-4143,-4003,-614,753,1486
2063,3679,5860,4691,-1248,-1185,1929
2064,-1115,-5585,7851,1917,1638,623
2065,6541,-3010,577,186,-853,-593
2066,1806,-7660,-5081,1368,-603,99
2067,5632,-121,-5806,-417,-842,1843
2068,6553,-3817,1210,-346,-1894,903
2069,6104,-801,-5226,-1740,324,-1862
2070,-1579,5347,694,-130,-1156,1342
2071,2366,192,3096,-903,1586,781
2072,-1347,3140,6100,-698,-1697,-1925
2073,138,-7583,6236,-735,962,1038
2074,3050,4311,-162,138,187,-318
2075,4731,6676,3267,-885,-1203,1415
2076,4370,3612,3197,490,-769,1890
2077,598,7360,1658,-1555,1005,-1713
2078,-6678,1715,3039,1116,1578,-1285
2079,-7311,-5412,-609,-719,-811,-805
2080,-3669,-2598,1413,-810,-384,73
2081,-7914,4919,-6152,1851,-35,-1446
2082,-5448,3107,-2534,-1608,531,-664
2083,7891,7213,7447,-580,815,1933
2084,5801,3715,2436,-430,967,1431
2085,-2256,576,5645,971,-693,1139
2086,7639,-1361,3808,1051,-935,1607
2087,-20,1237,6774,-500,1735,152
2088,-7979,-5555,-617,1965,-389,1588
2089,5420,5598,7221,-1669,1324,-236
2090,2342,-5502,-4659,9,764,350
2091,-5364,-2017,2575,353,1592,-543
2092,7115,-7766,-695,1743,-342,766
2093,-1520,187,6842,36,-1083,-1023
2094,6098,-65,3804,-199,-825,-307
2095,-5215,-2803,1803,-1020,-1634,1635
2096,5824,-2627,-3182,-1414,-1179,451
2097,-5291,-4052,3103,1558,204,1355
2098,-5043,1195,-2503,31,-1033,-591
2099,7061,-3315,5586,982,280,-1461
2100,-4369,-780,-4649,-1061,1466,1544
2101,4844,7344,-5542,-862,-339,298
2102,-6087,-2078,-2703,653,1898,-288
2103,2307,4812,-1373,-1653,1834,512
2104,-5333,-1196,-1098,121,1410,806
2105,-3687,-1626,-6104,-482,1133,1286
2106,2423,-4172,-4469,-1690,1482,146
2107,4784,-4762,-7686,-699,-1341,-623
2108,-5685,-6603,1612,1886,1926,1952
2109,-1391,-487,5119,-267,235,-1060
2110,-6928,3391,-4971,200,588,44
2111,-1853,2785,-5394,1892,1815,-1670
2112,-7205,-6665,3339,-213,1716,-1258
2113,-3686,4671,5530,-676,-31,-985
2114,-1094,-1046,-1986,-762,508,-281
2115,-3865,2958,6884,-1568,-551,1651
2116,-7451,6342,-5981,200,-1842,1978
2117,-5610,6817,981,-382,-763,-621
2118,6976,-3461,-2972,924,519,863
2119,4511,-5528,-7665,854,-1026,1025
2120,4028,-588,-3343,-2,-200,-1902
2121,4889,5526,6748,-1950,-801,1192
2122,-7325,-7972,2531,-666,-346,360
2123,298,-6764,7210,923,1330,268
2124,-7427,-785,-2562,194,1568,1528
2125,3054,1986,-7012,-1431,270,-1808
2126,-2948,19,5311,-35,318,1310
2127,7697,-2821,1864,-247,-585,-1207
2128,90,-3476,3627,1039,1832,-537
2129,5624,5307,-1021,-1517,-939,200
2130,1427,-2351,7234,1514,-1941,-244
2131,-6746,-582,-1374,-1121,-828,266
2132,-4982,-7034,-6843,1311,548,1345
2133,-6075,901,3512,-1144,1006,-130
2134,5939,-535,-7495,-1253,530,761
2135,-1165,1188,3087,-466,-1837,28
2136,-5187,-533,7090,-827,324,-524
2137,-3919,-326,6930,-447,258,1072
2138,6492,2815,-3348,900,-1822,-292
2139,-1082,-5081,-509,-951,-1129,1470
2140,6679,5745,3557,-1743,-1701,230
2141,4991,650,-5310,1346,-1753,-1192
2142,2541,4715,4468,1243,1106,-1437
2143,6021,-3404,3670,1331,127,-857
2144,-6976,1307,-3522,-1431,122,1173
2145,-2138,7647,-5758,-1517,-1859,915
2146,3039,-3290,-747,1450,1212,-1834
2147,6794,843,-358,-52,-748,-1243
2148,-4979,2543,5293,-1872,-1994,-303
2149,5114,7343,86,-599,-1197,1357
2150,-2255,2020,5504,-106,-1815,-877
2151,7337,-4855,-3307,-390,-1855,1559
2152,-7512,-3498,6991,1996,-123,-1339
2153,7593,5288,5504,-1842,1270,1217
2154,-994,589,-7932,-1537,1776,606
2155,4056,238,2023,-1519,-59,1127
2156,-3074,-3980,6018,-589,-294,66
2157,2905,-5598,2981,-1611,105,-1749
2158,-4013,7785,-6096,-522,1696,-1658
2159,-647,7594,-5807,1857,718,-1633
2160,1636,-4671,-1617,-359,-1508,1139
2161,-1068,-4601,520,-1828,156,1950
2162,-5976,2669,563,-1598,775,-8
2163,-7731,4564,1766,-262,-958,1084
2164,2780,-6935,-4867,-1647,-174,-1002
2165,660,7557,98,237,-594,583
2166,7940,-1698,-5390,-50,291,1791
2167,-6443,2472,7588,-1783,-145,-800
2168,7541,-7556,6909,-225,1109,-260
2169,6955,-5749,477,-1121,-1319,776
2170,1550,-2036,-3633,-882,-1027,739
2171,-3387,-5289,-1344,-1972,-1313,-433
2172,-7514,-2808,1302,1821,1084,-711
2173,2600,7306,-542,513,-1633,1102
2174,65,206,7355,1857,-393,-193
2175,-3390,2127,-2769,-529,1192,220
2176,-5133,-7309,-5130,-115,-1,-1839
2177,-732,-7896,-1130,-1786,976,451
2178,-4083,686,2159,-945,93,1139
2179,3049,-190,-5072,319,-1883,500
2180,1906,3955,1884,1354,-1434,687
2181,1494,-2997,2344,-1066,-1265,103
2182,4114,-2220,7184,264,-146,-1973
2183,3589,-6231,-4924,-773,318,-221
2184,231,-2200,5935,701,419,913
2185,-1062,-2230,7057,-31,-906,-605
2186,-6458,785,6052,507,-836,-883
2187,-1745,6338,6097,-1850,749,-63
2188,-4845,-2027,2027,1406,324,-965
2189,-930,5543,1127,1607,1241,-1062
2190,-6835,4899,-793,-1694,1966,-1609
2191,7087,2178,-7167,-769,-664,-1252
2192,3715,-7429,7662,1073,900,1715
2193,-7124,-4899,2679,315,-365,1976
2194,-3783,7450,5310,-189,-1524,-1267
2195,4663,4611,-3944,413,1235,-1289
2196,-1067,-1562,1183,-968,-1570,1978
2197,7030,6080,-6785,1552,1999,597
2198,-7003,2461,-5960,-153,-1035,-538
2199,6028,-2099,-4667,1073,585,-180
2200,4317,-6513,-7319,-1155,1523,1375
2201,-4056,5448,-1100,1439,332,340
2202,7651,-3137,5326,1080,265,-1396
2203,-6858,5408,5600,901,1462,-766
2204,245,-3761,-3822,-225,-1485,-476
2205,-5864,6061,3511,-1775,797,1492
2206,4869,-6659,4171,784,1710,1994
2207,-620,218,-4640,-1635,-163,-1543
2208,-4525,365,-5662,-450,1633,183
2209,2826,1421,-1718,505,-1116,1005
2210,7563,-6794,-6252,675,-1164,196
2211,4749,4471,-6185,1366,-379,708
2212,-6702,4766,1196,1417,-591,-1004
2213,-1623,-4645,-838,1504,-251,1698
2214,-6450,-7656,2232,-606,-602,-375
2215,7546,5812,-3815,-1431,710,1226
2216,-4508,-5926,-1373,1621,459,-1941
2217,-523,-1357,-3593,-1830,779,-202
2218,-6058,801,634,-1561,-555,936
2219,-4781,2915,6674,928,-1068,-995
2220,7671,2306,6591,-476,1158,1599
2221,1219,1261,4272,-1323,1709,23
2222,6264,-3171,-1592,-596,1301,-457
2223,7417,-4607,-1789,-1676,1419,-1782
2224,5475,-1617,-6757,1131,741,1360
2225,-2089,-895,-2617,1410,1407,-16
2226,-4674,-3616,2360,-748,880,1873
2227,-3062,6065,-3864,-462,465,1070
2228,1258,-1927,2488,-135,1040,583
2229,-2953,-3797,190,-1686,-1480,-878
2230,7462,-6158,-6220,-1420,768,232
2231,-2329,5024,2759,1690,1670,-731
2232,-5409,56,-144,160,1582,1600
2233,-753,-7981,-2361,-343,1439,-1279
2234,465,4329,6909,123,452,-240
2235,5145,3989,3843,-363,1163,-213
2236,3431,2024,-4802,-59,-746,1286
2237,-2225,-5837,5577,1340,1818,-296
2238,6114,-3865,5378,-612,-970,-1418
2239,-2279,4606,3897,1267,798,1494
2240,-3793,-7097,2651,1240,-1868,549
2241,733,4688,-7311,1231,1203,-1110
2242,-5549,6879,-3411,-452,520,1426
2243,-5855,-1977,7414,1653,-386,-229
2244,-7847,2071,-5728,-1385,680,1616
2245,-6836,-3207,571,1327,992,-1195
2246,-5144,-6314,6104,-1903,1737,1192
2247,-3664,-6914,73,-1741,436,747
2248,811,-2415,-1521,-1123,120,-986
2249,6189,2109,1011,1508,-246,1359
2250,-4608,-402,-2656,710,1689,-813
2251,6187,-7999,5832,853,583,628
2252,-3780,3784,2359,477,-29,-1589
2253,-7722,-3186,596,-101,-1415,-1108
2254,-3267,1219,1822,-229,-1924,-1707
2255,-2538,-2253,-616,-710,-938,1236
2256,-5366,-5430,4390,-1476,1990,675
2257,-6767,-6034,1021,1346,926,-1332
2258,-4106,-1388,-1597,-717,34,-1067
2259,2356,1365,1614,821,1647,1784
2260,7810,-18,2295,-1823,1159,702
2261,-7025,6394,6733,-168,599,-1128
2262,2908,-6094,-5865,934,-1569,1743
2263,3926,176,-2149,-1298,1097,835
2264,-7037,-5316,-7495,174,527,-1844
2265,6961,-3599,-5258,-1937,-1631,-1904
2266,4698,3967,1597,296,-861,1923
2267,7109,7340,7043,159,-561,-1677
2268,4353,3724,-6503,-1954,-892,1996
2269,-53,5717,-6102,1628,77,405
2270,-348,4325,1301,-408,1169,1418
2271,-6488,6171,-4644,689,976,1383
2272,6765,-4483,7625,-1463,-1134,-390
2273,-1200,-3209,3152,1508,-1828,-394
2274,-3118,-2218,3204,-814,1544,-1349
2275,1361,6581,-1707,-1746,-369,245
2276,-7045,-6505,7,-1046,1125,1491
2277,-3811,3684,-3058,-420,1245,643
2278,-4671,5607,-1529,-360,-272,-1932
2279,-7642,-6693,-4394,-1,-1624,958
2280,-6251,4724,3928,608,1116,-232
2281,-3007,-6066,-7837,-946,-957,133
2282,-2766,-386,5976,-28,86,987
2283,-6022,385,-2964,-1076,1494,-116
2284,6630,7117,-7774,1308,-418,-100
2285,6842,7476,-3940,354,-161,44
2286,-7667,-2053,-6689,-287,-1781,-67
2287,-1211,-3526,-6294,167,1855,-1874
2288,3152,2793,5397,-142,-1946,105
2289,-1586,5746,-4381,-1067,-1422,1587
2290,3349,644,-1968,565,-1580,-377
2291,3872,-4079,2826,1867,314,-165
2292,-1724,-4157,-7193,652,44,-53
2293,-7700,-3917,-6289,-154,-640,1183
2294,-7872,-5073,-5095,-169,-217,1206
2295,70,-141,-6484,1342,-872,-1990
2296,1408,4078,-4961,-1771,1238,1341
2297,2261,-2977,-1254,221,-557,-885
2298,-4674,850,177,-241,628,-1945
2299,-3179,7816,-7974,1873,58,177
2300,2799,5740,3261,-41,-732,-1055
2301,-7452,-1284,-3250,1114,1079,1074
2302,-4094,1247,-7561,105,1740,-205
2303,-3127,-5959,-5857,-876,337,833
2304,7026,-7408,3930,-1336,1246,1445
2305,2805,-5420,6969,-948,-177,-1893
2306,443,-4725,6531,788,1809,111
2307,2602,-5558,-2204,-243,-1381,-1679
2308,-5980,7639,2048,1623,460,388
2309,6809,4706,-1496,-1888,726,1543
2310,2184,34,-565,889,1533,-1776
2311,-4235,-4201,-2914,520,-1294,794
2312,5601,-1960,-2334,-347,250,-1050
2313,-3353,3632,-7677,385,1229,-1715
2314,863,-2274,3613,-1123,774,-527
2315,2965,-1465,5088,1273,-1618,1124
2316,-3187,-1291,-3968,-1478,-1647,426
2317,-611,-3853,-3664,-17,-400,631
2318,-800,-72,-7924,-175,1555,-168
2319,3803,-3496,765,-1158,1288,332
2320,2696,-4611,-174,1841,-215,-188
2321,-5003,-5396,-6233,601,406,-917
2322,-1374,-829,3926,1325,-19,389
2323,5248,729,-6788,1216,-421,-1734
2324,2244,6522,-6189,-1002,1016,-229
2325,5381,-5497,3741,326,-1361,-1665
2326,2207,-1388,1850,183,-1628,-479
2327,-7143,5687,-963,-1145,706,-764
2328,6240,489,7400,674,-1152,-1439
2329,822,7099,2746,1089,382,580
2330,-710,-5681,5797,-515,-1389,1385
2331,2862,-5924,6950,-1637,-995,1602
2332,7686,-7245,-2266,-153,-774,-1570
2333,-418,3107,3539,640,-1789,399
2334,3300,-816,-2210,653,281,-495
2335,-94,-6096,5166,-1448,-1384,1955
2336,6639,1773,-7176,-236,1440,311
2337,-2699,6583,-7812,-902,803,-1194
2338,-3156,-5080,4352,294,-1769,1292
2339,-1118,4860,-6640,756,-1738,867
2340,-1621,-2478,712,284,220,-1224
2341,-5947,-4982,3902,-1160,-898,-1381
2342,7184,-397,-4525,-207,-1196,-830
2343,1071,-3907,938,1850,-1290,248
2344,3970,-6362,-6159,648,875,-1936
2345,5147,-5008,-5117,-625,1002,1168
2346,3514,-7366,1595,-1913,420,1739
2347,3254,-776,-6723,648,-1114,-1675
2348,6833,-3145,5573,-1884,-1064,-1033
2349,1940,4247,-5819,-1702,410,353
2350,5508,7634,294,1660,-1014,-899
2351,-1118,4233,-5473,-303,-624,748
2352,5246,2345,-2117,-293,1366,66
2353,-1809,-4912,2518,136,-1908,90
2354,-2411,3017,1090,-1823,83,1296
2355,2261,-5989,-4084,1106,442,-1320
2356,-4149,4906,5131,1707,164,1703
2357,835,-5111,5817,1925,-1256,-1469
2358,4985,-1628,-2157,-789,-1979,-866
2359,-2588,-33,443,-468,20,-1928
2360,-4783,6284,-7428,-352,1068,-1262
2361,7058,-6170,-6579,-1535,428,-1601
2362,1132,-2753,6952,-1398,1915,984
2363,1930,-7222,-387,-852,-1941,-836
2364,-830,-830,6615,-319,1999,1884
2365,-1579,102,-1987,-1613,230,-715
2366,3018,-5085,7309,480,1069,-1453
2367,-5418,-1361,-3596,-273,1275,239
2368,-6675,-1145,581,-111,-1587,-1167
2369,3327,6331,1111,1791,1714,499
2370,6098,-6336,5408,979,-350,-185
2371,1587,6389,-5015,173,-1478,1542
2372,4271,469,-3674,-1031,1236,-1555
2373,-6749,-7412,-2259,-1972,1087,-1720
2374,-4713,-6739,6335,1334,1146,1162
2375,-3672,-2720,1900,-1599,-1537,-951
2376,-4749,-5035,-2467,547,-1228,229
2377,-3562,7689,-1872,1998,1245,1503
2378,7575,3718,5928,-1987,695,-1249
2379,-2425,-5982,-2090,-194,-1554,919
2380,-3950,2632,649,-765,1626,-1280
2381,-1393,1483,1498,1150,-337,-636
2382,3819,-181,5534,1675,-1405,-681
2383,-2346,1663,-2033,1908,543,-1390
2384,-7102,4893,2259,1804,1787,490
2385,-2542,272,-5908,-1323,301,-1920
2386,-4101,-6839,-867,-454,25,-1075
2387,3416,2156,-4509,882,1707,-1072
2388,6975,-1639,-574,435,-1888,-482
2389,-6936,-2972,5740,1062,-326,835
2390,-4350,1434,-6237,676,-529,-1141
2391,-3572,-3389,-151,1758,-1113,-1516
2392,6498,1412,7931,213,-1465,625
2393,4745,3602,-6517,353,-967,-343
2394,1694,-768,-396,-572,1152,576
2395,-6953,-3196,-6511,-1827,33,-879
2396,-676,-3726,-1751,-1294,-637,924
2397,2127,4244,-1532,-1857,1140,760
2398,2047,4215,-4903,713,-1430,1372
2399,701,-982,7869,-1597,-762,-1549
2400,-6907,-2149,6934,622,-1219,-469
2401,-7518,-7115,-370,-1205,-904,209
2402,4863,-5689,6667,-1916,426,-1462
2403,-62,4243,1596,1186,1691,-23
2404,2422,5553,5223,-790,-422,1665
2405,-3322,-708,5336,-1383,84,1681
2406,-3600,-649,-4506,28,723,101
2407,1719,1797,-6029,-1688,-1848,1730
2408,-1829,-6614,7029,-714,1854,1229
2409,-4907,-7824,-309,1981,-1193,-1633
2410,3487,6468,-1643,-1426,988,-260
2411,7753,-246,3005,151,-8,201
2412,-4501,2881,-318,-1091,526,-1713
2413,2349,-512,3739,1119,86,774
2414,-1187,6630,-1954,284,-921,571
2415,-3151,6674,-3959,1074,-258,-1442
2416,-6490,7733,7771,935,-779,-1678
2417,-5673,602,861,-1410,576,830
2418,-6866,1193,-7655,-1359,349,-471
2419,1453,-3993,-6645,-1595,-1077,1758
2420,-2497,5066,2263,-154,-404,245
2421,-1933,2041,-5770,595,-1962,-321
2422,3244,-1182,2179,-366,-1753,-1730
2423,1696,-7511,3700,633,303,-1034
2424,7952,-6111,-2065,-619,-772,-1781
2425,6249,6002,-7701,1742,144,-1479
2426,6726,-1455,2295,-1274,-1841,1562
2427,6389,5528,374,-1892,1300,377
2428,7510,-3616,-6494,1027,-876,-5
2429,-7984,-5264,-2880,-1426,-674,150
2430,2674,5994,5383,1503,-1286,-1295
2431,7615,-5090,-2007,-146,-530,-1972
2432,2881,1855,-7188,-1167,-888,-1078
2433,6042,6680,3740,1689,897,-1098
2434,1473,-2241,-7448,-614,1897,45
2435,-7158,3780,2038,142,-1020,656
2436,-6470,-1146,-7388,1028,-1406,-991
2437,-1416,7517,-7222,-1468,1965,-186
2438,4828,-4681,649,-195,-1694,-1056
2439,-7033,4500,7291,371,-1711,104
2440,-5754,-3082,-7331,1348,358,1175
2441,7906,-3909,-2311,-588,-1056,-364
2442,5885,-6634,2351,632,1422,175
2443,5384,-1326,-3337,-292,-1529,605
2444,-6885,-1561,3262,-183,-167,34
2445,-5138,6227,-7507,1389,797,-476
2446,7114,6996,-6654,54,-727,-93
2447,-5143,5971,-4318,1151,576,215
2448,190,-1143,5298,975,48,1809
2449,-3275,-4119,-3738,1858,-1845,280
2450,-1115,-2567,-6190,948,49,-360
2451,-1163,-432,-503,-6,855,61
2452,3468,4999,-219,-1609,1681,-663
2453,1385,-4433,-1907,235,-601,-601
2454,7471,-5414,-382,-102,-959,340
2455,2793,1267,-4996,1976,1512,-382
2456,4825,298,5972,1253,245,212
2457,-7900,-2715,3007,-1560,799,-1324
2458,-6395,1962,6676,-384,-981,-364
2459,5945,3798,-2825,1345,1785,320
2460,-2386,-5176,4078,-1026,901,1606
2461,-3002,4050,-2162,-1604,1875,-634
2462,5612,4425,87,1865,843,-1128
2463,5167,6695,-4834,698,1438,-910
2464,1218,2642,-4555,1528,-40,-1700
2465,-666,-7335,-5686,59,-281,-1512
2466,1027,3536,-3630,14,400,-1238
2467,3696,-5711,-3788,-1369,1510,465
2468,1417,376,6506,1562,1994,1316
2469,-2910,-7808,-3488,-536,1599,677
2470,2126,-692,5279,-400,1107,-1526
2471,3154,-5746,-7155,1386,-1163,-923
2472,-331,7093,-366,1639,1653,341
2473,1410,-2901,-1485,505,905,147
2474,-4437,-6513,-1426,-702,-945,1829
2475,5751,6711,-951,-885,-791,-1234
2476,-3353,7525,-1518,-1182,-402,-1226
2477,-7659,-2724,-4002,-1262,-1461,-1390
2478,7635,-1076,-7189,786,525,-1802
2479,911,-4706,4892,-820,-1127,-1158
2480,7943,-4611,5674,-85,85,668
2481,5898,-4829,4488,1224,-1036,102
2482,-6737,5736,-2583,-1792,-1395,-382
2483,-1546,4506,-2350,-1735,1240,-728
2484,2784,1709,4554,709,561,633
2485,-7853,298,-5849,-1830,-1677,391
2486,-1374,-1254,-5573,-1405,-675,1233
2487,-3706,4002,-4443,-1667,791,1388
2488,6476,7049,-5869,-1875,-886,-1897
2489,7926,4156,2190,975,1208,-672
2490,-7820,-6307,4016,839,676,557
2491,-5333,2721,2341,1477,-1546,513
2492,-7359,159,-7590,-992,-1103,1180
2493,-1027,-7387,-307,-1175,1590,1435
2494,-5627,-1835,-220,-357,1859,-1623
2495,-4084,-4471,3565,143,-1611,-479
2496,-1241,-5715,-665,1920,-394,-1237
2497,869,5546,-7756,-1319,-599,-1807
2498,-5567,-2547,168,-485,-845,-510
2499,4696,7740,-1958,396,818,-1581
2500,-460,3926,6949,-1126,1197,-1452
2501,-4026,-5595,-6441,-600,845,653
2502,1457,-1657,2196,-1552,-1696,667
2503,5100,-5565,-2708,-1067,1590,-1852
2504,5932,7695,-2935,-670,1058,647
2505,4007,7215,-1443,-1725,1636,-1062
2506,-6668,-2569,-3820,-420,-375,1267
2507,3196,-2859,-5113,216,-1485,-538
2508,1701,-1159,-2014,-1884,973,1382
2509,6422,7341,-7330,1166,-318,-580
2510,-1545,142,-7401,29,-1407,-457
2511,2674,4378,-2843,-1228,978,504
2512,1041,-707,-5001,-1341,1161,923
2513,-3307,4733,2497,411,-495,-50
2514,5503,713,-2939,-1727,-293,1069
2515,-4562,-3611,-2023,-761,1073,-62
2516,-7498,890,-5705,-300,1207,1628
2517,1326,3787,5265,1145,1584,1204
2518,2890,4942,1894,790,-271,-464
2519,5707,-6988,6168,-849,1900,-1941
2520,-7714,7877,982,1864,1769,-1126
2521,-3873,6321,-637,-542,433,-1771
2522,-7157,-6359,7032,1099,-1157,-1228
2523,-2252,-6487,7937,1905,831,1747
2524,7247,3843,-5319,796,1259,445
2525,5952,2337,-476,-560,693,646
2526,7875,-3026,-3235,-1657,-1866,1355
2527,-1912,-310,-239,1296,-1389,-651
2528,-2490,-4168,-6013,992,-1707,1761
2529,2123,670,5124,-149,197,1362
2530,6234,6404,4497,-510,-1919,54
2531,4680,3836,5817,-638,1579,1101
2532,1076,-2324,7504,1285,-663,-1126
2533,1826,-1033,-260,1587,-866,1618
2534,-7523,-3792,2555,-981,925,-630
2535,4582,2695,192,-1541,1501,1327
2536,5241,-2270,5832,-386,-1113,1924
2537,194,6959,-4627,-1570,-396,-1704
2538,7130,-4962,4350,255,-881,-375
2539,5345,4354,-1026,-596,1811,1826
2540,-6230,7463,-4670,-663,1280,1141
2541,-3991,-4766,6186,1232,1263,-971
2542,5143,4530,-1397,844,1614,957
2543,-7042,20,2350,-1493,-1138,155
2544,-698,4838,-480,-46,-451,329
2545,2972,6396,-202,-1294,-248,-1520
2546,2441,4882,7141,1315,1437,1523
2547,-3516,5409,-602,-1294,306,-1483
2548,-4197,7814,6996,7,700,344
2549,1194,6571,-4060,-556,-735,691
2550,-7048,-3449,-5176,1928,-1225,1324
2551,2101,277,1607,895,831,1285
2552,-1342,-2569,1973,-343,1454,53
2553,3155,-4743,-5994,1380,1266,-1627
2554,-6282,6037,5998,1297,1438,1990
2555,-7207,2665,-7390,-439,-256,815
2556,-3473,6941,-2806,-19,-1821,36
2557,2841,-4422,-2236,572,-243,-1320
2558,2842,5900,-500,256,-975,-1092
2559,-7881,3004,5511,1763,-975,1430
2560,3813,6415,4210,1028,-335,935
2561,280,2804,-6606,19,-536,973
2562,7598,1078,825,770,166,263
2563,-355,5507,-6084,-687,-793,-1689
2564,4620,1328,2133,628,750,721
2565,6747,6360,343,-1348,1398,355
2566,-6243,-7869,-3156,1189,1177,11
2567,6532,-3108,-3908,-1165,-1549,867
2568,-1051,7483,351,1026,1064,48
2569,-3972,-6603,5186,-595,-1879,-621
2570,-2458,-2282,-5458,-1284,-1407,1118
2571,2418,-5988,-2207,-1103,-1664,1663
2572,5765,2672,-1126,1031,842,780
2573,356,2549,4264,694,1638,111
2574,7935,2907,4235,-1281,-355,1735
2575,-367,-2018,6071,-1235,400,1528
2576,-7780,5406,-5948,1861,847,1591
2577,4520,-4275,-6995,-1398,-923,-1419
2578,-1201,4174,-6910,156,1428,-1374
2579,6759,6251,-2885,1178,-1725,-1109
2580,-1370,1005,-4547,-567,1969,1155
2581,3362,-547,2835,-850,-676,-1876
2582,58,-1617,-6190,829,250,896
2583,1797,-579,-7843,-1187,-1241,984
2584,-5787,6643,18,1894,-710,1702
2585,3259,-3921,-2050,-917,-1186,276
2586,5864,1131,-824,878,1689,192
2587,-7120,440,4852,-1768,1983,1268
2588,-4482,-326,4534,1332,1864,-53
2589,-5725,-5493,-3988,144,-656,-1413
2590,-3841,-3191,-5700,257,1908,943
2591,1692,3398,-7859,1317,-304,628
2592,-4622,-5845,1637,-1938,1886,-1542
2593,-3468,6861,-3435,1705,835,659
2594,1630,-2437,-308,-934,-47,1748
2595,-1931,-7722,1971,1387,307,1925
2596,1243,4864,4504,-1459,-1637,-1537
2597,-7683,2341,5567,1607,-1620,259
2598,-4094,-6233,-1720,1731,-246,1619
2599,-2604,5294,-5586,1506,1696,1331
2600,-2630,-3062,7591,354,-1345,-245
2601,1344,1338,-4846,-964,1977,-1594
2602,5389,-5748,-4946,1148,1925,-1696
2603,1525,-5902,-3904,864,1853,-1561
2604,-2256,-6591,7138,-204,-595,732
2605,7246,944,3948,-465,-389,176
2606,481,7933,-1478,1834,627,-194
2607,7773,2043,3882,-1044,-2,262
2608,-3770,5062,3116,-309,1441,89
2609,-5828,1417,-5936,1790,-1783,-288
2610,7614,2334,-6726,576,-1309,-1673
2611,724,812,2279,830,919,-1775
2612,-4669,4705,1026,-81,-1855,147
2613,-5782,3221,742,-1894,-1460,-1637
2614,6603,-1299,245,1237,1061,-1176
2615,-5607,2181,-2169,1308,1510,-1099
2616,3750,1091,-4321,189,1660,-661
2617,5076,-4935,-777,-1062,-1620,-319
2618,-3478,3640,6257,-1304,-717,-1046
2619,-2602,2023,-4774,1786,-1610,-295
2620,5776,-4516,7326,-534,-1669,1133
2621,-2019,3325,-7914,16,103,1174
2622,1499,-7302,4348,819,632,-838
2623,6018,3673,-6950,-1554,259,1078
2624,3703,1799,7794,-1530,-340,1398
2625,-4012,7813,4941,933,-279,-1286
2626,-2643,-5341,-5422,570,-200,1915
2627,272,-7242,3631,658,1899,1468
2628,-3878,-6357,-5956,1361,766,224
2629,-2151,5808,-3916,-1996,-595,-602
2630,6138,232,2119,1593,-615,719
2631,4353,-392,-1484,-1607,1135,-387
2632,-2385,6619,-6658,849,272,403
2633,-7649,1051,-1353,-1906,-1082,1174
2634,5801,3586,4314,-256,-7,-821
2635,1271,4510,6135,126,-732,597
2636,4675,1483,7085,1101,-1644,-1939
2637,1645,-2810,-1657,1876,-518,1803
2638,-7705,-4610,5385,-1792,1951,281
2639,5444,-4371,7437,-1912,644,717
2640,546,-2977,3942,1531,-1972,1600
2641,6057,-4053,-1058,-215,-1597,-1133
2642,7429,4724,-1829,-1360,-1276,-1899
2643,-4412,4038,-2819,779,-978,1673
2644,-1614,-7694,4186,-923,-828,1816
2645,-869,-6336,-4817,791,192,49
2646,452,-6844,584,1454,1272,-1787
2647,88,763,7221,-1945,-1645,-1079
2648,1728,6430,-1269,1363,-1869,-706
2649,7505,2632,7910,1079,1196,-737
2650,5275,-2238,-7652,-596,1055,1726
2651,-1277,-5826,4220,216,-1806,-1939
2652,-7152,-2283,-2720,804,1567,-479
2653,7177,-317,5269,270,415,-859
2654,-834,-4404,6708,-585,-1683,336
2655,733,-3137,-6969,-1501,-585,1739
2656,5414,7251,6847,-599,-1050,1795
2657,7304,1728,1784,514,-27,-479
2658,6750,7652,2480,1689,-1400,15
2659,5975,-5107,3264,-623,1962,-1564
2660,-4711,5667,-2095,525,-1514,-821
2661,952,7884,-638,-1676,-22,-594
2662,-1805,-209,4328,-897,-185,1164
2663,7535,-4134,6357,-1945,-1842,301
2664,-5643,602,-343,-46,-1205,143
2665,5210,5175,5314,-1009,-1886,-535
2666,7635,-6965,-5725,1228,-1766,919
2667,268,2481,-7435,-367,-454,-1779
2668,2157,-2818,7195,1509,450,-287
2669,4705,-5460,-7233,-1448,1137,-884
2670,3684,6907,-7450,1200,-1832,-964
2671,-7040,-2821,-6197,1612,-521,903
2672,2557,1062,-6511,-1085,-1048,-1065
2673,2786,-3421,-3766,1741,-320,1341
2674,-6102,-4493,4867,1610,1954,90
2675,1793,7407,-6603,1989,-37,-472
2676,-173,6830,201,1144,-409,-623
2677,-4839,7284,-4646,1321,1209,1979
2678,523,5347,-1286,1121,-1001,-1563
2679,5967,1554,-760,-1497,-90,-1866
2680,4205,5172,-5100,395,-444,1920
2681,-771,6371,-6609,458,-1270,-283
2682,-2253,-3364,-7934,-1892,1443,1367
2683,-5168,-1373,2735,-1331,614,-1345
2684,210,4228,5011,-1493,-1693,-921
2685,2461,-6128,-302,-189,-258,-1860
2686,-858,-6683,7419,-32,-1067,364
2687,-3195,7854,-2325,-1609,374,260
2688,-3878,5566,-4510,-642,-444,421
2689,5558,-6720,6879,350,-1160,-1056
2690,3099,2557,1595,1581,-1601,-553
2691,-506,-6475,-4268,-1699,-753,-409
2692,5303,-2055,-4461,213,1742,-403
2693,-1457,7689,5696,1874,-45,-1697
2694,-2290,394,-1902,1715,1761,300
2695,601,-4417,-5387,1308,-1128,-1856
2696,-4475,-4471,5324,1493,269,1537
2697,-4391,611,-6945,-1251,1843,370
2698,-7067,5354,-3480,-162,-1336,1807
2699,2647,-1887,-2100,279,260,1116
2700,5218,-1647,-1944,1812,-471,-499
2701,-5213,4170,447,1848,1590,-1045
2702,-3181,-2841,-4722,-135,-655,-324
2703,5432,-5827,-1720,-1883,-1273,1418
2704,1420,-5748,-2877,-1260,489,782
2705,5192,2481,-7639,-88,-1518,241
2706,-5779,-5430,5190,-1526,1806,77
2707,-4233,-779,-2458,-1198,-1167,1392
2708,7267,4463,5802,-1155,-1647,1153
2709,-224,-7758,-2448,511,1076,175
2710,-408,-1263,1702,1566,1124,-280
2711,-5962,4836,-2161,321,483,1504
2712,-1829,-4084,-3379,1269,277,888
2713,-5861,-3143,3147,21,1490,-636
2714,-1720,1348,4697,-1193,-319,-1002
2715,6487,2696,2959,1890,-645,358
2716,-3566,3921,375,-334,651,707
2717,-7266,3203,-1680,-1369,1864,440
2718,-4062,3839,166,-501,-1383,-992
2719,2823,-5454,3830,11,1322,-788
2720,-4679,-6876,-4930,255,1209,851
2721,-4101,2297,-3115,-379,-456,-237
2722,6493,-7119,1474,337,121,-99
2723,-3526,3540,-721,-1414,1004,1708
2724,-91,-1856,-3807,-1011,-1947,1358
2725,7969,2839,-4671,-900,927,-1534
2726,6973,-3145,-2322,-1420,-919,-128
2727,-3116,4762,-7245,1303,-867,-1431
2728,-3481,5806,-4319,-227,1521,-381
2729,2108,4171,-5714,-1805,-428,-1263
2730,-5686,-2052,-1227,1214,-980,378
2731,837,-4823,1182,1976,-520,984
2732,-943,-4236,5996,-1879,-417,-147
2733,7728,3869,-2992,687,435,17
2734,-6195,-470,-7572,-467,271,-1480
2735,-5255,2274,991,-465,-1618,-793
2736,-6325,2907,-248,-1356,-438,761
2737,1817,2489,-5232,-201,1369,-1587
2738,-6004,801,3015,-603,1477,-1424
2739,-7536,1822,-6592,-250,-660,-1896
2740,7688,-6734,-6343,-1065,-12,925
2741,-4911,-1964,5172,1272,-717,-1179
2742,-909,-1098,-1500,189,1069,-837
2743,-4220,2414,-6033,-1267,-1706,1789
2744,7220,-3469,-2772,1814,1605,176
2745,3594,-2552,1202,-537,-229,-1627
2746,2406,2500,2627,-438,936,-1951
2747,5413,-2944,3240,820,-103,59
2748,6198,-592,7254,1518,60,914
2749,-5383,-5453,1302,-409,-870,967
2750,-5701,-2374,-1214,-989,1048,990
2751,1871,4991,-976,-592,1410,419
2752,7115,-3368,-4828,1531,-1749,982
2753,5653,4654,-5561,-1795,-1102,1480
2754,4420,2497,-6454,99,1103,-1480
2755,4699,-4471,1890,-367,-863,-1873
2756,7345,5513,-6680,-979,779,53
2757,3315,1018,3160,-1053,-23,-948
2758,5172,-4515,-3243,-44,1346,379
2759,2531,5861,7634,-1069,-61,1556
2760,4116,-560,1941,1566,1938,-1803
2761,-7078,1319,3563,1924,-379,-50
2762,622,-5434,-6489,368,-146,721
2763,4246,-1990,-1850,-1307,144,-1441
2764,-32,3524,-1780,-669,602,-1739
2765,7817,1480,-7792,1450,-1379,-1156
2766,4439,-7704,-5909,-1092,-1340,883
2767,3585,-3330,-7751,163,-431,1147
2768,1658,-4041,6387,-1262,970,155
2769,-3383,-1278,-5269,532,218,-1089
2770,-5635,-5422,-5100,117,403,1348
2771,-1908,2117,-5972,357,145,-1953
2772,7938,-7237,-6325,1776,-333,269
2773,-1945,-3331,1574,-191,1227,-1187
2774,2441,2833,5228,632,325,1420
2775,-209,-1052,-630,1187,-598,-1020
2776,2479,2312,6716,-1178,-571,1970
2777,6400,-3175,-7134,-701,237,-407
2778,5707,-6523,-3825,617,-794,721
2779,5312,3168,-5353,-511,-622,741
2780,-4023,2863,2213,-1374,1756,-1749
2781,3743,5400,-3250,-1229,521,957
2782,4189,-4266,7170,21,1781,502
2783,-1188,7948,-3146,221,-1339,1984
2784,-6783,-219,3902,600,-1448,-946
2785,-1281,3656,-350,-709,-428,1795
2786,5063,-1620,1112,-170,1218,-634
2787,-7223,-6103,-5725,1425,1957,-674
2788,-4672,-1454,-4546,-1674,-423,1695
2789,1018,-7977,7414,-1129,703,1339
2790,2143,3130,-1646,-918,-1264,-994
2791,3648,6348,-4262,1997,1615,237
2792,-2020,6488,-3083,1346,134,-1714
2793,6676,-3696,-1495,329,-1885,1265
2794,-7695,3118,-112,-233,1702,-403
2795,-5560,-949,2211,1747,1857,-1543
2796,-3847,5903,1968,1023,-1940,-29
2797,-611,6629,-7845,332,-1577,-975
2798,7659,-5829,-1606,-345,326,1893
2799,4376,5704,7874,1625,-1897,1457
2800,-7321,-5161,7950,-377,-627,-598
2801,383,-544,4809,-850,1979,-1308
2802,5734,-2983,7991,130,-1445,670
2803,127,-2023,-7117,-368,-1441,-1170
2804,-4911,3469,-5544,-1168,-1011,-803
2805,2225,-7039,3229,-1945,-1785,-1609
2806,3986,-997,1866,1133,-1575,-1755
2807,7903,6773,-280,815,1989,-1534
2808,571,1624,-4909,1880,-908,-1413
2809,2229,2929,-4734,358,169,1989
2810,-4473,-2727,5313,-1000,1907,-954
2811,-2785,-61,-1969,377,1121,-775
2812,-2491,6711,-2614,141,-665,-189
2813,7600,-4701,4146,1463,-799,1355
2814,3465,-456,-5941,-244,-676,1848
2815,2549,-4459,-4298,403,-438,-754
2816,26,-2651,-1079,-1364,-656,-1010
2817,1111,-1900,3166,1745,454,-833
2818,6687,1536,3864,-760,-474,-964
2819,-6198,7285,4003,-1455,326,1081
2820,-4311,6826,3330,-397,-1163,-951
2821,-976,7861,1163,1113,-1031,426
2822,-3792,-1768,-2789,665,-1820,1866
2823,330,-1334,-5396,1907,59,-794
2824,384,762,-2228,1558,-1534,-314
2825,-7175,-5086,6808,1916,751,-1524
2826,-3891,-5344,6309,909,-21,468
2827,7739,-1003,-4376,1596,-796,716
2828,3063,5132,7716,1928,407,-4
2829,-7563,5905,5416,1825,-1032,670
2830,7110,2997,-3346,1898,-359,-1678
2831,-484,3483,7330,906,-269,96
2832,-4416,-6767,4149,1221,29,1177
2833,5751,-4162,1868,-1173,-1461,1309
2834,-111,-4145,7698,-1797,-1251,967
2835,-6704,3132,4306,460,435,-808
2836,-3544,4172,4281,476,-1248,1523
2837,-4997,128,4811,-768,1351,1179
2838,-4225,-3226,1102,1345,532,-1985
2839,-1231,-4480,5647,354,1874,-1298
2840,2469,-6457,5825,1691,-1732,-1990
2841,-6189,3358,2683,912,-1074,228
2842,5413,-7060,-2743,1448,-324,-719
2843,155,-4718,2408,131,-1306,1516
2844,3282,-2722,1208,1276,1163,1144
2845,5288,5965,-1844,764,635,-1644
2846,2035,-5283,-7393,-574,1273,505
2847,6711,1488,677,1859,127,-1350
2848,-3365,-6434,-1264,465,978,-852
2849,3943,-6889,-6842,1979,1420,-1231
2850,-4030,5839,4354,1698,-1731,-1107
2851,-3920,2387,-5652,1149,1024,-552
2852,-7563,-5574,-5411,-203,-1561,934
2853,2417,4010,-4281,1071,1976,-1376
2854,-7207,7698,2333,337,-847,-1902
2855,5260,7595,-1199,1521,-704,-1878
2856,6774,5828,-6196,-1725,1735,359
2857,4588,-6583,7899,1613,1014,-1650
2858,7767,-4654,-4654,91,-786,-1036
2859,5664,2301,5472,1862,-1881,-1371
2860,-1215,-3926,534,35,991,-442
2861,6513,6065,-3844,1074,-302,1495
2862,-2831,2175,-3766,1573,-1000,-1639
2863,-7552,7150,-6980,-1678,1358,-1088
2864,-2223,6826,-768,-1386,-1041,-309
2865,-4066,-934,-7743,175,-1978,-1564
2866,5084,-4274,3101,-358,130,-1258
2867,-4371,-3162,-3512,1169,-1278,-688
2868,-6031,-4056,791,-1687,1297,-1349
2869,5509,-2991,-1069,1375,-581,-574
2870,-3474,4388,-4965,1833,-767,-321
2871,-1374,-2697,6750,983,-545,1455
2872,1207,6760,5021,-470,540,1918
2873,-115,-6397,-2602,907,998,-596
2874,7468,243,-7072,149,1751,-110
2875,-7071,2222,5394,416,-1710,667
2876,-3110,884,-3985,-189,-338,1220
2877,3933,1241,-3904,-118,1541,-1653
2878,7854,402,-597,-673,164,-279
2879,582,-6780,-5007,808,87,1002
2880,-6886,-574,-7041,-1105,953,1759
2881,-6119,-2816,-3019,493,-356,-1974
2882,-7798,-6423,4350,-826,-1597,-1455
2883,-2045,-6501,7200,-1445,-1803,-1374
2884,-370,1021,-793,-565,673,991
2885,6568,4579,-7897,1424,-126,300
2886,-2377,-6489,-3462,651,-1193,-651
2887,6854,-437,2428,1803,1771,-1424
2888,-5380,-840,4891,-362,90,1810
2889,1599,1005,7190,483,-999,-893
2890,1347,-5659,4438,80,-1614,-1549
2891,354,-1483,138,-827,-1348,194
2892,-97,-1470,-4948,-130,-514,941
2893,-2559,-6354,-6780,-654,898,-641
2894,-3558,4056,-1335,1611,1200,794
2895,-7643,-2736,-1713,-1076,-173,-948
2896,-3316,4111,-4264,845,-350,-99
2897,2400,-1207,4374,738,-1643,475
2898,-378,-215,-1653,711,-1564,-449
2899,-6696,-2196,7691,353,1300,1843
2900,1310,3538,-6122,1667,1820,156
2901,-6499,7396,-7555,843,-449,519
2902,2259,-5418,7489,-373,-1748,11
2903,-2284,1815,-3310,1553,-641,-1065
2904,6376,3681,7825,-647,-1588,231
2905,7116,4214,-373,-1021,838,-1605
2906,-81,-7799,-6333,-671,1170,1055
2907,-4058,-4203,2895,-1012,-944,-130
2908,-4166,-794,-5560,936,1695,1404
2909,4788,3750,-1705,981,-232,1965
2910,-4289,2589,-2014,1369,-1068,-600
2911,640,4172,-7277,1276,-772,-245
2912,-4186,741,-4111,1877,-1865,1848
2913,-1637,4126,-7686,-1282,1729,367
2914,-6818,-1166,-2413,-730,370,1373
2915,7177,6096,6647,-1802,614,-1714
2916,150,-231,7137,-350,186,1569
2917,7405,4984,-4995,802,-44,-1914
2918,-7765,-7097,-594,-1797,-666,-765
2919,-3761,1497,-3301,1495,-421,1412
2920,-6109,2685,1541,-424,-547,737
2921,-2964,-3316,1121,1816,-999,1225
2922,7135,-2429,461,-1576,1356,1801
2923,5017,-6136,2018,835,-1111,424
2924,-157,-4257,32,-1451,532,-1404
2925,2834,-3432,1270,-506,-478,1268
2926,4945,5891,-5389,-1753,-1924,-794
2927,4737,6568,3836,290,-222,-1050
2928,1868,-7318,1918,371,1562,1311
2929,-521,7777,-638,1036,433,1562
2930,5415,2829,-7275,1822,-428,1844
2931,-35,4082,3395,-932,-112,-1121
2932,-416,-2349,-1506,540,386,-1844
2933,-4875,-1248,-7557,-1996,-1135,604
2934,1649,-2474,-6986,1293,-867,-1434
2935,2592,2436,1248,1268,-983,-1811
2936,-517,563,-6575,-671,1883,-1040
2937,2830,-283,-265,1484,900,1618
2938,-335,3836,7147,1702,-1280,-1557
2939,-1284,-7376,4024,858,-196,716
2940,5128,3682,-4565,-1220,45,-248
2941,3519,6930,6947,-141,-1796,-825
2942,-2187,7335,-3159,1488,-356,-698
2943,-3678,-3648,-5952,987,31,-765
2944,4459,-7698,-4849,-1570,-362,1334
2945,-1255,-1745,-5115,-1808,-21,-1352
2946,-7981,-385,-4872,-787,-1065,1672
2947,-1445,3699,7357,-580,-1092,-88
2948,-545,5503,2933,-1563,1636,742
2949,5193,932,5677,-1814,1837,-283
2950,-7850,-5714,3314,1019,1233,1641
2951,-5641,-5401,-6285,1057,-215,-247
2952,95,-5435,-5331,1962,672,254
2953,562,-5955,-6547,202,1149,1249
2954,6140,-1705,-6099,-1424,1161,-524
2955,4854,6148,-3157,-1891,666,808
2956,-5285,6527,-4000,-986,-265,-1313
2957,-7111,-5370,4418,-459,1179,1523
2958,-4627,2285,-1195,1400,-188,-238
2959,-3198,7570,281,-1187,216,1443
2960,3915,-586,-3132,-1443,-1371,-1756
2961,3160,-7659,-4029,1206,-1002,1166
2962,-2213,1270,7566,1007,-926,-1661
2963,-7923,5800,2070,-934,-1520,-1023
2964,-2493,7979,2609,-503,-527,1103
2965,-3792,1609,-6511,-1814,-879,44
2966,461,-1743,256,25,541,-444
2967,-387,458,-123,1429,695,456
2968,6027,-3056,-7751,-824,1298,1248
2969,-596,-2753,3768,-1924,-1747,-327
2970,-4403,-2605,-1394,-1568,-1405,1975
2971,3253,1521,-7890,-1765,1806,-1891
2972,-7893,4353,4633,1577,893,863
2973,-106,-5454,7199,-602,-1003,-232
2974,-2320,-4877,1828,-536,338,1153
2975,5265,-5576,-6921,1785,1252,1297
2976,-1997,7383,5268,859,-65,1352
2977,1525,-1477,2121,-1909,-1890,-1474
2978,-7594,-6308,4542,-1697,-516,1159
2979,794,6832,5621,-808,1647,-929
2980,5090,-4276,1082,-1236,1895,69
2981,-412,-3203,-984,-1113,1525,957
2982,-6671,7246,-464,704,528,1964
2983,-5118,6901,-1239,-1009,1255,-1592
2984,5894,6179,2779,1001,-1936,1355
2985,-4817,-2663,-3180,390,-1983,-1784
2986,-845,5609,-3290,937,1610,-907
2987,-760,-1641,5213,535,822,1801
2988,4979,-742,-3846,-663,-1612,1275
2989,7667,-6336,-5738,682,-1437,134
2990,-6012,7413,-1391,-1600,1985,1391
2991,-5736,-6616,-945,-52,1036,762
2992,-2096,-6232,-6914,-1531,-1319,1136
2993,3743,-3017,1204,284,1439,1110
2994,3602,-1450,-1204,-1254,-69,757
2995,-3762,-6004,3659,-469,-1746,-257
2996,5340,-3733,-3643,283,-680,-1268
2997,-1508,7293,1975,-504,609,-547
2998,-2870,-6076,-4789,828,-979,379
2999,-7123,4767,-6895,-1497,-1176,-1349
3000,-724,3348,5075,-1990,-813,157
3001,-5865,-7949,4722,-651,1730,-369
3002,7998,4188,-4452,-1609,-1623,-1263
3003,1160,-2073,1679,-882,894,-1988
3004,3101,3098,-1138,1673,113,961
3005,-2516,-85,7541,-579,-96,1144
3006,5244,-4597,-6967,-1014,705,-1139
3007,7814,-7010,1160,1160,-1752,1102
3008,7517,7905,1445,75,542,1605
3009,4361,-5706,7895,-1536,-354,1720
3010,-5183,-1942,-6361,-1506,-1547,607
3011,-5932,-3407,2101,-1924,623,-1291
3012,-4866,-5318,-3520,782,1853,-1891
3013,3493,3865,2222,-1417,-1872,958
3014,3293,-6485,-451,1358,-1770,1117
3015,-6470,6659,-3622,1231,1894,-1878
3016,13,5563,-3534,1949,824,1465
3017,-2125,4375,3397,-459,-43,1414
3018,-3180,2512,1516,-573,1937,-359
3019,-3458,-5530,-587,-637,652,-1380
3020,7984,2584,-7096,-1943,-561,-1287
3021,-2972,7643,6793,-432,-695,1866
3022,7509,7359,3089,-26,-1866,-301
3023,-6962,7330,-907,-120,-1960,-266
3024,-14,6134,7362,-592,-1844,883
3025,-2305,4550,-2643,204,-1098,302
3026,-2729,5668,-3601,-1320,1791,-557
3027,7004,-2289,4220,1369,-1700,-1005
3028,5354,-4362,-1225,-799,593,1099
3029,351,-7891,-5349,-1506,-1625,607
3030,-5716,3445,-4635,-1500,-1962,1979
3031,-1648,5874,5732,-6,-1075,362
3032,5704,6030,-4864,1929,1834,-605
3033,3421,-1786,-2794,1014,-541,-198
3034,4424,5104,-4199,-1139,270,912
3035,-2148,5169,-4747,-36,-1626,-1256
3036,2009,3833,-4603,537,-662,1008
3037,3465,2766,96,1330,1211,825
3038,-2011,6721,-6772,-1365,-498,1307
3039,1270,5415,-3705,-1576,-929,1005
3040,-2962,-6811,4262,504,1163,-753
3041,2808,2593,1743,-867,1417,1289
3042,6831,2286,3775,-1651,1119,-145
3043,-5007,-6589,91,-1751,1554,-1636
3044,-2661,-7216,3127,460,679,-729
3045,-5737,379,4436,-1071,1257,-83
3046,-4309,5226,-2311,172,1680,471
3047,5154,-4313,-375,1246,-1317,484
3048,1107,6055,4232,-65,1955,414
3049,6962,-3772,-2871,1702,-238,759
3050,5157,6644,5726,1430,724,1981
3051,-3654,3650,-1057,-1723,-1421,-747
3052,-7468,5995,3186,413,1132,34
3053,-7895,3097,5935,-1718,-53,623
3054,-1385,5688,-2962,12,-1473,1528
3055,1063,-1579,-1760,-302,-620,110
3056,-2978,-2691,4899,-1418,-864,-42
3057,1061,1542,1647,1207,1952,1154
3058,-1998,-946,2839,504,-1351,1735
3059,-6976,-2262,-1251,-160,155,941
3060,2788,-806,-3912,-1063,-1946,-286
3061,-1950,4303,445,-143,359,-1978
3062,7151,6738,6963,-217,-1034,919
3063,-1238,4292,7062,-523,-1667,-570
3064,1733,-5296,7382,-1907,748,1068
3065,-5844,-7940,3432,-982,1982,705
3066,7562,-5290,-441,-241,-1080,-647
3067,-2629,3901,5587,-570,1651,637
3068,-7445,-3433,-665,-1439,574,121
3069,-598,-7347,4168,-1364,-1748,262
3070,7200,3827,2160,347,-1542,-956
3071,-4322,4274,5420,218,-1205,-1549
3072,-3418,3980,4330,-1184,618,-1477
3073,809,5439,3376,-1816,1752,894
3074,-916,-454,-3303,-1471,769,-226
3075,-985,-3017,3087,-1058,-809,232
3076,-2287,4791,-7218,1347,212,56
3077,-4265,-6054,-4470,1439,662,1838
3078,7738,-3514,207,-1292,1026,-604
3079,-4497,6237,4837,-1492,-188,-46
3080,2170,-2699,1558,12,-1543,878
3081,-7144,-5651,4622,-992,-1458,313
3082,-3250,6563,-6231,-9,1099,-81
3083,3263,3362,-4141,-1118,-1709,1998
3084,-619,5813,-7982,1607,947,584
3085,5832,-6929,6081,-1752,1373,-556
3086,3219,-7327,-2017,249,1698,-1973
3087,-5219,2277,4164,130,103,349
3088,374,-1751,4019,927,1138,652
3089,-1076,-2694,-5787,-1563,-1890,-934
3090,3909,-1043,-6845,161,225,1768
3091,-6247,-1983,5370,1598,-391,-1669
3092,5054,4215,7957,-1511,-812,-1492
3093,2081,-6499,-596,517,-903,1758
3094,7728,6907,-9,1049,1542,-1181
3095,-516,5252,-4995,-372,-735,-1172
3096,7204,1158,4741,-1057,-1338,291
3097,-2181,-5347,-6487,-1312,-711,155
3098,5969,5807,-2089,-149,1846,-156
3099,-4497,-2567,-2640,-840,-1120,-339
3100,-6329,-2925,420,-1718,-1139,1110
3101,6295,3467,1130,-413,-871,1050
3102,-2391,2279,6851,1948,1020,1240
3103,6135,3515,-993,1499,-776,-813
3104,-323,3038,1497,1981,-993,1291
3105,-3536,5190,5432,314,453,-1795
3106,4186,2408,5997,480,-1381,1343
3107,-671,2215,-4205,904,-1464,-856
3108,-5034,-3110,6719,-944,796,1899
3109,-3354,1102,-5042,-1804,1491,1528
3110,6627,3465,-3270,1429,916,1618
3111,6487,-7091,-2337,1083,1107,-996
3112,-5372,945,-7005,1342,-1579,1330
3113,5679,-7795,6829,-1030,-1330,178
3114,-5579,5899,2286,847,1939,406
3115,678,6003,-6987,-1962,799,-1520
3116,3311,4368,-5342,1509,44,1332
3117,-1056,-5079,2445,604,-605,572
3118,-4543,-5888,-5702,1016,-1744,644
3119,4978,-7688,-561,438,1368,1579
3120,4988,-42,-2533,963,-952,251
3121,-736,-6055,6865,-608,1097,1094
3122,3896,6429,-3870,-671,-1719,1330
3123,-2230,980,4782,1993,1039,-1885
3124,7083,6104,-7177,518,-1625,627
3125,6768,5551,3819,1059,1097,-1122
3126,656,5106,-1517,-690,24,-290
3127,-5533,-4870,5953,1034,-1084,-1104
3128,-567,-4901,3368,1533,-232,-493
3129,6009,-5317,-2234,1515,-1601,1011
3130,6238,-1097,7483,-1090,-1397,191
3131,2229,-3602,-4590,-313,162,62
3132,-5877,-5545,-5818,-1561,-121,1993
3133,-639,-6286,-4796,-1552,-1385,1973
3134,-7823,-7006,-2064,328,1239,1103
3135,4851,-6280,4970,1979,7,-1284
3136,-3297,-4680,1269,-1448,-1406,-594
3137,-5289,-6285,7246,-1104,-868,-101
3138,-3352,3908,-6374,-1652,-1534,683
3139,-1715,-5336,-61,1599,-930,-401
3140,4765,7920,-5926,-412,916,1520
3141,-5765,-4377,2021,-475,-902,-1597
3142,-7696,-3501,-3310,42,-77,1469
3143,6304,-5829,1112,-382,-117,-11
3144,-5957,6800,-471,899,1177,440
3145,-2154,-2732,2308,-1446,482,769
3146,2441,2407,1480,-1418,5,644
3147,4865,5141,7884,235,1879,1956
3148,1433,5066,-268,1024,-1070,-1498
3149,-2111,-1587,5879,-1835,1607,-1060
3150,7467,5878,-448,244,1709,1463
3151,-2345,775,450,-1871,1622,1017
3152,3421,3426,-1868,-870,-1745,-1148
3153,-7692,2542,3020,501,-770,-1969
3154,-5144,-6905,-3393,319,1452,1898
3155,-4955,-7961,-4754,-1478,1054,626
3156,-4035,4045,-7865,-1036,-1973,1795
3157,5781,-4402,1550,1224,1985,1438
3158,-5590,-7248,6034,-709,310,-1312
3159,5727,6922,7228,-614,-1691,-428
3160,-3646,4744,-1387,335,566,1883
3161,-7321,2564,-6486,1140,-1431,1674
3162,6137,-65,-3772,1508,-1598,479
3163,1613,1724,1201,-1563,-513,1591
3164,2637,3140,-3506,1890,-1106,-1684
3165,-4612,-342,3499,1696,-1745,-1791
3166,-6548,7713,-3208,337,909,-102
3167,1027,-1608,-5193,785,1200,1308
3168,6975,3729,3540,1653,1341,754
3169,3597,-3786,4388,316,-1609,1512
3170,-2726,7335,1872,1343,-1964,440
3171,-5854,-3951,-4517,1305,-821,-91
3172,5219,4385,535,-301,1809,775
3173,1329,-6209,-4741,-416,-662,-326
3174,-5785,6562,-2682,-1195,-1802,-14
3175,299,-3293,3743,-263,-664,-1531
3176,269,-7872,-849,-416,-331,-1763
3177,-3235,3927,1658,-130,-851,-1951
3178,-1336,257,3792,1329,-344,-991
3179,165,2383,-344,988,1067,1232
3180,6040,-6912,-374,-1291,-776,-1954
3181,4717,-4038,-1071,-1883,461,-21
3182,-320,-3062,1855,1044,1471,56
3183,6694,-2097,-2262,-1308,998,736
3184,-560,-4721,-6075,-1196,509,-274
3185,7459,-6495,7754,-279,1797,-457
3186,298,1451,-4284,1303,350,1540
3187,6030,-2875,-972,-1888,-1567,-69
3188,3011,3668,2587,1331,-1044,-360
3189,7743,-6967,5940,826,1079,992
3190,-6797,7707,-1207,-1359,1864,-282
3191,-5022,-5292,921,1525,1163,-650
3192,6453,-6821,-2323,-1631,1434,-1265
3193,-5751,1066,-1240,39,974,-530
3194,6641,-5160,6551,-688,-1492,-1790
3195,6836,-1482,473,838,973,-948
3196,7675,840,-3332,-266,1378,1687
3197,4805,4732,6556,-19,653,617
3198,3245,-6001,4138,-1982,-1302,593
3199,3353,-1551,-6475,-1213,939,1327
3200,2667,-1815,-2577,-374,-52,-1006
3201,5634,-3949,-6249,-1471,290,-1718
3202,2670,-6108,708,108,-1411,-261
3203,170,-7945,507,-663,-689,806
3204,7690,7271,5162,1718,215,1032
3205,6859,5774,-5859,102,1666,-1157
3206,3987,-4554,2875,-290,325,-94
3207,2041,-6275,-5230,777,852,1512
3208,5223,-4097,3164,882,773,820
3209,-5044,2083,-4473,-697,290,1768
3210,6650,-3871,7981,-1077,1014,1951
3211,76,-5385,6441,-314,549,328
3212,5325,1065,5081,-585,-276,825
3213,-6292,-6061,-527,518,276,1254
3214,6557,5326,-96,-88,-1886,987
3215,-5499,-2821,-7221,880,1488,-1207
3216,-6065,-3152,-5848,-1666,-67,-1114
3217,-1113,-3580,2599,1215,1050,-1559
3218,448,-2163,3404,-1951,747,651
3219,2001,432,-7271,-810,1302,1023
3220,-5228,2085,-6570,-1066,1953,1705
3221,-163,-4506,-7105,-1770,-1262,1078
3222,3289,1117,-5131,-1823,1882,1438
3223,6649,-1880,135,217,336,-324
3224,126,-3887,-6653,411,1441,719
3225,3655,4354,5075,-1861,1115,-961
3226,-2390,-7281,-4532,60,46,1305
3227,-2226,7105,-1465,-1557,1997,-1897
3228,6704,-6514,782,208,1337,808
3229,4073,3957,-443,-1094,263,87
3230,175,388,-7485,-480,1315,1537
3231,6110,-5195,7869,-921,106,-1127
3232,-5413,-6385,2664,1049,-411,670
3233,6293,6392,-165,1641,-197,-1461
3234,-1111,3730,-1906,1230,1513,-1864
3235,6035,-4991,535,-1209,650,1149
3236,4541,5,-6425,508,-1676,1489
3237,5506,-7918,-462,1529,-284,446
3238,4198,-2756,-5890,375,1508,-1006
3239,-6916,7070,-1728,889,885,197
3240,39,-6999,-7494,-970,-36,-1721
3241,-139,-3891,-464,1452,77,1757
3242,5129,-288,2902,-438,994,-1258
3243,6168,2464,1552,1231,1823,-1215
3244,6780,-4322,7143,338,-432,604
3245,4356,-2749,3820,-1243,-152,-1650
3246,5821,-6822,-5277,-1166,-1474,422
3247,-4034,6869,7590,1884,-1890,377
3248,-3830,3363,-1854,1035,-1968,-1349
3249,-4532,-1211,-1639,1963,1237,-845
3250,1003,-2931,-612,-808,83,118
3251,-2163,-6779,6380,-567,1478,-1253
3252,7542,-1290,2539,-749,-1593,447
3253,-5089,736,-927,573,1156,932
3254,-1310,7119,-7332,-1856,56,933
3255,-556,-5236,-2736,-1731,24,-1766
3256,2081,6831,-1002,-867,-468,-1835
3257,4023,-4967,459,32,-702,1179
3258,6528,-6755,-5639,110,-1007,-1209
3259,1298,4224,-43,-487,439,226
3260,-3437,-6857,324,-657,-32,1071
3261,4570,-7996,-7941,-927,-5,-666
3262,-2433,7852,329,1413,1819,576
3263,6293,-928,4579,1286,-1419,1180
3264,-2,-7887,-845,142,-1863,1786
3265,-3223,7182,-2453,-1834,954,1356
3266,194,3200,-2422,-315,77,-1775
3267,739,-4100,-1047,1285,-1390,1445
3268,-6056,-2665,-1820,784,244,-1290
3269,7434,3118,27,1385,757,-1724
3270,5235,-158,-5487,-318,1802,1015
3271,7383,1242,-7669,1457,-1706,284
3272,-817,-1716,7400,-276,778,1921
3273,4387,5662,664,1887,1015,1009
3274,-2430,-7146,2079,-838,-1554,-1090
3275,393,-2518,3669,-586,-832,-7
3276,-5507,1769,2716,348,718,1965
3277,-2712,3823,3652,-1829,1612,-1657
3278,-2272,-691,1757,-823,866,1083
3279,977,270,-2747,1159,-73,644
3280,6928,-1341,5072,330,628,54
3281,-469,-4624,-2887,776,91,-75
3282,5569,6667,-5914,-1513,553,-1739
3283,-5662,3429,-115,-1159,1133,1405
3284,-3740,2108,-5955,1891,-574,1712
3285,3955,310,-5276,872,-1627,1322
3286,-5398,-3928,3361,1752,-458,850
3287,-6258,5531,3185,641,-77,-446
3288,-1744,-6872,-4844,1103,-454,246
3289,7390,-3919,3761,1622,131,1298
3290,82,4736,-3070,-137,1513,-310
3291,2737,-3727,-1892,-1646,1125,1690
3292,-1827,7180,-7162,477,1890,-251
3293,-2231,-2997,5987,-1675,-1892,-880
3294,950,7224,-3606,-755,1115,1973
3295,-4708,5226,55,-1144,-1223,1254
3296,-1517,3252,-3692,831,802,342
3297,6260,5117,6343,601,-450,1398
3298,-331,7287,3271,1061,953,1372
3299,-6765,-5570,1451,812,1267,-802
3300,-1091,4493,-3195,543,-856,-1409
3301,3771,-5992,-7371,-1820,-1136,1188
3302,1708,-1366,-2404,-812,-916,-1524
3303,-5350,-2155,-6532,796,-402,-410
3304,-1023,1826,6830,1005,1128,876
3305,978,6621,7735,-1103,-226,1190
3306,6766,5201,-1919,-1811,1694,-135
3307,6532,7963,-610,-772,-1627,-1793
3308,-963,-5665,-3613,901,788,-1025
3309,-6275,2003,6275,1380,1571,-1754
3310,-4046,-5994,7917,560,-559,-1909
3311,-2404,-739,-4627,1937,1556,-1682
3312,-7790,887,830,-1871,-130,1579
3313,3641,5400,1843,-125,-1935,-1192
3314,3259,-6014,-2657,1986,241,-1351
3315,-589,3911,-6644,-150,242,-513
3316,-7915,814,5269,1953,-1898,1450
3317,1737,-7769,-5408,1884,-1812,1413
3318,7880,677,-445,1643,-1702,-1668
3319,-5271,4698,-2790,-115,-874,1157
3320,-3385,1734,-5851,208,-463,228
3321,-799,-3454,-5145,1939,-1783,938
3322,-6229,-3911,6381,1191,-1461,-1916
3323,7914,-157,-1912,353,1668,413
3324,3568,-2952,702,-890,-867,-1691
3325,3562,6229,-7150,-605,-87,-1594
3326,-7714,-34,-5326,-109,-1865,614
3327,7059,6619,-7682,1624,-1321,-1467
3328,3040,-548,7143,-112,787,-1172
3329,-2676,3754,-2222,-54,922,1796
3330,-400,3957,4695,-709,1272,1091
3331,-3964,-5477,3405,-476,-1867,-684
3332,-7418,-949,1738,1146,1003,-883
3333,2412,1291,5695,972,693,1814
3334,-6051,3983,3035,878,-978,1148
3335,1065,5706,7091,1432,-797,703
3336,4881,-1680,-1618,104,-607,1751
3337,-6557,7241,-106,-1578,-1657,-966
3338,-7908,2970,5968,866,1964,154
3339,2361,-2271,-1427,-1476,-428,-1877
3340,987,3653,2650,543,-591,565
3341,-6094,6723,-6081,560,-607,-1427
3342,-1642,-3095,5362,460,-1640,-1575
3343,-5123,7831,-2983,1094,383,1865
3344,-4712,-3398,-7088,-1684,947,-1473
3345,-4781,-7192,-4279,-842,-1720,1820
3346,3865,4117,450,-204,791,1840
3347,-7826,370,-183,1995,-1599,-216
3348,-6175,-7266,5070,556,1469,499
3349,-6053,5488,3155,677,767,1337
3350,-2161,7992,-3369,-105,-1235,-1922
3351,4926,-4073,-6518,1066,1134,461
3352,6948,-6816,7463,-1845,-1415,-965
3353,1559,-7421,6239,986,1067,-1792
3354,-2057,1020,4408,-429,-1052,1130
3355,4022,-7031,-4721,102,1822,1048
3356,3423,2680,-7550,-335,-633,-807
3357,6323,-5505,34,-524,1406,-1950
3358,-1274,515,1334,-11,416,-497
3359,-4790,3644,2078,899,182,-1891
3360,-1487,-7090,3982,-1421,-228,-815
3361,7667,6998,-1565,-1233,687,109
3362,-3906,4274,-5285,-649,547,1266
3363,1401,-1312,-565,1335,1344,652
3364,-5860,-1451,7001,-1963,-38,689
