Sample,Ax,Ay,Az,Gx,Gy,Gz
0,-1574,-5668,7067,317,-1211,1350
1,-4160,3188,3910,-791,948,-502
2,-6436,7463,-4369,-1901,-46,-1887
3,-6782,-4939,-4333,-369,827,317
4,2590,296,1579,-421,-1791,911
5,-6580,2003,-6956,334,-1807,-122
6,1421,5211,1679,-804,-1848,-962
7,5942,-4467,5235,919,444,-662
8,-5206,5511,-6083,-1338,-1244,1905
9,696,5671,5459,-1058,681,646
10,5545,-3849,2245,1007,64,-1189
11,-557,1022,-4040,-1111,247,419
12,5075,4755,3240,987,-823,-1170
13,-4972,3697,-4726,485,575,260
14,4146,7999,-1314,259,1087,1246
15,-6106,686,-2155,-746,867,-1818
16,2043,-7427,-4452,-817,775,617
17,5803,1016,453,736,20,-1936
18,-6503,-3939,7916,1301,1467,1728
19,2020,7814,-135,836,841,845
20,2063,1229,-3690,-4,-48,-967
21,1394,965,-5970,-823,-682,-1983
22,-5367,-5293,-5469,1628,1109,390
23,-4627,7016,4088,410,1937,-215
24,-5522,-1349,-2035,339,-1326,322
25,-6680,-4513,-1599,368,1809,-1586
26,-1853,-5331,6477,-1566,-638,1862
27,-3053,7623,-6885,-26,-1761,-993
28,-2746,5209,5758,-1273,1330,1175
29,625,-7653,-3913,329,-1218,-859
30,2575,5107,-3882,1019,640,1331
31,4673,5690,-893,1135,1152,-623
32,-6385,2483,-5135,-1560,351,1964
33,-6418,-2905,-3522,-1227,579,-1683
34,1554,2713,-3581,851,450,179
35,-7850,2530,-30,-838,-61,1669
36,-4774,-1252,-280,-1158,-1807,1756
37,4054,-4054,3316,-1612,-22,1072
38,-5319,-4059,-7881,158,-1068,1712
39,5434,5046,-7688,-1527,-1937,1031
40,1599,-3677,-7370,-229,-1406,1271
41,7231,7820,5754,1718,-1939,-1208
42,-5443,4179,-2172,-1838,875,-316
43,-6833,-3025,-631,1069,849,999
44,354,-6253,3047,-1809,1096,-697
45,-5494,7674,7945,586,1256,-1899
46,2942,2077,-2946,-172,-1565,-965
47,7175,-2184,1407,-1528,780,499
48,-5425,-2241,5329,-615,-684,1222
49,7773,5834,1139,915,-20,-191
50,759,4570,-5112,780,-1923,-626
51,-2230,-2767,7167,-1584,-1985,-664
52,-5598,-3405,7913,1777,-286,-375
53,-4025,1246,2468,122,928,-57
54,3361,3999,3399,208,1970,1825
55,-6641,-1702,3548,492,-1973,830
56,-6026,-1971,4218,-1735,947,1884
57,4960,808,2505,-539,-852,846
58,285,-2686,-3762,-1114,-227,-1484
59,-5213,1941,-7576,-1129,1553,289
60,2352,7837,3357,1907,-161,1423
61,-2597,-4942,-3633,1546,-725,306
62,-1176,2508,7735,-1411,-719,1137
63,-4375,-3915,4577,-1852,-1274,-1462
64,2837,-7529,3654,1655,74,454
65,6185,-7799,-6353,1067,-1303,-118
66,655,-2107,6814,351,904,-648
67,-1475,-2853,1133,1434,774,1778
68,4208,-4923,-3923,-19,1213,826
69,6814,-1304,-438,-1553,-38,-75
70,-7425,-3399,3801,-1292,1121,-978
71,1091,2551,-1303,1937,-1588,1549
72,-3260,1956,6113,-227,-1005,-439
73,-1259,4715,1042,1228,1215,-722
74,-5115,-1679,-5790,501,1137,-81
75,-2160,3775,6794,1229,784,-1859
76,-3597,7580,-1072,-946,-571,-581
77,114,3864,-5977,244,704,1703
78,-2640,3664,4639,-1533,-722,865
79,-568,-7930,4837,-1906,-1728,560
80,7964,-1807,-371,1268,274,-1124
81,-3253,-143,4480,1915,-424,-1964
82,1786,-832,5286,-890,-1877,415
83,-1985,4144,-4032,-1888,-1727,1081
84,-7137,-4650,5238,-737,-1534,-598
85,-3115,-2106,-2999,773,658,-1170
86,3997,5044,-4839,-148,764,1858
87,-5813,-5582,-802,-869,-483,1274
88,-7247,1757,2671,-59,1257,-347
89,7795,-3507,536,-732,982,586
90,5830,7,3284,14,-125,557
91,7604,-7703,-724,-1738,-858,1705
92,-1096,6935,-3109,-1795,-689,198
93,4756,-5852,-7786,1691,-637,1635
94,-3432,369,5242,1953,-100,-1352
95,-3560,2426,5869,1108,1632,974
96,-5143,4915,-7175,-92,-1008,-847
97,4853,-3215,-6835,-1406,1698,47
98,-692,571,1391,-736,-1180,1805
99,-5192,-4748,461,343,1983,-845
100,5950,4091,7702,-404,1955,-1472
101,5330,1514,7842,-887,-1987,-1004
102,1583,6419,6396,-1674,803,-815
103,276,4012,4473,762,-1161,-1995
104,-3725,-4983,4443,-1232,101,1103
105,7223,4736,2250,1181,354,322
106,1595,-7950,2068,691,814,-1496
107,-843,-5407,5657,620,-604,938
108,6407,-6729,1124,342,-948,1746
109,-7854,-5601,3055,1873,-518,1718
110,7148,4067,-1983,163,-1900,1306
111,-4812,3188,-2671,-1180,-92,320
112,4667,-411,-3149,-885,825,-1775
113,6291,1162,-7751,1161,-1874,-1207
114,-7806,7551,6230,-1764,1009,1229
115,4757,-7667,1491,1468,1100,11
116,1234,-118,-4663,1207,1675,-862
117,-2767,6079,4169,1029,-1839,409
118,-7536,3525,5992,1502,-144,318
119,-2774,-7432,-1880,-288,-1191,-72
120,913,6709,-4743,-1880,635,25
121,-4424,-2468,-6567,-626,-438,84
122,7805,-3277,-2797,-1900,-1132,846
123,907,-2545,5500,-131,1236,501
124,1953,-7558,5809,-949,-1740,352
125,502,3265,-779,-1017,130,-1455
126,5898,-4857,-2310,1406,720,-1608
127,2638,-52,903,-459,903,-994
128,6436,-3739,-3675,1466,-694,1286
129,175,4332,646,658,-891,1617
130,1582,2541,7166,-425,-1520,-1782
131,684,-2442,4883,435,-554,-1484
132,318,5989,-7283,-560,-913,-932
133,-6357,-2660,166,716,-1855,800
134,-1753,-6762,2846,-1620,938,-671
135,4752,-4747,-3724,-718,-117,766
136,5752,2499,-7654,1591,-1646,343
137,-4727,-4141,-6751,-1100,-1555,1099
138,-6975,-1778,5793,301,-1254,-1437
139,7205,7997,-5777,1233,-100,-1805
140,3016,75,-3602,807,197,-1167
141,6683,1150,5649,837,-971,-1703
142,6887,-1460,235,-108,-1582,-423
143,-3616,3741,-6774,1416,184,212
144,-7270,-6482,7811,1220,1493,179
145,655,4185,104,-36,-749,570
146,-7904,-2677,2812,1480,-969,61
147,-7289,-6607,1447,-1521,1834,1120
148,-3123,-4652,4112,-1569,1410,-665
149,-881,-3505,-1498,1546,-1706,1396
150,-511,-1945,5259,-615,-449,36
151,4480,3071,891,386,1998,762
152,4290,-2150,1414,864,1948,740
153,2205,5275,3628,-1255,944,726
154,-1757,-7453,7509,-990,1799,-657
155,4993,-2507,-7050,-1466,-1328,-31
156,-1678,7238,-4280,206,881,-545
157,-2566,2491,3417,1009,-1678,532
158,3729,4644,-7923,-550,977,-195
159,-3824,-4865,1934,-1619,-1942,-1137
160,-2093,-2365,-6578,-1733,675,228
161,222,-6005,3243,1574,1265,100
162,1846,3042,-2481,1324,-902,1908
163,88,-7294,3423,1249,442,-1743
164,6968,5098,-7861,1775,-1538,202
165,6987,6758,4765,597,1347,-355
166,-2849,-1697,4811,565,-222,-1827
167,2135,-2443,204,355,-1570,974
168,1688,-4781,-1419,-1899,625,-825
169,6249,-2042,4920,1614,-1133,4
170,7968,4507,-1995,-1287,-1582,660
171,-118,1431,6216,-655,-1528,-363
172,-181,-7148,4604,-1133,-829,-232
173,4120,-7740,5715,-863,-628,116
174,6727,-1532,7131,-1486,940,377
175,-1778,-6612,2532,13,1074,703
176,-1253,5501,-3562,-1466,1150,2
177,-7041,-5235,5417,-513,1067,-1805
178,156,-6000,-3308,1798,1983,867
179,-4673,-2424,-3227,-1286,1458,200
180,-5059,-1290,-2079,688,1869,386
181,1198,-3544,6816,37,-233,-1546
182,-1194,1464,5106,-103,872,781
183,3,-3051,-1835,-133,691,1064
184,-2819,3629,5970,1070,-1075,1628
185,-7913,-1415,3230,310,-1368,-758
186,343,2320,7420,413,1084,-933
187,6106,7351,1910,1795,1998,-306
188,-7640,2970,1259,-1580,-777,-1552
189,-4407,3887,3821,1917,-242,-597
190,-2312,-7215,6239,-1317,1006,1185
191,-880,-1260,2632,1578,-1559,-744
192,4562,3934,-3587,-1268,1720,-1204
193,-1520,-3068,1507,1484,1966,1410
194,710,-4104,3582,-584,-1409,-392
195,6188,5657,9,1399,1981,1366
196,-185,5400,1329,432,1057,-77
197,-4524,4099,6460,-1360,37,575
198,3476,3454,-686,-608,70,-484
199,5062,7171,6239,-1996,11,-1298
200,3438,5084,7687,-1518,407,1669
201,5042,-702,4229,1736,-1150,-797
202,7876,-7264,3331,1018,203,-1759
203,2353,-5080,7318,1724,-1909,-14
204,-2370,-4011,-2606,883,-694,94
205,139,-7298,-4486,-1675,1583,-402
206,-3145,-6148,-5673,1116,5,1082
207,-1686,3420,-3759,-794,-545,-1855
208,-2059,-4804,-7667,-470,1652,826
209,-4690,6087,-3401,1973,83,613
210,3608,-2617,3778,-347,892,-1153
211,-3505,-3218,7744,1346,-1341,-1268
212,4048,5431,6444,1573,-1894,-1643
213,-2304,7705,4523,-215,-604,1816
214,902,-3404,-4107,728,161,1423
215,-1841,3786,-5191,-700,273,872
216,-2570,-936,4621,1874,-1954,1330
217,-3119,4700,-6589,1704,1744,-818
218,-6348,-4931,6239,-1628,-194,-1497
219,-766,3493,-1116,-856,-768,55
220,840,2687,1626,-1559,-193,1569
221,5661,7549,5595,-882,795,-840
222,5811,2288,3044,-1716,1715,-87
223,4130,3386,-3466,-276,-151,-1885
224,-411,-2463,4414,1968,1681,-772
225,5633,-5336,1770,1166,-524,476
226,-4234,3261,-5402,-1639,-339,-8
227,1352,1977,-6349,-406,973,1251
228,-2116,-2494,3360,1929,775,1084
229,1799,7023,-5762,-952,-1848,950
230,-6533,-6072,-2997,335,-1506,1689
231,2682,6965,-1462,-150,-1092,-1690
232,-5579,4422,2283,-1202,-1994,148
233,5976,-6500,2805,-1251,1513,302
234,-1958,-2172,-5800,1160,-375,-1327
235,4109,6224,-5505,-508,-643,1818
236,-3195,-3268,1351,544,-1900,1538
237,-5760,3704,-3848,-1048,-1703,-831
238,-7655,-2264,-7563,1774,-407,816
239,-5529,837,6004,-1239,-833,-1384
240,2797,-5479,-4809,-1706,-1395,1972
241,-174,1663,653,288,-963,-1353
242,-156,-1235,-5459,-1453,-240,-1596
243,7810,-4262,6870,707,-166,-522
244,694,-3144,4679,-1182,630,-935
245,2872,-6533,-3720,831,1667,1720
246,-2925,-3994,4252,-1865,1660,-605
247,2549,29,7657,1445,1705,1582
248,-5045,-27,-3311,1597,34,-1615
249,-6414,-3818,5556,-1009,-777,-1609
250,801,-4588,2342,-82,631,-358
251,-5923,6009,7482,-1830,1256,256
252,4937,-6710,-4151,1876,427,-70
253,-3735,3176,-7306,-827,-130,-1350
254,-2169,1280,1660,764,743,1340
255,4329,5020,-5589,502,1838,1195
256,-729,-3406,4902,-1577,-1338,-751
257,3367,-3252,-6625,-905,-1191,-102
258,-1075,-4401,-7343,215,1699,94
259,1539,2982,-4795,1749,-690,-426
260,-733,4400,5783,297,-1334,1882
261,-5856,-4195,815,1496,-1585,-1303
262,5028,2632,7229,-510,-1054,1279
263,-1032,-5598,4310,-169,1889,1364
264,5472,5772,-1797,1850,1835,-202
265,5383,-4401,7497,-1175,-1044,1887
266,7941,-463,3426,-1498,841,-1151
267,1893,7034,919,125,-272,-801
268,-7262,34,-7043,-1488,9,124
269,6316,6127,-1761,977,46,296
270,1253,-1033,3798,1058,-640,66
271,-5033,-2897,-4075,379,1910,476
272,-4977,6658,1814,1019,1047,-127
273,7094,5243,-7656,-1938,1424,1165
274,-5463,-6637,2592,1890,1091,-650
275,-2566,7909,4831,1489,-735,-706
276,6881,-705,-3120,-1811,-1698,-207
277,6445,-2090,-7605,-1687,-651,179
278,-5497,-166,-1099,681,648,1292
279,-1883,981,5635,-1909,537,-315
280,-3291,-6135,-4895,-141,371,74
281,-7815,4032,-1511,-1223,-1415,-1645
282,-7135,-3169,7090,725,-1046,92
283,5632,6044,1518,-1423,-379,1180
284,1684,-7820,-2932,-9,1624,-1081
285,-4632,-393,4005,-159,-1949,1416
286,2790,-782,3812,411,-1315,-1495
287,4341,-4895,1262,417,511,212
288,-4350,-7561,4251,139,-1306,1822
289,-3169,6710,5098,-1677,1185,1982
290,-6387,6310,1650,-1472,1839,-467
291,5938,-5360,-7627,-1180,-364,-1100
292,-3575,-742,-353,-437,1234,-1629
293,7942,-130,-4535,-1868,-44,-1221
294,7826,-5234,4036,256,-1049,-1970
295,4620,702,-3915,-779,-217,1353
296,-4058,3195,-471,1236,-1928,-1891
297,-1832,1895,6441,-562,1232,-34
298,4222,-1550,-4675,-784,-1278,-99
299,-4552,5957,-4716,-848,-540,-643
300,-1884,-1405,-5638,172,1774,-734
301,6208,5384,-5697,587,-1603,1566
302,-206,-5140,3318,-616,668,-738
303,6624,-6296,4728,1071,274,-1739
304,2712,7092,429,688,-1084,1169
305,-1350,-5796,424,-442,1458,697
306,-7823,43,-7033,-1446,-417,-990
307,-7438,6802,-1152,-1080,-442,124
308,-7272,-5622,2462,677,-861,1964
309,-1267,6850,-66,1451,-1774,-1602
310,2048,-6460,-189,525,503,-1656
311,-5059,-1483,3862,313,-1944,1268
312,3258,-1969,-3519,-1463,1808,316
313,3585,6370,-5659,1677,1023,-146
314,-7579,5822,4324,-1469,1926,152
315,-7550,4830,4806,-1753,1737,-564
316,-4473,-894,-2251,463,729,-626
317,6727,3014,-257,-1029,153,123
318,-1895,-5536,-6154,1754,140,-1017
319,-2515,5559,-1958,88,767,-1262
320,-4504,-3404,-5594,-784,-1621,955
321,3926,-5463,7082,-922,-883,-1995
322,-7421,4078,1294,-693,-1797,1969
323,-7352,-1314,-799,-1737,-1245,1234
324,6445,1142,1288,1726,1385,-811
325,35,-2547,-3541,-309,520,1124
326,-7837,7361,-5084,-1780,1233,-1703
327,2968,-1932,-2690,-555,1545,-1346
328,950,-2976,-6884,-1375,1585,-790
329,7790,3146,5486,1388,-1020,414
330,2994,-2909,477,-701,985,507
331,3363,-6072,5063,-641,1743,-1178
332,3059,-6100,-2724,-29,-995,-103
333,7153,2593,-371,-411,1196,-1207
334,1609,302,154,-1942,793,-478
335,-2340,-5778,-2166,-1584,626,-1637
336,-1186,-5087,1583,384,59,-1514
337,-1471,5361,2922,-1493,-1313,-467
338,-4408,2291,-3166,88,1728,746
339,5176,2674,3294,-1784,1530,1580
340,-7109,5074,-4943,1932,-1327,-338
341,-4211,6618,-62,1734,-1121,1679
342,-6215,-5152,-3361,-1599,1855,660
343,-2207,6878,-3964,-796,1998,-1509
344,-2970,1252,5524,1492,829,1839
345,-2819,-1169,-1198,1281,-925,1799
346,-4252,-3318,-3529,1225,-546,-327
347,-3959,-4718,-3423,828,-282,-900
348,-6670,-3913,7041,-1382,501,99
349,4034,7044,-4680,281,-1450,1539
350,83,2061,-4246,593,-1214,145
351,3332,2828,6602,1348,-893,1396
352,774,-6279,-7384,-1395,1585,1113
353,4806,6506,7871,18,-616,-1236
354,-6806,2398,7032,-515,1359,1107
355,1588,4973,723,-586,-1613,-1166
356,6302,-4681,-2248,772,162,-1740
357,7034,-1862,6754,1950,352,929
358,2308,-5117,-4217,-1022,9,1951
359,-3386,-3781,2689,-719,-1719,1705
360,3533,-5724,-965,-1803,-1821,-673
361,60,446,7412,1531,-1997,-26
362,2732,-7586,-569,1083,1371,781
363,5122,6159,-6194,1390,-1050,1417
364,-2902,-6501,3593,1119,753,-411
365,6361,-6836,2122,1404,-1410,-545
366,-5247,4800,5765,-1946,1449,1515
367,2735,-6532,-5675,838,-1858,-1851
368,-4256,-7192,-3015,1227,1422,1019
369,-5223,-636,2580,1956,745,-1646
370,-2685,-7431,-6741,-694,781,1808
371,-6761,-4284,-4087,-1015,1163,1157
372,-1994,-5695,4548,709,-426,-1494
373,-6374,-4639,614,90,479,867
374,1494,-1432,-5794,-512,130,-207
375,5158,4713,3504,-1186,737,1915
376,-194,4494,-237,-1792,666,-1559
377,4879,-949,-7109,-928,-492,-207
378,4793,7426,-2708,-630,-1236,1003
379,5357,7272,-7433,-1734,-397,1575
380,2586,774,730,1246,104,-552
381,-7850,2367,-5431,716,-1726,-1820
382,5859,1977,6327,1593,-1781,1260
383,589,-992,2364,-708,894,668
384,-6092,-4425,-4436,779,-10,-734
385,-37,5494,-3601,-1599,229,-956
386,-4115,-1521,3508,1544,357,1285
387,1357,6815,-739,-597,1902,1057
388,2023,-7688,7943,649,-41,-1400
389,-5459,-4447,871,1622,170,-393
390,6995,3116,982,-1458,-61,-1685
391,1446,6148,-3993,401,-120,-1780
392,3927,-4676,3745,-1208,1715,1348
393,5890,4425,-966,-1613,-1867,1354
394,-5647,3598,7527,1880,1148,1903
395,-2260,-4432,-523,-667,-866,-1518
396,2870,-90,-7710,497,1833,-1195
397,-7799,-4864,4850,1465,510,-1236
398,4122,-1421,2937,1153,-660,647
399,4881,788,4112,-149,-1898,-1624
400,5039,-7557,1589,-1962,60,-1361
401,-2459,-1373,7585,1584,-1031,-1112
402,2531,-2397,4111,997,130,1177
403,7780,6649,-5364,1167,-1948,-1992
404,4397,3971,-4880,1224,554,1555
405,6309,1250,3618,-627,820,1071
406,-2198,-3681,-3598,-1037,-1318,-613
407,4394,4817,2058,1504,-1130,-1566
408,-5706,4138,-3494,-522,-251,-740
409,6854,-6509,3654,628,-740,-962
410,89,-5745,-7532,-738,-1482,251
411,-3381,-2245,6660,-628,175,1527
412,-2714,4061,-4693,-1651,-1965,-864
413,-4671,7020,1586,-1696,-227,1754
414,336,-6686,-949,-1141,1455,1757
415,4332,-5116,6929,1323,859,1126
416,-234,-1806,5420,-152,586,1591
417,-7437,5359,143,1975,-72,655
418,-4979,1853,-7367,-499,-572,801
419,1162,3015,4528,-1069,-529,-1138
420,-6353,6917,-7774,316,-27,1149
421,609,1990,-3234,1456,1,-715
422,5223,2209,-1834,399,1224,-1349
423,1161,5545,-2903,994,-1833,-500
424,3062,-7721,-4742,352,-1129,-1484
425,4134,-6816,-4220,1761,-665,-1571
426,-7972,-3077,1818,-1296,-252,-37
427,-3356,-905,3744,1686,898,1854
428,-1101,3068,1539,796,970,444
429,-3954,-794,-7505,-1259,1225,-883
430,-4961,1844,1461,1426,1900,1162
431,-6100,7671,7473,-368,1121,-281
432,-4133,5789,3620,1352,123,1796
433,-281,-5556,-6478,10,-871,412
434,-3968,-2824,-1385,903,371,122
435,-929,-1609,4028,-441,918,728
436,2419,3577,-4594,141,1710,1917
437,-1401,6345,-2789,1137,783,-237
438,-6176,-1216,-4942,-913,-635,-974
439,3545,7757,7053,-1173,1775,1121
440,-4114,-7223,-4428,550,-1997,-1262
441,-6344,1328,6760,-673,-1977,668
442,-1376,7207,540,-1499,-943,-548
443,-4576,-4581,5029,1155,-243,1808
444,3189,7920,-779,-481,863,-1593
445,-7274,7285,5297,-1488,-373,-1353
446,-3758,637,618,1435,579,-148
447,-7611,-2332,497,-55,-164,-780
448,-7078,6499,938,1262,-1451,1609
449,1679,-1237,-2158,302,1221,-544
450,-5821,-6886,240,273,-329,1755
451,2821,5245,-1995,-1583,-11,201
452,-6333,5174,-7484,-947,-388,-655
453,5373,3198,4515,603,484,-1546
454,-3148,6187,2178,-761,-702,-1056
455,-6231,2289,-5784,-891,-1167,918
456,3566,-4123,7522,-1314,-1015,-226
457,-5070,-5532,481,1431,370,-345
458,2644,-7296,-5312,-1663,322,-1784
459,-7483,6354,6802,3,-702,366
460,7293,-5898,-6081,161,1931,1310
461,-4312,6869,-1251,-638,269,1554
462,-1038,2950,775,-1321,442,-273
463,-7409,2444,-1090,627,43,996
464,5590,4443,-3533,-263,600,-1939
465,-3919,-6252,-3548,651,-898,1652
466,4234,-6270,-6977,1579,-1963,-321
467,-6694,-821,2766,-1158,-1439,-149
468,-2928,-6201,-2471,1397,-34,1661
469,4052,3716,-2186,-609,-25,934
470,5275,-752,840,548,1140,-1090
471,5171,1991,5903,614,-1557,1509
472,-4383,-5681,1186,1485,-1437,378
473,-302,2824,754,-548,1209,623
474,6020,280,-4552,-199,867,1943
475,-3581,-7484,2575,-663,-1985,1449
476,-3515,-4100,-2371,-1226,-1368,1678
477,2371,1729,7413,1036,107,1790
478,6712,6484,1379,-1,-1961,577
479,3540,-3007,-7201,-1875,-23,-651
480,-3072,-5102,5192,1313,-424,369
481,5445,-6788,-7162,-82,-462,-874
482,-435,-7551,-268,-111,1410,985
483,-537,-593,-1272,694,1284,1766
484,4525,-1402,-6191,1128,516,1354
485,-2353,3333,5868,165,-1742,1815
486,4238,3543,-902,-1299,777,47
487,4236,-2071,-5859,522,644,308
488,-7233,2226,2584,-1600,764,-448
489,2124,-1794,-3795,1098,-1044,1008
490,4575,4472,-7361,260,229,282
491,4641,-431,5102,-347,-1650,48
492,-7446,-6083,1063,-615,-530,1119
493,1061,-2400,5411,-113,645,-1370
494,-6509,-3603,4568,1699,1659,-1069
495,5967,-6261,-3117,1581,1195,-499
496,4889,5436,-3178,-142,909,1653
497,-5272,4756,-6155,1590,987,1204
498,-2605,-5749,-4418,1210,37,1050
499,5231,6339,3894,-519,788,1146
500,71,1382,-2429,-1008,1983,-1738
501,2594,7856,3507,-1880,1262,-1241
502,7593,-7446,2785,-691,1587,-1475
503,663,7013,6222,1858,-745,601
504,-7822,-5528,-5634,383,1307,1371
505,4430,2004,6904,977,1247,-990
506,2608,7232,-4880,-361,-730,-224
507,-1198,-3414,1038,728,-1382,1685
508,-3912,1531,-3773,-493,1211,1671
509,4832,2745,949,-32,-1699,-230
510,-6305,137,-4169,-1147,1701,1652
511,6518,-4233,7114,-1417,-1721,-946
512,-2397,3023,-3116,717,-898,-241
513,-7752,-6231,6878,1540,-1493,19
514,2193,2740,1607,-1845,-179,-1815
515,-7078,1859,-5098,804,-383,-1185
516,4507,-7363,2322,-870,127,-1254
517,-5679,-3199,-5349,-1465,905,459
518,3844,1141,-6654,-1457,1918,534
519,1406,7322,4410,-597,-1688,147
520,-5268,2436,803,-1941,320,-433
521,-805,-2931,-1529,1177,583,630
522,3488,-7279,2561,-1379,293,-1912
523,-1958,-5358,1379,-403,-1503,-814
524,-4800,-3548,7975,1677,1929,1674
525,5478,2040,7763,-3,-56,-1523
526,-7797,-5403,-5120,-625,792,-564
527,669,-6164,-814,-1348,-756,-1671
528,-2807,-3996,4462,-1823,-1027,1472
529,3943,-3784,-2268,-1138,303,-1635
530,177,803,-7574,475,-892,402
531,-2482,770,-6790,-1149,1101,-1110
532,6317,5209,1236,950,704,967
533,6668,-445,6225,1585,-394,1795
534,2560,-577,3718,503,-1188,1009
535,1456,3365,-6409,-47,693,-1875
536,1659,-2391,-3976,1423,1393,320
537,4263,3377,-3927,-1271,-1550,-690
538,-1516,-116,-1381,1548,-1353,879
539,-7546,631,-5932,1574,-9,585
540,5222,4248,-6303,-1671,376,-1133
541,-6289,-3839,5550,-1399,-493,-1645
542,-5270,440,-4219,1454,-71,-615
543,-6357,-3022,1377,-1323,225,1056
544,-4959,-7758,5196,-1129,-756,-175
545,5745,3360,453,763,-1910,204
546,-7791,-1081,3153,-143,-1040,-636
547,-373,1969,-927,-1570,-1870,992
548,3193,-7462,1843,-1293,27,-522
549,-2783,7390,3939,1041,-1963,-1600
550,-71,5207,571,1981,-1114,262
551,7775,7153,2131,-1282,-1859,341
552,-5075,2794,6102,1537,-196,-1638
553,-1184,-7186,-7462,-1440,1507,503
554,-7823,1363,-6831,162,-999,1007
555,-6320,5256,-3125,-1902,-1807,1963
556,-3409,-7828,2762,-855,-309,-529
557,1481,1729,-6826,-1906,937,1436
558,-7051,5400,-2869,-1363,403,-1924
559,-305,3027,2651,1048,77,1397
560,-7883,-3892,6926,-1864,-1835,277
561,-1078,-6850,-6730,79,-788,-319
562,213,-3793,7389,-1053,1605,-127
563,-2185,-7567,3267,-1790,1967,1440
564,5336,3108,-3821,-1240,-989,-1249
565,1763,-5536,-3723,-683,1625,653
566,6224,615,-4838,-482,98,-1957
567,5071,613,1834,257,1723,214
568,4663,5410,-364,-258,1636,-955
569,7357,-410,-761,-807,939,1093
570,313,-4431,-253,479,-317,-616
571,-4390,-1155,657,980,1318,-1789
572,-410,-5013,-4653,1534,1939,1789
573,-3590,2993,-7291,-1162,1932,-81
574,-6466,6521,-1567,1051,262,-1254
575,7906,3669,3993,-75,-795,777
576,-5040,7523,238,-517,1043,-793
577,-731,6305,-1391,1236,-573,243
578,-6555,865,4197,-1150,1402,-835
579,-3987,4414,-2893,-555,-356,-941
580,4804,7728,-7033,1158,754,152
581,2275,-1360,-4422,1968,-624,-111
582,2476,-2436,-2908,1169,262,-187
583,3938,7985,3592,-286,-283,-1226
584,6560,2774,-7847,1659,-964,979
585,7819,2225,5110,911,-768,-1320
586,-4513,-7379,1738,769,-551,-1304
587,-6728,2204,4251,590,-497,20
588,6900,3178,-7983,1461,634,249
589,3462,4418,7628,591,927,-1
590,7882,-1641,4211,1515,1318,1081
591,-3761,-1280,-114,-189,-273,-1120
592,4190,2197,-7583,242,1804,335
593,5156,4627,-7549,1901,208,1018
594,2910,-1386,-5231,-1721,-354,-1537
595,-2854,-420,-2087,-48,-1372,-1672
596,-3177,7050,4541,973,178,-1052
597,4091,-2755,2293,-1917,-825,-664
598,-7319,-1169,-6091,-475,328,-1155
599,-819,4843,2550,-1464,-1773,-868
600,-4930,-3568,-2998,-668,144,-312
601,-76,7107,-2117,-862,1060,14
602,5262,6043,-5303,1913,-252,747
603,-5814,-4482,379,252,-706,-1108
604,-7182,-4918,7498,554,-289,-874
605,-1991,4210,-2878,-1685,-636,-1377
606,-7386,3679,-4426,-1564,-1756,1911
607,-1488,5575,1304,1526,-753,1985
608,-6098,-5478,-7695,-1177,1555,810
609,-3055,4178,-5644,333,-173,-847
610,-6896,-1231,7085,-1440,-462,1362
611,987,4066,-2432,-1879,-171,-414
612,-7516,6407,-2389,-1087,-1046,-939
613,-4449,-4793,6461,-1929,-1702,-1890
614,6496,1994,-2303,-1277,879,1825
615,6323,3510,-7572,432,880,-271
616,-305,-5939,3543,387,-192,1234
617,-1994,6093,-6176,-769,-889,290
618,6445,-7247,1797,1739,281,1007
619,-6071,-7097,-3431,-981,1935,1574
620,3995,2251,-3625,-777,1215,-1176
621,5013,-2078,5148,1915,-1781,247
622,-7264,1509,-7030,804,-605,-328
623,3040,4683,-987,378,-1801,-217
624,-3884,6800,7255,1995,-1093,-1224
625,3677,-3455,6062,-1432,1038,1459
626,-5278,4169,-3159,1166,-1256,-337
627,-984,6451,-1670,-1584,-511,1895
628,-4125,1837,-5418,483,-1825,-999
629,-4862,-6623,-1864,-416,1315,-1570
630,808,7667,-5921,614,-99,210
631,-6203,707,-5951,-586,222,906
632,-7549,181,-6312,-1698,1771,605
633,1413,1427,3074,1619,-875,-1265
634,-7368,3647,5248,-642,1361,-1303
635,5334,3799,4413,1640,336,-1066
636,-3002,-5225,2717,-1151,-1220,-1857
637,-4736,6960,-5728,-60,1569,-815
638,-423,-6830,4212,-6,239,797
639,1755,-47,-4752,-1221,-1814,1990
640,-7187,-2988,-5318,-1111,-217,-1877
641,-1278,-4850,-3578,-1924,1884,-1107
642,6704,3625,-4302,-1250,558,160
643,-1076,-5011,4438,-354,589,-1798
644,-6104,-3495,1517,-1527,-809,811
645,-2320,1474,-423,1159,-65,1695
646,4248,-823,-38,-1788,1824,999
647,7698,3129,-5868,-745,266,-190
648,7282,-117,-2236,-600,125,1232
649,-1169,-7208,2808,441,-249,478
650,2264,528,-5873,1669,-1529,-1206
651,-5283,4542,-7059,-1081,-687,-1533
652,-1735,3416,2577,1541,626,1100
653,5022,-2905,-1126,-1602,-1966,1500
654,-2439,-3342,2822,-1663,313,15
655,7278,6429,347,-367,1073,897
656,-5483,5386,-5445,273,-492,-820
657,3082,-4520,-3363,-264,180,-296
658,1772,1583,7366,1269,-1341,-1213
659,-5107,2421,-6093,280,-483,-1118
660,-5168,6011,1827,1860,1942,1483
661,-7769,-1776,-4165,-162,-1672,-1744
662,582,-4999,3774,-1687,1979,956
663,969,1348,5118,1941,1351,-337
664,-3869,-482,4801,-1857,1893,690
665,3312,-6263,2042,485,-743,-1649
666,5621,2698,-2777,1434,1855,-1271
667,-2406,-7351,-7088,-695,-1729,-1274
668,684,2381,-486,-1359,-620,669
669,-2533,-2078,202,409,1612,-1513
670,-6718,-5113,7133,-818,1760,-1982
671,4417,2656,-4996,1473,-922,-1289
672,477,1820,-60,1522,-1028,492
673,-3640,7573,-2218,-373,940,-451
674,4560,-6530,-2303,1464,-1348,-1675
675,7423,-945,4983,-898,-1041,1114
676,-4551,4615,399,-120,-800,1309
677,-3955,5229,1660,-1439,1695,97
678,-1814,-3863,5931,171,846,1761
679,-7694,-3232,2995,-1069,-888,-314
680,153,3800,-6584,177,-1646,979
681,7304,-1629,-2734,-1472,-452,-1041
682,-2221,-7052,-2434,1609,1576,549
683,5199,-5849,7513,-1805,1432,-1783
684,-2120,5270,-2411,1908,30,-492
685,6054,1244,914,1794,370,1059
686,478,-491,5375,-323,1452,-1148
687,-3580,-3859,-450,-1119,371,868
688,1474,5540,2146,1963,-1936,1398
689,5349,-1878,5106,-1933,-1814,-63
690,6482,-2276,1884,1688,-231,-862
691,5303,3438,-589,62,-1704,-869
692,1845,-2280,-3362,-1804,-1645,1984
693,-1837,7622,181,-673,-1597,241
694,-152,-3972,5786,-1841,1371,-1417
695,-6874,2295,1485,1498,1539,-984
696,-7202,-1245,1259,1561,-919,816
697,-7740,6173,-2893,1880,-546,1114
698,-7810,-7639,-1166,-544,-74,-662
699,-1074,-2550,-4133,1400,1383,1350
700,7534,4302,-7413,-1950,1950,194
701,-2470,6088,-4274,441,686,-980
702,4732,-4048,-2158,-1657,1863,-333
703,-5685,2033,-1072,-1803,1192,-20
704,3177,-4963,-95,991,755,-702
705,-6211,-4663,4493,1147,-1146,-1839
706,6318,7203,3191,-613,-1770,1237
707,-2514,-7695,610,795,-516,-1894
708,4901,-1564,-5278,-1701,-1228,256
709,-7007,-2194,-479,374,-280,127
710,-7586,-959,5758,1828,-1898,-268
711,-4845,-3156,-2629,-1744,773,-1000
712,-6912,-5451,725,-1434,-286,-999
713,3990,-2952,7772,-1906,-439,624
714,-2345,-6814,-81,-979,-1004,1102
715,-2167,-2922,-2331,62,1977,-1766
716,1817,-5336,-2103,-744,283,1755
717,3455,1173,2073,996,-1579,-1388
718,6255,1517,7527,1749,-1001,-1006
719,2786,-2957,5418,598,1178,96
720,-638,-5748,1401,-1762,174,908
721,5274,1978,-7551,1741,-684,-525
722,-67,6067,-6317,-1651,-843,-585
723,5706,4562,-6364,-959,-1784,101
724,6353,5086,-3549,-243,-929,358
725,-6724,-4355,-3015,-1804,-1991,392
726,-2999,480,-6612,-1987,1169,922
727,-178,-3703,676,-1460,1054,-975
728,3574,-3867,5557,-1493,228,-809
729,7413,-5495,-5136,1580,-1817,-451
730,-6482,-6031,2314,-1923,-565,94
731,5923,-3472,3657,543,-776,76
732,-6945,371,-5373,1745,539,1878
733,-5084,-7147,-1632,-1881,-204,-1986
734,-1233,-3952,-1231,143,1439,-1213
735,2215,-1447,-6326,1629,1504,1622
736,3110,-1983,5945,-1706,1225,-128
737,-2412,3501,767,1849,-1498,1039
738,-4291,3370,4204,540,1812,1468
739,-538,-2736,-4514,-238,1015,573
740,3319,3370,-338,489,-781,-1133
741,5775,2834,5764,1171,-1023,148
742,-3633,-4586,5917,1101,1406,-164
743,4081,-7020,-3020,1165,545,-1996
744,1062,-7906,959,96,1765,-1660
745,-4186,6332,-2733,-1946,1865,-370
746,-2503,-2219,7073,75,-1150,-1140
747,-478,5771,3821,1848,659,-1670
748,7292,-6296,-5005,1196,469,-1608
749,-3625,-6788,5922,-810,-692,-112
750,-6418,1757,-1036,762,-544,-1802
751,-7551,7850,4863,536,-188,-707
752,1965,-3188,-6408,-1925,1987,1927
753,7030,5569,-7216,-575,64,-333
754,-1030,-2524,395,-1662,236,-703
755,-3523,788,-1795,1601,1106,1607
756,-7492,-6857,-1105,1638,-1869,-1877
757,-7118,6176,7589,-929,1628,12
758,-5018,4223,-4082,606,-1277,-1365
759,4364,5353,-4107,1706,1265,-998
760,-7852,-1199,5726,695,247,1205
761,-1342,-4211,6235,-838,368,-1686
762,-5996,-2620,3297,-271,-665,-857
763,-2024,-4218,831,-312,830,1934
764,-2174,-1411,5851,-1048,1168,1298
765,-3064,-2871,6104,-442,760,792
766,6312,2218,-582,60,1119,201
767,7455,-3925,-4981,522,-1793,-769
768,-5884,-3703,4664,-376,708,-1156
769,-585,-7125,5323,154,-1459,-450
770,3469,7293,-4048,1875,-1402,-185
771,2171,-5322,2112,-1818,-1804,-34
772,400,-4910,6929,-1711,-383,-1910
773,-3082,1609,-5602,-967,-852,1947
774,7833,1896,-3400,67,1891,-1134
775,-787,4969,-4455,1408,-553,156
776,2230,3106,919,-318,781,1921
777,1683,5793,654,1378,-66,805
778,-7778,3120,-3377,-829,761,1402
779,7626,-6645,-4617,125,-1954,-1539
780,2174,-1232,6653,66,-728,-170
781,-1870,317,3627,1541,-624,-169
782,-6683,-7212,-4923,1368,674,970
783,-2486,-6467,942,528,1463,1172
784,-2000,-829,669,-1749,-1521,-1183
785,7901,-1445,-4243,448,839,1340
786,-5323,2931,3132,1741,-455,33
787,-3338,4711,3321,-1879,-71,1039
788,1329,992,-5959,1889,592,-1039
789,-1233,-3520,-2124,337,-1371,-1184
790,-1522,4377,3877,807,-1247,1973
791,6038,6680,-5997,-1556,1198,-1701
792,-3732,649,918,-1842,374,-908
793,-7149,-4291,1198,-651,1438,-967
794,-6141,3708,7799,-1224,1921,56
795,5798,4943,-173,-1935,-1320,-438
796,1049,3828,6140,1311,-277,1359
797,-2892,5611,-2114,1643,-90,-1544
798,5267,-6853,-7521,-1271,-1324,-419
799,5648,-3784,7648,-136,-1431,-1337
800,-3612,120,-7917,1615,1333,429
801,-5958,4111,4293,-745,-1604,-754
802,5728,4606,-5257,-1939,-676,-927
803,-3504,-5553,-7149,-1090,-406,502
804,4373,-2834,-6510,-1103,-759,1459
805,-5860,6793,-3878,789,1503,-1913
806,420,-2965,6460,1228,-1176,-732
807,-2242,-3479,-5148,418,-1225,4
808,-7856,-5538,2654,318,112,-1268
809,7760,-1117,-254,-22,1268,1189
810,-5267,-3057,5989,-995,-1833,-837
811,3649,-6251,2915,-421,743,-1017
812,4190,6955,-7193,-1864,971,330
813,2287,-4810,3540,767,826,-1005
814,-331,-2974,4436,-1172,-839,1358
815,2010,2300,6712,-1342,1133,1300
816,-4253,-4641,6484,-869,-142,1497
817,-1013,-146,-3276,420,-1104,95
818,-1054,-355,7355,669,428,904
819,-5071,-3346,1855,1241,1557,-1822
820,-1378,150,-5017,-1776,-1394,1502
821,6671,2257,-1436,1171,-1255,-1568
822,2508,-6251,-3151,801,1814,1128
823,-7387,-2861,5699,-406,-439,-1558
824,-3351,3401,2006,1112,-118,-419
825,-349,7585,7284,168,595,-1091
826,-106,-5954,6551,-1801,-667,283
827,-6645,-4972,-7758,-353,-176,-1692
828,6676,-7980,314,1793,-733,-1599
829,-7504,-2127,-3175,-552,-1995,-218
830,3514,4204,6555,-203,163,-1154
831,4436,-5656,2855,1471,-1729,-576
832,-4985,-3538,2416,526,-80,-1285
833,-1158,-434,-7458,-1579,-105,-1157
834,3730,-4291,3039,-601,1771,1963
835,-4509,7897,-2651,-728,18,-402
836,3477,-6947,541,673,1782,-1739
837,3389,296,-4519,1114,-71,-1080
838,-1483,-1472,-4499,1548,1303,-1300
839,5292,2520,5577,1982,1252,1014
840,-2488,4930,-1557,1366,837,-1247
841,-5602,-1350,7438,-1562,947,-781
842,3157,6702,-6217,672,-251,1875
843,6017,-5524,7681,-1353,-357,-473
844,-5414,4141,-1586,-1313,213,301
845,2960,7801,6746,713,-1792,94
846,480,513,-6857,-1111,1156,543
847,-2278,5054,-836,-178,505,1803
848,7070,3737,-3597,-1257,-1565,1662
849,6437,3247,-5464,-206,-344,1754
850,-6884,-6700,6648,-735,-434,228
851,5841,-7216,-7620,408,137,97
852,-4044,-4867,398,226,682,-988
853,345,3645,3896,-1005,-558,942
854,4124,3628,-6129,1990,1368,-689
855,-6800,-2500,-7874,1332,754,-584
856,-6270,2403,-7360,1324,-304,31
857,-540,7693,-850,-1836,1377,1064
858,6362,7535,4598,-1782,62,1809
859,5664,-4314,-5232,-55,-1215,1547
860,7489,1442,6558,1668,-679,908
861,-1911,-635,251,-1070,-908,-622
862,5940,5332,-660,468,1062,1081
863,7442,5726,-6614,-1965,-994,1879
864,30,5503,-474,54,385,997
865,-1119,4072,2422,-1077,48,-207
866,-2764,3685,5349,-1509,1107,52
867,2572,7655,-5103,1648,302,-297
868,229,-5365,7583,59,908,639
869,6063,4679,4870,-1919,972,-689
870,957,-5491,5581,920,1570,1705
871,4884,-6559,5865,-1945,1207,1417
872,-4326,3534,1058,90,-1894,1304
873,-2456,4927,-7725,1641,1469,455
874,7128,165,-6866,-1382,1218,-1462
875,7466,6208,-6117,-1853,-148,-1234
876,-2315,-7779,3822,1832,82,-333
877,-1996,6463,-4666,1371,1929,832
878,-2470,-5723,-2932,-378,888,-1495
879,-2346,4166,-4475,-634,643,-626
880,4749,1203,-60,1042,-924,834
881,917,5785,-5710,1420,514,-384
882,-797,-4956,2994,1146,-1805,1305
883,-976,-1499,5089,-743,697,1275
884,6663,-2796,6969,712,-1177,-1017
885,-7128,-7307,6920,27,1846,227
886,1012,-1293,6719,325,39,-1677
887,-2972,-6233,770,-205,-1201,499
888,6646,-1113,4623,260,-1537,-507
889,5385,5664,53,-1705,-378,-658
890,3199,4652,1727,1193,1711,782
891,-5897,6897,4143,-854,-290,1394
892,1044,1374,-1507,1411,648,1012
893,-1794,-5773,-2548,-1333,-1959,-1357
894,3942,-1922,-1408,1309,265,1620
895,-3871,-2815,-1796,-475,292,-1760
896,520,-2648,-48,1221,-1788,-1840
897,2832,-1216,-7635,-1276,1671,1679
898,4774,-7664,4323,1980,-1778,-1116
899,-3485,4891,-487,1411,-152,1682
900,7072,4322,476,-1095,-263,997
901,-1391,-3578,-1640,-9,1367,-656
902,2473,5317,4832,-380,494,-1142
903,2400,-5094,-1944,-665,1097,-931
904,5351,-5253,823,848,1222,-204
905,-31,-915,-5706,1742,-1742,-567
906,5562,-6324,4304,-738,1464,466
907,-813,-6667,5459,1974,-595,1331
908,993,-6800,6273,-1929,-1820,-1346
909,1779,-3568,2565,1935,-872,-3
910,-4392,5460,1959,720,-1453,-1343
911,5008,7248,5550,395,1495,1517
912,-1930,4846,4863,198,-1767,-532
913,3082,-2689,6275,-1554,-1535,-268
914,1574,3489,-2334,648,1632,1618
915,6541,-5954,-2348,1506,246,886
916,1302,-7377,4525,-990,1346,106
917,-6546,7095,4702,606,767,1438
918,865,2030,-2819,1237,1657,1121
919,4721,-4275,3534,1149,-561,89
920,-2342,-3046,3342,1121,-362,-227
921,-2258,3797,6709,-1745,-1238,1911
922,-5313,-1816,7184,858,-74,361
923,2127,-2997,929,1,900,884
924,-5726,-3606,6153,-1033,-1901,-1670
925,3650,1017,-6204,-236,-132,-67
926,-1785,-3604,2407,-316,-964,-393
927,-538,196,3775,-1640,-1097,90
928,-743,-1400,6514,-382,-1872,-1675
929,3722,2387,-4936,-906,560,1662
930,-5775,7464,6509,-1778,-531,-622
931,3805,-7604,3424,1855,-1494,-208
932,7311,1583,-3069,1391,-1909,-1873
933,6847,-7273,-2796,-1864,-1441,-1084
934,529,-2100,-7750,1963,554,683
935,-6361,217,-2370,-989,1025,-1644
936,2007,2358,-3679,-148,-917,-1413
937,3357,-5509,440,-1197,-791,-599
938,-6046,-7975,797,1703,-361,1087
939,-5277,-6912,-4361,-408,-615,243
940,1499,-5446,5849,913,-477,-1558
941,-4108,-3360,7349,1777,559,381
942,4020,7773,1137,-1801,74,-1883
943,5138,-7298,4453,1836,-1540,445
944,2870,7336,-6231,-575,-1212,1702
945,-2375,-6840,-7251,-1030,-799,-1348
946,2737,-679,-4538,-1809,-1226,-1033
947,-1786,7487,-7061,1407,-1218,979
948,6081,1574,2829,1931,-178,-12
949,1662,522,7625,930,1793,-166
950,157,-1429,7508,1580,-510,-833
951,2266,-6947,1252,1901,-1202,-935
952,-6176,3558,-217,-1233,1524,-261
953,985,-3296,1102,-20,765,-1434
954,4596,-3052,664,-483,334,1715
955,-5157,2609,872,1830,1051,-1335
956,-3865,-3397,7926,-861,-1842,1468
957,-7800,-4143,-5988,-1734,847,-1382
958,3789,-5728,-7603,507,915,-935
959,172,800,6968,-13,-461,1294
960,-3082,7867,6823,-1527,1758,1293
961,5987,-3918,-771,517,-1815,668
962,66,-4911,384,290,203,-785
963,-747,-4306,2032,-452,-1280,1016
964,-7096,-3024,526,1293,-1935,1674
965,7955,-198,-3794,-1224,1987,1921
966,1145,-1696,-3,849,-1384,749
967,-3665,1594,1772,-196,201,951
968,3198,-1097,1092,-429,-185,1085
969,-5861,-5348,-739,517,-1807,1051
970,-2340,4292,6786,859,1704,1916
971,-2276,-1304,5613,-1865,-116,1040
972,3555,6144,-5599,-1092,-1125,-993
973,-5743,2441,4327,-1417,-181,171
974,4269,3593,-6699,1535,1665,-1826
975,-6713,-450,-1753,-451,-926,829
976,-4069,2648,1411,911,1841,-1041
977,4510,1921,-2864,441,1919,-282
978,5831,-5319,3463,-1313,748,-1271
979,-7842,5390,-7719,1457,1244,-1933
980,4045,-5103,7109,172,-284,1085
981,-6674,-2961,5517,1409,-1376,-1816
982,7879,1717,-3616,-980,-1200,-684
983,-4941,2334,-6493,-1483,-1477,1161
984,2026,1658,-2645,-667,-393,1586
985,581,-3773,1238,-320,101,-1753
986,-1698,5617,5602,-598,-692,-1981
987,6762,1805,754,-921,-1203,744
988,-902,-2968,-3277,103,1700,-579
989,-7339,2178,-339,1707,1532,-162
990,6775,473,-1948,1711,1600,-1677
991,-5759,-2805,3299,-1456,-1498,-291
992,-6012,403,4652,1723,-1037,882
993,-6266,-1231,5507,-1220,1457,-528
994,20,-6752,42,1924,-1523,669
995,-4569,5171,-16,1841,-990,-1593
996,-341,2011,741,-254,-1463,-1993
997,4270,6115,-2136,1697,1128,631
998,-2878,3831,-4012,-184,1680,-733
999,6160,4020,-7154,-597,-1927,-1070
1000,-7425,-3524,-52,-1735,10,-1455
1001,6196,-2371,2899,1519,1631,-1102
1002,-7980,5923,-4834,1041,976,1411
1003,-3336,-217,-3085,649,709,597
1004,331,-7583,-7638,1886,1791,1708
1005,4065,5680,-6206,326,894,824
1006,-5950,5929,5140,250,-214,1625
1007,-8000,7928,4023,475,1467,399
1008,3050,3229,4790,-1494,-1274,-925
1009,1633,96,7810,-1784,-1649,-1365
1010,3590,-4083,5033,-134,1088,974
1011,7828,-6490,-3686,-1105,1495,1994
1012,7062,1310,-514,-1259,-543,520
1013,-7101,4861,6138,-509,538,954
1014,-5927,4085,5883,-661,987,-1980
1015,-5257,2865,800,7,-1172,418
1016,3642,-6909,-6699,-1519,-1940,1565
1017,-2207,-5504,-7822,640,1377,913
1018,-183,-5483,-1740,-1782,299,1690
1019,4172,-748,6450,-670,-227,-1841
1020,1430,4619,-5688,-1247,205,1072
1021,-1220,-42,-6313,1828,1845,-76
1022,-2415,3350,-676,487,-823,-638
1023,2403,-4493,-3585,1617,-846,422
1024,-792,311,584,505,1083,-402
1025,7563,-1638,4249,-699,1093,-912
1026,5971,6683,2486,-1150,389,285
1027,-694,1920,572,-1991,141,-928
1028,-1419,-829,-4818,1796,538,52
1029,-6441,-5379,2406,-160,-405,494
1030,-3124,2964,1392,-908,-1760,1068
1031,1223,851,-5033,-1866,416,966
1032,2511,-4144,-2724,640,575,1550
1033,-297,-213,-4831,388,-1811,-1405
1034,1187,-5656,-7824,1040,1323,-1786
1035,-6470,3971,-7275,-672,-1410,-371
1036,3894,6313,2772,1647,1893,-1761
1037,-7476,2998,7107,1489,690,-1822
1038,-4617,-171,-2364,-502,-698,1639
1039,2419,1105,-2876,413,-710,-1946
1040,6197,-6905,-3392,263,-540,-1913
1041,7376,-4816,-4851,118,692,-1828
1042,5853,-7886,5224,-605,-1664,1678
1043,5379,6293,-7619,-1356,-242,-829
1044,741,3134,-5831,-1968,-1550,-888
1045,300,-3145,7318,1890,-647,-852
1046,-4213,-5451,-2167,819,1522,-296
1047,-4408,4949,7734,1420,-344,1369
1048,-7490,2715,-6103,1840,-96,1976
1049,1338,-2287,3453,-1118,222,1346
1050,-5295,62,5438,1686,-478,302
1051,-2845,-805,-7387,704,696,424
1052,3162,-6807,7683,-166,1683,1026
1053,2212,5462,-705,1112,452,-41
1054,1637,-4673,7049,189,1913,-1870
1055,-4991,-7347,2365,318,785,-611
1056,-4540,-2030,-2104,1907,684,-18
1057,6917,5875,-1448,-576,-1906,8
1058,-5971,4037,6752,-471,1390,-1677
1059,2096,-66,-769,-273,867,-638
1060,7376,4102,-2797,136,310,1390
1061,-2863,-1303,-7401,-1231,-641,1666
1062,5670,-6488,-4848,-868,547,1488
1063,-6201,-4368,-2309,-943,-1939,-874
1064,5963,-549,-6034,-739,1048,-1099
1065,6938,-266,-5204,-1861,-37,1915
1066,-5204,375,1786,-1736,1538,-132
1067,5131,-3887,1344,-1493,125,209
1068,-1482,-2209,512,-728,-963,190
1069,-5384,4109,1679,196,1758,141
1070,7222,773,-7990,-1531,-1926,1376
1071,3884,5735,3176,1130,-1209,-756
1072,4514,-1629,5468,1159,1797,1271
1073,3756,-6771,-2754,1452,1747,-1903
1074,-4897,-6204,3804,-292,876,429
1075,-1537,-1479,5720,1372,-1209,-1007
1076,-5863,6157,-2825,587,-1358,-984
1077,2465,-1115,2026,109,-424,-1443
1078,-3117,-7975,1588,152,-1025,866
1079,-1170,-2893,6050,-670,-1163,1850
1080,-835,833,7050,-483,-1631,-1032
1081,-3956,7487,2724,-401,1233,804
1082,4357,-6810,6608,-1775,1662,1854
1083,872,4544,-5479,-1562,-309,-510
1084,5490,-7347,-1950,-1530,1884,-187
1085,7936,-1794,-7297,1319,-1832,338
1086,3017,-6153,-1874,532,399,-1681
1087,5984,-6559,3056,1605,719,-556
1088,-3656,2679,19,858,1511,-1217
1089,-2767,-2213,4776,-497,1629,314
1090,5885,3809,-1899,1095,-416,1117
1091,-1617,6911,-5864,665,-837,-960
1092,7596,779,-7150,-837,-1134,326
1093,-6457,-4881,711,1773,748,-67
1094,-6022,5128,2135,-1601,1059,-1780
1095,7974,5883,4056,-1207,470,786
1096,921,-2380,5089,265,279,1718
1097,-3889,4407,-1839,47,-1856,541
1098,3687,-6750,-1568,-119,-531,1715
1099,-3767,-4648,3779,864,1384,714
1100,1017,4818,-1956,-749,324,681
1101,-3283,4511,-6248,-866,-408,248
1102,-4093,3028,6592,-250,-1950,-1275
1103,2188,7257,2329,-646,1249,-1965
1104,-4018,453,-7701,-319,1745,-297
1105,7594,2129,-4387,-1376,-793,-1658
1106,-6007,-2307,-7150,-258,-520,701
1107,2764,-1688,1897,-867,998,-1544
1108,7621,-1075,7186,-976,-704,-423
1109,2751,5650,542,1733,-1086,-58
1110,-5630,4861,-6672,794,-1296,-993
1111,-4452,-3072,-3154,-1794,490,1291
1112,6729,863,953,1716,-1129,-1383
1113,3326,-4308,-1054,-1170,-1135,805
1114,1522,3538,2909,1103,-708,520
1115,5352,-4461,5400,1748,-830,1169
1116,5244,-1056,5772,316,-1285,-492
1117,3750,-5337,7435,1750,549,179
1118,-3582,413,-6136,-20,1254,-1744
1119,-7776,4195,7237,-1242,-1304,512
1120,2776,-2756,-3083,-1132,779,1187
1121,1503,-2235,2610,-1219,1127,434
1122,-6387,-1955,-367,50,-1601,610
1123,7121,-5849,-4820,1905,-1289,-750
1124,4048,7142,-4760,1079,707,526
1125,-3710,688,-1831,1853,576,-145
1126,6461,-4528,-1941,-633,547,-644
1127,1076,7184,-5663,-1599,-1306,304
1128,340,-536,2128,98,1019,-661
1129,3732,5349,-6592,598,-642,1097
1130,221,1722,-4629,560,15,-348
1131,-2473,5017,-1068,1803,642,-126
1132,3094,3931,6335,-1208,691,-359
1133,5696,7676,6895,66,911,918
1134,5257,-7174,-6595,-347,-1313,-446
1135,2464,1461,7600,-1939,-1937,1082
1136,7908,1666,-7441,-538,-1695,-1139
1137,5949,7468,3502,690,-42,-827
1138,-6875,6996,-6772,1039,1406,1653
1139,1502,7527,7638,981,491,1762
1140,-5886,3531,489,611,-1329,1475
1141,-7712,-7475,-327,-1181,423,1115
1142,3618,-1945,5993,-812,-714,555
1143,-3202,269,1414,-160,595,-1797
1144,-5628,633,2062,471,-647,493
1145,-3086,-7143,838,1013,-602,-342
1146,-6709,-4684,-7661,-1524,-881,-1085
1147,-675,-1837,-1862,774,1053,26
1148,-2682,-6235,531,-1232,-157,1927
1149,7731,1920,-1200,1918,-225,733
1150,-3947,3361,2401,-585,-1184,148
1151,-4429,-30,3909,-570,-493,-371
1152,1406,1830,-5828,-1085,-600,1998
1153,642,-3211,2434,27,-1186,1491
1154,-970,3260,-370,-1226,-576,39
1155,-5915,7920,1576,1821,1195,376
1156,-5116,-1645,-5674,-645,-1970,431
1157,63,-1549,-3302,774,1587,-1188
1158,-6841,5589,-3389,883,426,1633
1159,-5653,-2942,5565,1593,1749,1635
1160,2032,4936,2606,-577,644,-99
1161,5933,1923,5138,-310,207,1576
1162,-6775,433,-6413,40,-1761,1554
1163,3293,7255,-3541,-1426,-971,-207
1164,-3392,7617,-6255,-775,424,-986
1165,-3797,-5148,5420,1203,1275,1260
1166,3565,2629,4447,1475,1507,-630
1167,6895,-2459,-7602,1368,769,1831
1168,4116,-1934,564,-1282,-1134,-873
1169,847,6189,-4502,-1166,-114,-910
1170,-3597,-5603,446,-380,-440,1689
1171,7563,6107,5941,-1411,538,-1618
1172,71,939,6325,1378,695,-261
1173,3473,-5582,-681,335,-534,130
1174,670,-4425,1727,934,583,1857
1175,-6691,3644,6417,-1141,-783,-86
1176,-1838,5501,6016,896,896,1093
1177,216,2861,-5526,655,-1856,1426
1178,-6374,3292,4614,-1588,1218,536
1179,-7914,5701,1792,1104,1232,-224
1180,3291,740,3345,-1242,803,1163
1181,1848,2151,-4125,1004,316,-1363
1182,3580,-4327,-873,-323,422,1700
1183,-1450,-222,676,-1893,-1783,-1850
1184,-6955,6836,4306,528,1435,-540
1185,1387,-1303,-5208,833,1494,-1158
1186,-4198,-5401,3968,-1595,-353,955
1187,-3435,-6034,-2293,1562,500,1116
1188,-5542,5167,-3022,641,-1004,-1423
1189,3946,427,-1395,-1545,1677,-1506
1190,-6114,5082,3222,968,-766,-146
1191,5661,-6169,935,-909,102,1148
1192,2051,-7405,-7800,-1443,282,1106
1193,4776,1527,5390,-805,-921,1714
1194,3714,-3266,-7263,-347,-276,660
1195,-5920,453,-4302,-1232,336,39
1196,7273,6794,-1488,1751,-1594,-499
1197,5499,-4691,-4357,54,-1031,998
1198,-2248,-481,-7356,546,-1083,1097
1199,4714,-2213,2486,-408,-756,458
1200,4180,7716,-6196,1384,-1326,1458
1201,9,7920,-3596,1560,-1027,-759
1202,4865,-3456,-4918,225,738,628
1203,6159,7860,-3652,906,579,-1218
1204,3757,-2126,7752,-847,-546,-391
1205,-7963,-4021,6073,-528,-290,-8
1206,4975,-5610,5765,-647,-1272,1584
1207,-2905,2049,-5017,-438,882,1204
1208,86,-6483,6741,971,-1385,-1367
1209,4342,7600,158,-409,333,-1785
1210,3994,-2793,1409,1436,832,-608
1211,6641,623,-5735,881,-1382,-607
1212,-6897,-2803,-3666,590,-329,133
1213,-1815,1013,-293,-1505,-621,833
1214,-1242,1800,-2752,948,380,157
1215,5134,978,3967,1734,-481,-1950
1216,-6327,4001,-6231,1307,-1930,1507
1217,2230,1566,7840,296,-223,-739
1218,-2325,3418,5128,-550,1993,-1456
1219,1131,-796,3863,-856,-1237,-659
1220,-5919,2379,6013,-1533,-596,-736
1221,-6015,-3305,-2045,-171,138,697
1222,3520,-1980,-4457,1184,-1885,-454
1223,-2069,5177,5641,-737,-1055,-1123
1224,-2811,4021,-3732,1878,-704,1690
1225,2709,-6998,579,-912,-287,1913
1226,-7095,5890,4356,1925,722,-1914
1227,5252,5613,7442,-26,1586,-531
1228,2501,6618,-6500,126,-1298,-970
1229,-2951,6671,2519,1280,-1790,1571
1230,3811,803,-7129,1246,362,1588
1231,6155,-2133,-2426,1635,1005,1970
1232,-6538,-5561,6460,-1269,1047,-91
1233,-2444,7822,-7396,-1360,-800,837
1234,-7995,-1613,-527,836,-133,485
1235,-299,6065,7131,334,1746,-125
1236,7030,-1979,6789,-586,-1618,-1731
1237,-6224,-1701,-4444,836,-412,-1257
1238,4208,-2550,2472,361,-302,-1432
1239,2676,5987,-1247,-419,262,932
1240,3598,7115,-2675,452,1041,765
1241,-5687,-2782,5079,595,-1779,1728
1242,-3974,6719,7041,25,367,949
1243,7464,-7644,7057,1777,-1983,-1887
1244,6128,3512,1242,1271,-88,-196
1245,6468,7028,-6664,-433,-838,477
1246,2539,7300,3219,1645,773,731
1247,1952,7169,5854,-754,1660,1300
1248,-2844,-3387,6179,-636,-1697,-724
1249,4578,6285,1436,-1959,-1545,-1133
1250,4064,5336,4075,62,-689,1835
1251,-2873,7451,-435,-515,303,1742
1252,-6622,548,-4264,1918,-736,1673
1253,-1667,4517,4267,-963,-983,882
1254,-4364,-5178,870,473,-1600,-1223
1255,-7919,-7658,-585,707,-73,-649
1256,-5626,-1609,-5701,608,-1001,1536
1257,-2003,-4228,4821,1485,1850,-1041
1258,-6021,-7223,4094,-195,860,-264
1259,769,5995,4312,-225,-1799,1989
1260,7441,-4468,6488,1687,1440,138
1261,-7600,1148,-1939,235,-1021,-915
1262,-3286,-6844,-7302,1574,-1063,-1427
1263,-1285,-591,3935,1078,1543,-542
1264,-6554,2405,7873,1121,1778,1279
1265,1253,-1167,4841,-1535,-425,-1463
1266,-973,-2960,-535,-1150,1027,693
1267,-7609,3251,1567,445,-1822,-1835
1268,-2668,-7851,1838,1452,-1389,1771
1269,-7386,-1197,3308,1574,1070,-1849
1270,2046,4926,-5506,-910,1935,773
1271,-882,-3690,514,-372,-777,1744
1272,5781,-1866,-6350,233,104,-781
1273,-2038,-3904,6051,-1936,-1122,-841
1274,-2013,-4038,-5989,-1133,-1527,-1364
1275,-1811,4034,381,989,43,113
1276,-66,3258,1203,-1202,-286,654
1277,-7871,5195,-6945,1616,1723,654
1278,-5265,4716,5631,1802,41,626
1279,277,-2782,-5891,1925,1858,-281
1280,4316,5871,-5307,197,138,1321
1281,439,7440,317,-1448,-1326,-427
1282,-5557,3933,-7736,1323,-1142,-446
1283,5487,6150,6869,145,567,-376
1284,-7336,877,6204,-159,1763,569
1285,7508,2022,2089,619,-765,-1533
1286,-2234,-5279,4907,1730,1732,-315
1287,-5439,2364,-538,-1556,1380,-154
1288,7152,-7579,-3075,361,1174,-753
1289,-4557,-2548,-1550,12,1176,-645
1290,-3772,7111,-180,-1509,-1947,542
1291,-7382,-7221,-703,784,1699,-670
1292,298,6044,-3839,-852,795,780
1293,5057,2593,3882,1533,781,88
1294,4428,5467,3187,-699,-896,66
1295,-2179,-2363,5502,272,1629,-354
1296,-2913,5464,-622,870,455,1944
1297,-4113,1797,-6284,-1616,-1435,1409
1298,-2311,3996,-5039,1283,-262,-424
1299,-7643,-4674,-1227,-509,1335,-859
1300,939,-484,1545,-505,1397,1643
1301,5866,3195,7150,357,1069,-1876
1302,-5637,5458,-5852,-862,-1470,932
1303,-955,-3101,1541,1853,256,954
1304,1810,4444,2009,1476,1756,428
1305,164,-2018,-7038,-1179,1179,1883
1306,7492,7354,5369,1553,398,348
1307,-2744,-1107,-6883,-1938,968,-1587
1308,1092,-5706,-5610,-912,1566,-589
1309,-7895,-5807,4747,-17,-1868,-1388
1310,-1151,-6558,-391,-1722,848,-128
1311,-6992,-5100,5101,1251,482,-1509
1312,-5895,96,733,-1079,842,868
1313,-4099,1408,-6788,-318,-749,-1111
1314,-6326,-7981,838,362,-1903,-795
1315,-6516,-5952,-6624,1588,-1329,120
1316,-1227,4937,5438,261,821,345
1317,4506,2379,-7990,318,399,-1792
1318,-3930,-6134,-3696,1226,1864,-960
1319,-1075,3090,-1831,968,-1091,1834
1320,-3884,420,-7402,-589,1707,-1070
1321,-7008,-2686,6938,871,-741,386
1322,4715,-1144,-4881,616,-1951,-1727
1323,5139,-6282,7437,-658,-515,1520
1324,4951,-4824,4952,455,1807,1009
1325,-615,120,1255,-1987,-1909,1105
1326,2583,453,-3197,-1859,1082,655
1327,-4014,-1277,-3024,-1580,-29,-1322
1328,-3249,-4190,-4728,593,-1048,1539
1329,-6042,7454,3950,1713,-1628,847
1330,-106,-5949,-7279,-1858,-1151,994
1331,7061,-4591,-3050,1451,-856,-1283
1332,3618,-7607,5133,1297,-1170,-751
1333,4679,-6006,3342,1892,7,89
1334,-3067,-2022,-3271,895,-1152,-1838
1335,-6857,-779,-1806,-1006,-1503,1367
1336,5427,-5166,3969,181,1798,-1303
1337,7622,-7325,5688,-271,1872,665
1338,-7826,7977,7165,-1255,818,404
1339,-2921,-2070,-169,-1248,1714,-815
1340,5096,-721,-6557,153,-1933,-943
1341,-5602,5209,4419,1497,-201,-1499
1342,1545,4619,5159,-1293,1067,998
1343,5859,-928,7418,1297,-559,706
1344,859,-308,4078,733,-858,-665
1345,617,4609,-2326,-1140,1712,67
1346,2023,-1229,-3311,-1860,-51,350
1347,-6241,-3733,2696,303,29,1625
1348,6717,7577,4956,1745,-1207,1804
1349,1790,2907,-7975,-1514,691,1810
1350,-3257,-7495,-5827,433,-1500,1289
1351,7996,-2752,-3456,-640,-1700,-917
1352,7424,62,2353,-315,-1935,96
1353,-1362,4251,1874,-180,-1605,1276
1354,2486,593,-3484,538,200,-787
1355,4289,-4917,633,-1070,-1385,1186
1356,-1865,-1434,-2589,-1743,-208,-1090
1357,7841,4032,-4140,702,1943,1458
1358,6116,-6589,6796,945,-1447,-736
1359,-6387,2763,2275,-1754,589,318
1360,6497,5142,-7556,1460,61,1934
1361,1875,-7168,-3806,1287,263,-276
1362,-7660,-3266,-7083,-1667,1194,396
1363,-7261,-673,-41,168,-14,-417
1364,-687,2857,-7173,823,1657,-347
1365,-3994,1907,4678,503,172,583
1366,397,-4737,5088,-409,-1842,137
1367,-369,4171,-5112,-599,-681,-695
1368,-849,2686,-4050,-1182,1029,-854
1369,-4916,-4281,1373,496,1917,885
1370,-5473,-4238,-7358,947,949,1749
1371,-3108,-1157,-572,-1410,609,-1933
1372,-1172,-6295,-1812,-316,279,-1624
1373,7221,-7418,-705,289,374,1297
1374,-2340,-6634,-6003,1738,1713,212
1375,-1378,2617,-1833,629,-1797,1760
1376,1997,851,-5447,-82,1741,473
1377,-6900,-7728,7641,-628,-1591,78
1378,38,5476,-6857,-391,530,5
1379,3070,264,-6417,804,833,-342
1380,897,3250,3058,122,-1940,-128
1381,-1943,-7406,-7464,-1351,-1975,1436
1382,-3527,-4902,3624,-86,-642,-274
1383,-1984,-7409,-539,-1813,-461,1765
1384,1525,-7211,-3832,-631,-650,1425
1385,-6623,-105,-7933,989,-1291,-506
1386,-3523,2655,-7486,1336,1344,809
1387,-1309,1383,6062,-839,-681,-631
1388,-5368,-1064,2274,1033,860,-926
1389,-7139,-2201,-1861,-1548,-1299,-1576
1390,-2693,-412,-4812,967,-1772,1021
1391,-5980,-2959,2979,-1628,-907,1723
1392,3317,1311,4362,1498,1495,-621
1393,6978,-7759,-857,1302,-1377,1487
1394,-334,-2962,-3373,-605,-70,-1732
1395,-3369,545,-7291,-1988,484,1025
1396,1301,-1190,-4732,-1446,-799,-1115
1397,6276,-2734,-6712,927,1989,1163
1398,-2362,1124,-133,-1729,-698,-577
1399,2241,2258,-3908,339,-1296,1871
1400,-6942,-1315,1722,-1834,-1156,1911
1401,-6683,5440,-1800,1893,1590,1181
1402,494,1733,-4234,-905,-1763,-1439
1403,2703,-7119,1319,806,1259,490
1404,6850,-4354,-3887,-1129,-5,881
1405,6942,3033,-4263,807,-1704,-451
1406,-6149,-6764,-6019,450,-1100,1617
1407,607,-6803,6079,255,1939,1137
1408,-5891,-1937,2777,560,10,1877
1409,-4332,1539,-994,1363,1846,-1695
1410,3061,-4132,3751,1726,318,-1230
1411,3173,-1904,4532,1326,-1042,-1509
1412,-4417,7885,7707,1724,525,1229
1413,-6496,-5582,-5279,-786,250,-516
1414,620,6808,-6930,800,-587,1808
1415,-3428,-7249,-1850,1909,-583,1927
1416,-3044,6824,-3942,1810,223,-112
1417,2405,-6034,-7715,512,1616,-1719
1418,-4697,-3494,-5674,1879,262,-585
1419,2745,2512,3713,1794,1191,-644
1420,-1800,-4533,-2586,-181,-21,1407
1421,-7921,-2875,2060,-1839,1958,-783
1422,6847,-1196,-7203,-1857,-96,-381
1423,545,-4526,5058,623,-97,437
1424,-1470,-2763,242,1624,-686,287
1425,3683,-5159,-4557,-70,-1820,-1685
1426,666,-4210,-5604,154,1699,1133
1427,-7030,146,5958,-1558,800,-816
1428,2198,1203,647,-1193,195,-218
1429,882,-7674,-5605,1362,179,-118
1430,-7278,6033,2967,176,66,-1495
1431,-6452,5691,4852,-1779,-1747,-1758
1432,3139,-7229,7529,1415,-1070,-844
1433,4555,-4673,1478,-954,-957,726
1434,-3982,3128,5509,16,7,-339
1435,-6357,6426,5413,1242,-1167,609
1436,-2148,4761,-3941,-241,-1624,-1433
1437,7013,7327,2900,1985,-1915,351
1438,4121,3670,4009,177,1671,-1800
1439,5303,5939,3330,-603,1173,-1428
1440,-6838,6365,-5364,-297,320,-1932
1441,5189,890,6612,1843,-1585,1420
1442,1876,5549,1831,-945,-1256,220
1443,-4346,-4088,2548,919,-1441,1804
1444,2028,-3119,532,-366,362,759
1445,6039,2584,-7834,519,1150,1426
1446,5872,-1824,-2721,1682,839,1152
1447,7201,-1261,-252,-1679,-61,626
1448,-7451,7138,7826,-1217,1649,-1673
1449,2230,360,5607,713,-636,-750
1450,1627,351,758,-1148,-4,1891
1451,7584,2912,-6509,-312,-175,-1764
1452,2281,-3855,-5518,-819,653,-1292
1453,-2881,6181,-2612,1008,-1648,420
1454,-1003,-5643,5038,1702,1336,-835
1455,-5867,4687,-3730,-1361,-1190,1052
1456,-4023,-1963,1140,168,-925,1459
1457,1035,5783,-5741,1617,16,409
1458,6858,-5153,-3751,-1588,1203,1751
1459,2084,2396,1189,-1218,143,-1018
1460,2731,-6803,-6683,1748,-496,-703
1461,-6097,-3199,5055,-1511,940,-620
1462,5362,2062,-3750,-495,311,-1827
1463,-6162,-6333,-6858,-1349,1904,95
1464,-85,-2119,5720,1732,-701,275
1465,5765,-2593,2869,-1910,1711,-960
1466,-7213,2799,7593,653,-1540,301
1467,30,6890,-1887,-1191,1666,-999
1468,4880,-4838,-147,-1813,-1503,1862
1469,-4365,-7765,-6870,844,-1810,-704
1470,2419,-5301,-5836,1736,-1743,-294
1471,686,5125,-6910,-230,-700,1558
1472,-4977,-5882,6681,1050,278,-1303
1473,-4147,3510,-5937,-1329,-1045,1635
1474,752,5854,-5207,374,-1552,329
1475,-337,-5966,-2584,1150,-1800,534
1476,-3048,5103,7067,-1207,137,-602
1477,-4919,6887,2900,1465,-412,514
1478,-7218,-7241,2131,-711,-1820,-1122
1479,-3807,-4217,7740,1244,-673,1212
1480,6189,-6966,-5436,187,-800,60
1481,4019,614,5653,-1741,120,-254
1482,-6568,3535,-4840,-416,466,1411
1483,7817,2639,3701,-340,825,-1811
1484,-837,-1274,7723,-784,1192,937
1485,-3924,3067,7156,-76,328,565
1486,3210,-1253,-4318,-486,548,-1620
1487,4480,-3111,1624,-983,-282,1201
1488,-144,3053,7208,615,1931,1037
1489,2208,-1623,6960,1489,-1121,1412
1490,-4087,-5038,4805,-1198,-1307,-1259
1491,-2020,2629,7105,-188,-999,357
1492,1751,-6505,-6972,-1082,1666,902
1493,6410,-5919,3062,-1,668,760
1494,-2732,-5201,4040,-1079,668,1297
1495,-3046,7143,-2631,298,-473,1382
1496,5494,-450,-35,100,-1123,-1287
1497,580,-830,-844,-468,-140,1073
1498,6895,-3730,-6552,1287,-725,-907
1499,-3935,-3735,6778,-1102,-1909,306
1500,-4307,3020,-4695,1459,-1190,-1467
1501,347,2610,-4017,-1696,1541,-1766
1502,-7014,1725,639,-969,1887,1696
1503,1984,208,5796,-123,-595,25
1504,-4069,-4799,-4633,842,646,1635
1505,-6713,2957,7289,918,1321,233
1506,5570,4085,-7601,-1149,-1525,-1172
1507,2470,-295,-7311,-306,-1205,-1714
1508,-4794,7401,-4903,1172,1229,1283
1509,1577,-2964,4085,-1799,1092,1446
1510,472,-8,-6504,-1641,-640,1177
1511,4521,-7872,1934,1140,1137,886
1512,-1913,6475,-4057,911,1094,1
1513,2992,-2272,-5755,-626,-355,-1195
1514,5619,6098,-7906,453,1007,280
1515,1956,-6948,5155,-503,1989,-1042
1516,-4905,-4504,-6293,393,-1169,-432
1517,4181,-2265,5501,103,-736,-78
1518,-6641,-7413,-5414,1960,403,-28
1519,-2259,-2288,2106,-1158,1055,-27
1520,-1769,-3925,2089,1618,1785,-678
1521,5986,2551,-7683,-902,1785,-1821
1522,236,-3260,1765,1453,-1681,-1519
1523,-1836,-4366,1378,1668,-92,118
1524,4397,2858,4141,1856,-1511,1161
1525,-512,6087,-4566,-634,-128,1501
1526,-7352,5708,-978,858,21,1518
1527,-1819,2164,2051,-995,-697,139
1528,-2080,-7840,-1169,1730,143,610
1529,-7373,-6605,-3167,-433,-1263,1430
1530,2628,-725,5656,1426,-226,-833
1531,5713,-7634,-295,856,-117,-167
1532,-2148,-4032,-2738,1441,-1,1837
1533,3975,-7621,-7043,-1185,-956,-1362
1534,6646,4558,7211,1544,-520,-349
1535,1188,-283,775,-1820,-1186,600
1536,-7398,-5178,6999,1701,1314,-508
1537,444,-2902,6661,-177,-545,-1482
1538,-6191,-5918,-6924,-1279,575,1068
1539,5704,1226,4820,-30,-1555,-153
1540,-7510,1071,6401,1337,-95,-895
1541,2132,-5987,3777,-339,1869,-1811
1542,-1049,-1747,-2912,-385,1422,1039
1543,-949,1410,-5419,1632,1587,944
1544,-3274,-4554,-1136,-1086,-283,225
1545,6722,-5910,-1608,-1655,-42,-1707
1546,-5129,-1167,-1211,290,-1434,1389
1547,-5357,831,-4546,-1020,1353,415
1548,3421,7400,-940,1892,-1032,1870
1549,638,6365,-3628,-729,285,-582
1550,6323,5318,-4014,-1396,1783,1661
1551,5116,-7511,1317,-1822,1494,355
1552,-303,4408,3539,1555,-925,578
1553,6195,-6508,6648,-1156,-520,-374
1554,-375,6419,-3843,-723,156,-1906
1555,6334,-4518,-5333,825,-925,143
1556,-4035,-1533,-1906,-1525,-1244,-923
1557,-1182,-4006,2358,918,1971,1323
1558,-2448,-7680,1995,1916,-1234,1248
1559,-5446,6096,7503,-1588,-642,-1718
1560,2276,6586,-1583,-520,625,393
1561,-7413,-3666,4457,-1927,293,1644
1562,-1722,5760,-6038,-859,212,-675
1563,-2889,-187,-2562,382,-1079,-399
1564,2907,-5666,-6190,-1637,-1434,1935
1565,-3003,-5083,-3809,-523,1639,-1001
1566,-5377,919,1299,1660,-1491,1000
1567,345,5224,-7074,387,1306,847
1568,6147,-7235,-5777,-562,883,593
1569,7965,-5145,-6090,-1248,-993,-1507
1570,-2272,2874,551,937,-1186,652
1571,-5561,371,7112,-1032,-1917,-1154
1572,1017,-6410,-5396,474,-1288,1983
1573,3785,3897,1279,-658,66,1925
1574,2611,-1527,6924,-725,-178,248
1575,-1393,7745,1809,1976,-1601,-687
1576,4344,3274,839,-179,-1823,114
1577,-2803,3580,-3203,494,-888,342
1578,1287,-3392,2503,-526,1774,844
1579,954,-2485,-529,-1372,-547,1691
1580,1676,5100,-1612,1790,-1037,1605
1581,4281,7964,7364,880,-1873,45
1582,5242,2595,3448,1018,-279,940
1583,-368,-3163,6423,878,-687,-19
1584,4024,-7162,-2051,-1037,-1686,-439
1585,5621,-2878,-3525,-772,1688,-254
1586,-2408,-3326,1044,838,-536,-182
1587,-4427,1793,-1954,-228,-840,-411
1588,-2301,2829,-5168,263,1557,79
1589,6087,1418,7310,1818,-1820,469
1590,6333,-648,6992,1068,-24,-1820
1591,-5007,6667,-4642,-1960,343,1911
1592,-7695,-4423,2967,-1609,1925,-1138
1593,2790,-7252,-1841,1013,995,-652
1594,-3191,6270,7893,218,-1043,-1342
1595,-5272,-377,5029,-1258,1029,-1379
1596,-5639,-7495,7880,-1255,-497,942
1597,-355,1099,3987,-1980,746,-1479
1598,-2483,-4857,1085,-1460,883,-491
1599,-6987,1100,-403,-65,-1867,-211
1600,-4752,-2226,7386,27,-1899,-798
1601,-5129,6096,6385,-1606,820,-1387
1602,2196,-32,-5045,1256,-104,1080
1603,7132,-7340,6125,-1763,133,-76
1604,-1909,-5028,-4325,-1555,-464,-544
1605,2481,-957,7189,-1049,-1494,1283
1606,-2924,10,-7153,-1870,1490,-950
1607,-5737,5431,7994,-1381,-1457,-1503
1608,5151,822,-6988,1003,-1919,-1222
1609,1683,6522,-1800,-163,998,697
1610,335,-3026,3345,1637,-1675,-1167
1611,7816,7232,-2500,274,-665,-1838
1612,5542,2109,6371,-1260,-1084,-1633
1613,-6317,3488,-2791,430,474,-1379
1614,4311,6636,-4202,29,-883,875
1615,-4646,7969,4912,-272,1862,-1207
1616,5123,1105,2934,1531,505,-182
1617,4030,-1044,2375,-292,1923,-961
1618,3290,5940,2783,1775,287,446
1619,-1332,-7843,-7280,-288,-389,-1472
1620,-2546,-7143,-2635,-477,1156,94
1621,-4029,-7592,-364,-1497,-803,718
1622,-5962,-5823,-3094,1400,-1466,-1151
1623,-2152,1220,-1197,-142,-1124,-1677
1624,7114,2225,7207,-816,458,1798
1625,2238,-5935,-6523,84,397,-1183
1626,-4959,-1623,-4724,1152,-377,-1889
1627,2841,2524,578,-134,-1007,-351
1628,-5624,-5046,881,1389,265,-857
1629,2437,3791,-145,811,1475,-89
1630,355,1705,6550,-216,211,54
1631,-3202,6664,-6152,-1111,183,-1495
1632,-5488,1414,7948,1297,1129,-1829
1633,2039,2080,7205,-159,213,329
1634,3423,3786,-5494,1455,-783,1304
1635,4176,-2003,1414,951,257,-1190
1636,3713,2854,-3343,682,-195,1171
1637,94,3760,7616,-1918,-43,1302
1638,7291,-7584,-3436,-437,-1075,-1060
1639,1543,4755,5239,-1682,203,-784
1640,-3934,-7581,-3072,612,-693,1616
1641,-4658,-7115,-5102,498,1875,1320
1642,-7929,-1399,5509,1926,-1671,-139
1643,-7841,2121,-7216,1275,1590,827
1644,2824,-7303,6247,-1335,1836,866
1645,2375,5169,-382,-101,-1992,1915
1646,-3669,6137,6186,-814,-1467,1633
1647,4178,-5458,-3764,-1813,48,-324
1648,-680,1265,-1544,-1378,-202,1900
1649,-6070,-294,4289,-298,73,-288
1650,-3033,-7172,-892,-923,-1548,-655
1651,-5238,-3649,3792,633,1742,-334
1652,-3912,-3624,5062,-1112,-64,-1942
1653,4538,4071,5219,1983,-889,-1794
1654,-6518,7945,4733,766,-334,-1853
1655,4930,7924,6756,-1383,-1671,312
1656,-6344,319,7632,-8,-1964,1147
1657,7952,-3386,1235,655,-1785,-1382
1658,-6661,7842,2825,1919,1070,1727
1659,6649,6921,-6391,1018,1163,1033
1660,2777,-6900,1990,-995,922,-897
1661,-898,3544,-5468,389,595,-1595
1662,-3061,3208,-5791,360,-1646,199
1663,2835,5781,2417,-69,-1351,222
1664,4191,-5770,-2166,-1595,1156,722
1665,-5456,-214,-854,-1997,-1203,-410
1666,7455,3078,4668,-44,1518,-177
1667,7904,-489,-3712,-337,-1987,904
1668,-3939,-5380,1860,867,-1686,-387
1669,3493,488,4123,-354,-174,934
1670,6976,774,7308,-1119,766,1286
1671,3363,-1729,-3962,213,332,-1652
1672,194,6120,-3090,-558,42,-1966
1673,-3303,4820,-3406,-1353,-518,-1379
1674,-6407,-2122,3042,65,-989,-252
1675,3216,-2578,7277,-39,1970,-1291
1676,1494,824,-3091,-1990,-595,-1347
1677,-1353,-6365,5976,1165,-1319,498
1678,-5837,2152,-6132,-1528,-1858,-1576
1679,7066,1181,6357,599,-1108,1367
1680,-6431,-7670,6091,-1923,-525,-379
1681,1344,-6802,-2533,-24,1767,-1464
1682,-2671,948,4299,912,-375,1751
1683,6692,3220,428,1390,-628,1678
1684,5987,6067,-5564,533,-547,195
1685,-5606,-7433,-7938,299,-928,-1833
1686,4493,-4630,-2594,-511,-1573,1156
1687,3490,6465,6995,-1253,-922,384
1688,6722,2272,5732,1728,163,-570
1689,2708,7564,3192,-1549,813,-286
1690,430,4730,6892,-817,-1299,712
1691,-4021,6630,1061,-397,847,1486
1692,6652,1133,3658,72,217,1705
1693,-2358,-4484,5544,1396,-1614,1217
1694,-3125,4010,-7021,-639,1401,1931
1695,7401,2446,-6230,-1241,1147,1920
1696,3934,-611,2774,1765,971,-1286
1697,-3899,5633,6791,698,1906,338
1698,-7287,4263,-798,-1615,250,-692
1699,-4868,-7864,-2930,452,-221,463
1700,-5106,3784,6290,-156,-720,975
1701,-7497,-6852,4577,-1424,-1146,-159
1702,-1048,7470,-2310,-73,587,-1990
1703,-930,5292,-7687,-896,-549,107
1704,-2892,-3253,1895,-1689,865,1695
1705,4877,-1936,2060,-1556,154,1875
1706,1641,-2350,-5041,-1513,822,-826
1707,-6380,480,-6886,1220,-369,-1285
1708,-2038,-6157,-2539,-1651,1129,-1877
1709,-2171,-4122,-6698,-848,1350,-417
1710,5262,6541,989,-1703,1679,-688
1711,-7620,131,-4631,-1986,-122,-287
1712,3865,-6090,-5327,26,-1623,-1977
1713,-408,-6057,-5204,971,1135,-1720
1714,-1681,3307,1519,-1380,316,-573
1715,-2479,1585,-5022,-1227,-623,-148
1716,6420,1481,7572,1946,1376,310
1717,341,-2269,-7273,-264,-886,-224
1718,3712,-6865,-4721,-1250,-309,-122
1719,1175,6412,4918,-738,1569,196
1720,-5346,-6248,-907,-1010,-780,-376
1721,919,5608,-3992,-1473,-1902,-1425
1722,2433,-2860,-6200,1943,429,140
1723,-7980,2361,-235,893,1456,-735
1724,-646,2993,-6541,1474,-1755,106
1725,-1715,-1940,1637,1615,-985,731
1726,-4992,6826,3434,-130,-1436,-1110
1727,-806,-6698,-1854,1481,-270,-767
1728,4833,-5032,-4202,-1303,-764,1377
1729,433,6276,-5819,582,1233,1763
1730,3067,-4311,-404,1718,1722,1973
1731,-4116,6666,-131,-322,496,791
1732,5908,-6848,-741,-303,623,271
1733,3688,4401,4783,1472,1801,-1144
1734,4029,1153,595,-569,-316,1361
1735,4478,4539,613,336,-890,-478
1736,-6621,6080,-2499,-553,-1028,1890
1737,6091,1692,7494,934,-153,-843
1738,-4153,5324,-3082,370,1266,1916
1739,-3107,6171,2755,-416,1933,699
1740,-1842,-6883,-344,954,1538,-1355
1741,1000,7357,2322,-1488,1857,-1549
1742,4866,7823,6418,1510,191,719
1743,-6335,7696,2301,1890,63,650
1744,5061,-5159,-1329,1282,63,-1824
1745,-1541,4555,-4653,-124,1651,727
1746,3370,620,-4000,-715,1245,1060
1747,-1558,-3475,761,1877,1872,1659
1748,-6259,3220,2660,-319,497,827
1749,4498,-2417,3930,1907,752,-495
1750,-3958,6597,6773,-469,-430,-1909
1751,5542,682,-2275,186,1364,284
1752,-2772,-120,-7570,869,829,-1051
1753,1690,-1540,184,-1079,592,1700
1754,2537,5765,-1555,-401,-323,-394
1755,-4663,-1312,3080,1325,692,1396
1756,4319,-1692,6020,567,1280,-915
1757,-4280,-3650,-6749,-1744,-1327,1233
1758,-2078,1247,-3222,1942,571,-1639
1759,-2946,-4379,3244,1448,1941,1441
1760,2422,7791,4307,-278,-809,-1687
1761,-2424,7989,54,653,1015,-625
1762,3545,-136,-2142,-1857,-1442,451
1763,-6503,-5674,-1042,-1041,-1131,1815
1764,7124,7314,4216,-1799,153,882
1765,-88,-1122,-7146,-1553,1727,447
1766,-279,-3693,-3774,-1354,1299,120
1767,750,1338,5984,1414,295,-1385
1768,6213,-6613,7838,-124,1759,1321
1769,-5197,918,-1227,-887,268,1704
1770,-3116,7343,-5198,365,150,1738
1771,-7401,-6788,4167,601,-343,399
1772,-942,-7582,5123,-529,-1955,1517
1773,7460,-6176,5993,1955,-358,-1543
1774,-6823,6873,-5272,1293,1157,1457
1775,4037,3115,4219,-1274,-621,-318
1776,-1188,-4483,-2774,-996,-1525,-375
1777,-1702,-7952,2514,1641,1389,688
1778,5288,-5081,-304,-1705,-1041,384
1779,-6350,-2203,-1799,-1425,982,-1942
1780,-6940,-5968,2738,-1520,1258,-603
1781,1007,-353,-64,1244,201,916
1782,803,1243,-4431,-1420,222,123
1783,-406,7468,-2206,922,1196,-1806
1784,-271,6014,-7710,-764,1535,1096
1785,3577,364,-7709,-1507,-1930,-425
1786,6460,1493,4808,-1552,364,-948
1787,-7229,4446,4948,-259,147,617
1788,2226,4876,7254,404,-1815,-748
1789,7841,-4896,-5700,1479,-4,-196
1790,-3978,-2909,-211,-1379,-1348,-1210
1791,4156,-689,-2246,613,518,624
1792,-3975,2796,37,321,-713,-1167
1793,5449,-5878,7443,-392,86,1230
1794,-2546,-1705,1858,-539,-847,-1225
1795,3517,-42,-2898,-1451,19,818
1796,-2556,-7128,4574,-236,1894,1569
1797,-386,-1837,264,-806,-1207,-967
1798,1913,-7908,6390,-1209,-1760,1390
1799,-7033,1238,-2104,-1364,-1446,-462
1800,-2819,-6439,-5348,-797,477,-139
1801,7994,-3714,-6779,226,441,-43
1802,-7252,5017,-4997,96,-1021,-1985
1803,2248,1540,1720,1642,-1914,1158
1804,-4247,-3224,-6820,1379,-1729,-1249
1805,6120,-1059,6716,-1916,-500,3
1806,6839,-5983,2347,-607,-258,-273
1807,-828,7991,3282,-1617,-1723,1642
1808,-7736,-2041,1357,-554,204,-548
1809,-6675,-3455,7726,-139,245,-1669
1810,-1749,2944,455,-768,287,1083
1811,-6266,-3851,6878,-348,1446,670
1812,-5541,-4047,7359,1550,-1530,-441
1813,5633,-1901,4193,-1281,-1270,-335
1814,5922,-5385,-1229,833,-1478,1396
1815,-4306,-2921,-7927,-1089,-1247,1549
1816,-6753,2058,3388,-1370,-544,-59
1817,-7153,125,-4588,-1565,324,1943
1818,-5674,-7529,4829,812,-1347,1133
1819,3205,4389,-4608,1592,1718,-324
1820,-2870,-2700,7264,-871,-38,1112
1821,966,2698,6413,-207,1757,-508
1822,5297,-7665,5289,1339,424,926
1823,4207,-5172,-5812,1433,1671,-535
1824,7416,2765,-7972,1750,715,-1971
1825,-1870,4951,7359,1574,718,1560
1826,2299,3648,-6175,1310,52,-1421
1827,-194,-5424,-7941,1667,-1616,1701
1828,-3535,3127,-880,-501,1169,467
1829,-3554,-7731,1226,-1821,1895,1338
1830,4294,-1182,1402,168,1979,-1181
1831,5821,7940,2113,-775,-1480,1098
1832,5796,2890,3203,440,-322,1227
1833,-4135,-7207,-157,1172,-1910,599
1834,1405,6120,6125,-1382,1334,36
1835,-4035,-2743,1106,-415,286,-1447
1836,2905,795,-5953,-446,-859,1267
1837,-3059,-3161,-8000,-1071,1086,1283
1838,-4907,6784,2195,1464,-256,-849
1839,-1940,6712,-1847,338,1006,55
1840,1116,-7465,3925,789,-776,1326
1841,6657,-6221,-306,1156,1537,-1111
1842,2043,4878,-577,1500,-116,-957
1843,7293,6837,6210,-1989,618,-1512
1844,1729,-5511,-3390,-616,-1036,-1119
1845,7855,-518,-2047,-1426,1219,1448
1846,1124,-6915,6334,1993,-727,1925
1847,3901,4441,2050,-1045,929,647
1848,3724,3934,4967,314,239,735
1849,4299,3104,928,849,-1438,24
1850,-672,1407,-805,1352,304,1448
1851,4841,196,-3520,1115,1603,180
1852,2317,-1588,-2517,1034,1987,-1994
1853,57,6765,-1416,-1507,-429,217
1854,6318,-4221,2145,323,-1660,-969
1855,2804,1072,-1580,198,457,-1879
1856,-4230,1816,-1784,-1955,75,1929
1857,-6226,6129,-2767,-32,-1427,-728
1858,7639,7285,2118,887,-1431,-973
1859,-3433,-4193,1358,-58,670,-1242
1860,2793,-6142,4491,805,1152,1319
1861,-6991,255,-4234,569,1388,66
1862,-4828,5765,-5815,1346,840,-1595
1863,-3213,-3370,3709,-1234,1005,-1892
1864,6739,-4980,-4077,1951,-142,-1056
1865,4050,4029,-5352,1755,-50,-664
1866,6981,4554,-4515,1312,-187,-1277
1867,3925,2444,545,57,-388,-124
1868,-5828,5378,2972,1891,-1660,-244
1869,-743,1954,-7820,175,-953,-1882
1870,3674,-2010,4346,-1881,928,221
1871,-4635,-6218,6275,-1727,987,1146
1872,-5881,6260,4715,259,-1335,362
1873,-4938,-2734,7527,533,-1979,1138
1874,-3574,-1325,6331,678,1390,629
1875,-3063,-6638,-3882,-298,-1159,1380
1876,-4203,-3072,5621,-288,-1788,-574
1877,4903,1061,565,-1269,1807,1705
1878,4934,3942,-5575,-979,-1770,-1840
1879,7514,-7762,7155,1615,-1040,769
1880,-144,2371,5409,-1435,1103,1285
1881,1671,5172,6008,1340,629,796
1882,357,6673,-674,-1249,1926,-997
1883,847,-4183,786,961,-157,-1883
1884,-5995,-3680,-7273,-877,1901,1476
1885,5184,1706,5477,695,-937,-569
1886,1833,-3725,4786,1252,1396,-915
1887,5732,-2998,-7794,974,1865,973
1888,-2714,-7262,895,1175,-731,1351
1889,5284,-6231,5694,-718,864,-644
1890,4802,6640,-7022,-588,-148,-159
1891,3899,-3836,5438,-1744,-1551,196
1892,210,5982,-225,-1928,-1765,106
1893,1557,690,-4929,373,-1335,1452
1894,-2069,7803,-6888,1525,368,-230
1895,-6038,-3058,-76,1349,-1176,1646
1896,7225,-7311,30,944,-307,-415
1897,218,-2881,-2649,760,-1197,-525
1898,4850,5786,-1026,160,-1687,-725
1899,-458,-6575,2345,1267,-1616,-384
1900,1354,-3058,2720,1749,588,595
1901,-6759,-7145,-4100,-477,-1830,851
1902,-3259,-3139,7934,-79,1502,886
1903,-63,554,7682,805,708,1609
1904,-1862,-3577,5129,-1552,304,446
1905,7531,-6569,-3639,66,-1496,-1270
1906,-535,-1573,-3368,1312,-1528,-649
1907,4303,3971,-774,-233,-980,1442
1908,1583,-7960,3050,-195,-1731,-58
1909,1820,1929,7562,960,474,-1264
1910,6992,1264,-4175,-457,97,1740
1911,-1374,-7007,-2948,-1263,205,1487
1912,6163,-6785,2721,1604,660,855
1913,6469,5353,1848,-440,1450,-974
1914,4571,4262,4107,862,1201,-424
1915,6406,-6429,-448,1373,1750,790
1916,7192,1359,-4729,-922,604,-570
1917,5296,-4420,-4276,1793,-1534,547
1918,-2848,-7075,-5176,1207,1244,-209
1919,6939,-2327,-5031,-1046,-863,1263
1920,-4173,4094,-6385,-326,-1810,-1428
1921,-4430,4423,733,1082,548,-1121
1922,-2622,3475,5472,1166,-1662,346
1923,7818,-3184,-6232,-1877,-1862,734
1924,-1826,-5017,2328,402,514,438
1925,-3873,6126,-6522,-902,569,1795
1926,7255,3125,-1800,1252,-1874,-1634
1927,-1686,-6352,7335,-1725,1180,1385
1928,6273,-4472,-6810,-413,-566,1081
1929,-6478,-6429,5866,-1018,691,1482
1930,7371,-6197,-2288,-1522,1174,-1741
1931,7651,-4983,3016,-321,-1313,1789
1932,-7064,-3610,-7451,-745,1859,772
1933,-3570,5249,-3262,-888,188,194
1934,-6494,2558,6958,-1810,-91,-624
1935,7623,-6997,-2049,-441,-216,-1745
1936,-7608,-1445,-5129,626,192,-576
1937,-4991,5792,-6522,1302,-669,-67
1938,6492,-7435,1969,-478,1462,-1335
1939,-4248,2874,6176,-841,1447,1553
1940,3542,-3153,3019,-466,-1175,-1722
1941,3821,-5149,-1267,-1807,-1204,784
1942,-3104,-757,1128,-20,651,1689
1943,4663,38,1067,705,-192,374
1944,-3658,7184,2669,600,-1714,-900
1945,4626,-1679,7250,825,231,-1212
1946,952,6963,4279,1453,-1306,-656
1947,2639,5418,-1493,1971,-442,1558
1948,-4700,1687,-5044,-303,1883,-47
1949,-5551,-7166,5361,-1470,-570,1275
1950,7314,6291,-5579,2,1099,-271
1951,7541,6733,-7826,201,-1004,-95
1952,6038,3940,-3526,-270,34,1700
1953,-491,758,4519,1137,-1490,1242
1954,2933,-7537,-7589,-131,748,-1568
1955,1759,-43,1050,428,1050,-1855
1956,-4604,-3672,4408,1302,-1409,-177
1957,6229,3797,-61,1961,974,-1009
1958,-5009,-6155,-54,-459,-902,-1496
1959,-6104,-4707,6101,-1872,-621,-1194
1960,-226,7379,7360,1092,-1679,956
1961,-6835,-3231,3736,-733,-872,1579
1962,2242,2787,-3688,-1030,-1934,1047
1963,-6218,-3567,-4644,1979,-1936,1168
1964,5301,1079,1793,-1508,1889,-130
1965,-1100,-7140,-1225,1278,-1110,1138
1966,7554,1361,-6152,1793,1297,1191
1967,3128,-783,-7278,1222,866,-1492
1968,-5695,6398,5864,998,-264,-1400
1969,1810,1989,3052,30,-1598,-1197
1970,-4360,691,-7316,1107,-1251,-1804
1971,568,1452,-2347,828,-1960,1236
1972,2025,5670,-2015,1255,-196,-1638
1973,-4410,-7112,3882,1443,621,-1956
1974,7535,3702,109,1866,778,1022
1975,6614,2958,1557,-708,-1129,1064
1976,-7749,-2760,-1821,-1376,-240,-683
1977,-4893,-433,-6004,555,643,-178
1978,-4368,368,4635,-761,1378,516
1979,-1288,-1539,7204,-372,-1602,-60
1980,-3634,4738,-1144,1794,1577,733
1981,2237,-2288,137,1056,1897,-1421
1982,-6292,-6737,5100,-1971,484,133
1983,7041,-6581,-1599,-583,-1667,-80
1984,-3006,-1555,2840,314,97,482
1985,3884,-4999,-4738,-747,-1393,-1910
1986,-994,4664,6869,811,-538,1693
1987,-4352,5282,2154,1141,-203,1354
1988,198,-5895,337,-1911,-304,-1297
1989,-4376,6206,-6244,961,-968,1825
1990,3942,5786,2801,-1089,-1083,-482
1991,-1771,-6930,6824,167,1941,634
1992,717,-3707,3116,-417,-633,-238
1993,-1327,-2413,-721,236,1708,-246
1994,5715,7920,-6852,1570,642,994
1995,-7140,1870,902,-565,-1861,1850
1996,7769,1408,-7270,1613,-1130,1384
1997,-4263,-869,6559,-1566,1158,-1747
1998,5538,1670,4294,-969,-493,1792
1999,5766,4532,-2111,692,67,1043
2000,1997,-2645,-6738,-1590,60,1354
2001,-382,-4826,-6372,-1453,-334,587
2002,-2494,-1667,-2566,618,-539,-1099
2003,7106,-7250,-5062,-1763,1289,469
2004,-778,-3034,5348,-930,-1489,1933
2005,3927,7646,-5508,-1957,1979,317
2006,4484,-7677,-7097,918,1252,-855
2007,-7946,6965,-595,-1027,1948,-1471
2008,3755,3640,4346,-530,-1943,808
2009,4715,5660,-6224,-724,-1351,1698
2010,7352,-6410,1544,-202,-1628,1543
2011,2912,-7897,-3463,-21,1339,-1959
2012,-7563,3175,3487,-589,-1482,-501
2013,7890,5682,6809,354,1366,-1339
2014,4631,7085,6568,-1254,843,570
2015,-5559,-722,-5924,729,-1886,575
2016,392,-2621,5476,-996,-2000,564
2017,-893,3197,-1725,875,779,-855
2018,-6466,-3385,3644,1821,-668,-111
2019,-1602,-1724,-7937,-650,-805,-1171
2020,-1943,-2855,-3834,1115,-1954,912
2021,3334,1215,4445,1024,1199,301
2022,6790,7965,-1014,-1787,-732,-925
2023,-4756,2933,6841,-359,-1141,1409
2024,-2727,3411,4153,-1014,150,-736
2025,7720,1402,-3510,435,-547,-1633
2026,-6858,3358,-7729,1771,184,-1293
2027,2870,2194,1391,-186,1541,1175
2028,-1258,-2652,-5619,-719,15,-719
2029,-5025,-4204,-3933,-646,1888,1426
2030,5942,5630,572,-61,1675,950
2031,1868,-720,2761,152,1004,-956
2032,-2514,-2081,-6690,-1830,-1506,1203
2033,-2171,7143,-4801,1247,758,243
2034,7548,-6394,-1569,-915,1316,1316
2035,5244,6831,1546,-763,-497,-934
2036,6510,622,-586,-1807,-455,-296
2037,829,-1254,-4189,-758,214,-373
2038,4796,-6088,7735,1928,-1721,606
2039,824,2211,6930,-504,530,281
2040,-6000,-217,-2711,-1742,-60,1164
2041,4329,6112,1446,-1926,-488,821
2042,6552,3353,-2491,-1821,-303,126
2043,-2297,2699,3141,1629,-1782,-433
2044,-6396,2981,553,-70,1285,-592
2045,-2223,-4432,895,-1483,965,-1798
2046,60,3975,1286,-1997,124,23
2047,-6110,-1125,7163,-824,7,-1533
2048,-5630,5424,7146,717,-1789,219
2049,1720,-4395,-1767,-1066,1787,1078
2050,-1231,294,3571,1370,-1563,1004
2051,-7919,-7723,285,-1335,631,1016
2052,-3115,-76,-3944,-291,-1780,1048
2053,5718,-3286,5224,1887,428,-503
2054,-6918,-1304,-1290,304,1339,-1655
2055,-7965,-7725,-6120,749,-510,-779
2056,431,-1481,-4665,1537,1092,-34
2057,6532,3871,-2597,70,537,-946
2058,-4145,-6504,-3036,-395,-1961,-708
2059,-6072,-7569,-2926,-1119,-1741,760
2060,-7768,3210,-6215,-197,-728,-94
2061,1574,-4852,-5137,600,-1752,418
2062,-4688,7540,4125,-1626,1431,407
2063,-5681,-2325,-4851,-1259,741,-1812
2064,-450,-2323,7712,-388,-22,493
2065,-907,402,-1374,1860,-1887,-1001
2066,-268,-4304,-256,-1791,539,1086
2067,833,4889,-6143,-1829,701,956
2068,-2559,-6449,-4602,1360,738,-1399
2069,-450,-94,-218,-1792,1312,997
2070,-4419,4679,-2774,-1195,-1308,1842
2071,-6396,-7138,-3580,-95,1329,-1817
2072,-1896,6861,-7989,-320,-364,-917
2073,7520,-3081,-2023,-546,273,-1500
2074,2449,2098,-222,-1209,-581,1822
2075,-7008,5642,3236,1651,559,1939
2076,2236,2730,6746,235,1010,-1191
2077,-7475,6423,-79,381,667,1531
2078,2655,1831,-3500,-1786,1422,-521
2079,-4520,2923,-6777,1134,1392,649
2080,5396,-4878,5717,-19,-1483,-1045
2081,-4165,1788,2634,1394,-510,-452
2082,-2299,4499,-3256,509,-637,452
2083,7613,-2209,7019,-1962,824,631
2084,-2236,-3979,2442,73,1622,-880
2085,-5645,-3534,5334,414,1909,39
2086,-957,839,-4126,-537,-1619,-710
2087,377,981,4968,653,-1404,-109
2088,-7987,-1162,-2815,-587,527,1550
2089,-255,1565,-7101,59,-419,1924
2090,6697,-3347,3810,-568,1066,1321
2091,-3127,-4466,4869,1574,-270,-422
2092,-1124,7932,-1784,-840,-426,-1794
2093,-1050,-2590,-5754,-1905,-1327,764
2094,471,-6645,5498,-1227,-805,-437
2095,-6512,-4216,6685,917,1295,-98
2096,5998,-3603,-6032,1545,1281,-361
2097,6437,-1131,-1644,-761,11,-462
2098,-4666,6630,345,38,-163,1230
2099,-5890,7613,-6203,-1900,1809,1200
2100,3462,5009,-6342,-467,-1576,-354
2101,-7301,1121,7484,1548,673,-1559
2102,-547,-7846,86,-1090,167,-1306
2103,3014,1392,5011,-1109,591,-1914
2104,5667,4704,-844,1447,1586,-1285
2105,-3884,-3190,693,-380,453,1848
2106,-5433,-4586,-7714,-755,227,-218
2107,-1458,2956,1357,1333,-1655,-1193
2108,-5934,4759,-3103,-1588,-1191,1325
2109,237,-3030,3653,1265,675,-556
2110,2172,-3706,596,465,-771,1838
2111,-4281,7813,-2652,1207,403,1524
2112,6668,6193,-4415,-511,572,1868
2113,-6026,-4936,4878,1555,-394,-1058
2114,4247,-6246,3516,-1862,878,-39
2115,6838,5269,-80,-671,1251,-1624
2116,3805,3697,3610,54,1350,-1692
2117,-4682,-7808,3576,-239,2,1455
2118,3732,2482,1302,1476,467,649
2119,7106,1922,5416,1920,-1901,38
2120,3617,-3979,-3522,1543,-1713,-367
2121,7177,-6788,-584,1497,-1848,-83
2122,-6097,1708,1025,230,-59,-449
2123,-3986,5403,1815,-262,-1740,-8
2124,-1318,5757,-5947,1822,-298,-1417
2125,6733,542,-4814,-949,-1836,250
2126,7490,1968,281,661,139,-1211
2127,7785,3340,-3972,1043,1170,1579
2128,-7811,-7098,-7289,793,-1564,-1831
2129,-5888,4995,5197,1647,1459,-306
2130,-3276,2549,-3453,-1337,-1690,436
2131,-1445,421,-7646,1862,-1251,-1473
2132,1334,7422,-1901,-588,1394,-869
2133,4732,1585,-1980,-3,780,-1839
2134,719,3291,1468,685,303,-1758
2135,-3462,1842,1184,1129,1762,459
2136,6076,-7922,-4627,-610,-1817,512
2137,-6152,1862,-437,-1347,-292,1657
2138,-1062,3485,-2136,1616,-796,1827
2139,2573,4289,-3458,-1162,-680,258
2140,-6819,1108,-2508,890,863,-1789
2141,7382,-7000,-1629,555,1046,1882
2142,-6861,3582,-4317,-618,-130,1155
2143,4354,-3353,-3155,-205,-1162,1138
2144,-5520,4608,-4705,-1358,1187,-1193
2145,286,-1883,2551,1031,-1919,-1915
2146,2712,-4034,-7431,667,-1315,-383
2147,-3268,3290,-2214,-1740,-1230,-942
2148,-5130,-3174,1943,-749,647,-1539
2149,3754,40,-7775,-1017,1593,-1602
2150,-1094,7001,-1751,-729,-652,823
2151,7186,-4723,-7847,-614,-976,-978
2152,-3996,6117,3553,812,-93,52
2153,-1463,-3903,-5532,-1748,-462,1964
2154,1373,7408,4014,881,49,-1187
2155,-7300,-5109,-4249,1415,1414,-21
2156,-1837,-4905,-5129,1558,1847,-286
2157,114,1069,6745,-769,744,-375
2158,4545,-3357,-7598,834,810,-1374
2159,5102,500,5234,-754,23,-373
2160,-3801,-5152,105,-53,-1514,-1677
2161,-5800,-7425,2922,-455,510,-1234
2162,-3865,-6326,5617,1131,1210,-1536
2163,688,1537,1040,1498,-1129,684
2164,4148,-4783,-4053,-1176,1564,-1380
2165,-1277,391,3362,922,-775,-516
2166,4044,-3590,-2088,1023,1941,1304
2167,-5316,5363,-5648,-1726,-319,1162
2168,-4056,2693,6470,678,1810,-1561
2169,-7812,2767,-5632,1355,1666,1033
2170,1184,-1182,5341,1080,-852,1445
2171,-3770,-7747,5037,-1505,1423,-562
2172,-5317,-7966,-4036,974,-1659,286
2173,2359,5455,-699,-1306,-448,-1742
2174,-4253,5809,-5287,-1432,1758,-1468
2175,2543,-1709,1463,98,-737,1699
2176,6275,3645,-2299,1000,1161,-882
2177,-6254,-6221,-4143,656,-1279,-719
2178,-7500,-7059,6990,1553,-1468,1860
2179,-2053,-3735,4335,1976,-985,1780
2180,-2530,-4499,5809,19,775,122
2181,-1369,7178,-5895,678,935,1213
2182,7182,-1282,4036,-639,-1124,1141
2183,-1162,105,4224,1756,823,1504
2184,1679,2916,795,1787,-1818,-1130
2185,6152,1819,7027,1172,-1273,-1728
2186,2932,3205,4297,-614,-745,-1479
2187,6055,-2069,1621,253,1420,1870
2188,-3495,5016,5571,479,-1905,-1491
2189,-4843,-1105,6192,-958,-1429,-1031
2190,-5813,-1390,-587,-229,-955,-143
2191,590,-544,-3931,291,17,1981
2192,4287,1325,7132,1972,299,-1309
2193,5267,-846,-5638,1905,1795,1601
2194,-5035,-3090,5748,794,313,263
2195,5746,4246,-3165,-38,1902,17
2196,5024,3297,-5940,-1498,-233,-427
2197,4485,633,-1888,-1199,-87,-718
2198,2550,-7033,-4340,-49,-870,-1094
2199,-53,2913,-7693,1198,1881,1957
2200,-4385,4310,4375,-970,1347,-1177
2201,-5100,-2717,6265,359,-1289,-288
2202,7223,-5415,-176,1449,1982,1334
2203,6243,-4230,212,-1948,-1759,-668
2204,-7765,-43,5495,-1353,1620,1543
2205,3167,-6591,6576,-97,1529,-738
2206,-1410,1574,-7887,1654,-29,444
2207,-7075,2680,6576,1416,-22,-1319
2208,-7238,-3381,7621,869,-458,1482
2209,3296,1074,-7091,1798,-1952,1088
2210,-7580,-7618,4975,-1574,-201,-606
2211,-2375,2731,-5509,-187,-1258,-661
2212,1503,-622,6691,-1226,-1569,-1723
2213,-1942,6982,5842,-815,-1558,1238
2214,7212,4330,-2145,-1724,1440,-869
2215,-6871,5252,-774,387,-305,-284
2216,-6155,-2590,1629,1317,-991,-730
2217,-719,7801,315,1413,1371,-1176
2218,-6933,-7074,-3370,-1278,1711,-1963
2219,7912,7456,-4821,-1719,898,697
2220,3663,-6620,1202,-698,-1622,1335
2221,2482,-3966,-7880,1816,1993,-1129
2222,2202,-7130,1228,1174,-1456,649
2223,-6514,-4078,-3222,1349,-1506,-1793
2224,-413,-6612,3182,908,-1604,-628
2225,6532,-5166,6198,-1873,689,1233
2226,6067,-2628,-7131,589,-1049,914
2227,5680,-1393,-1311,-259,-220,1843
2228,6904,-7757,-2201,-380,1480,-86
2229,-4835,3850,2320,516,1599,-249
2230,4925,-1091,-6195,502,1429,952
2231,3475,-5907,2056,1933,-932,155
2232,6822,6597,1324,519,-1308,-1543
2233,-4161,-3326,7438,399,676,288
2234,-5190,-1835,2062,1052,-1132,-1148
2235,5649,-6441,-1179,-159,465,-1432
2236,5296,-3360,5913,315,-332,-184
2237,6391,2421,6843,-1091,-956,266
2238,2355,-5713,-482,970,1361,756
2239,-6250,-1497,-6848,1894,-537,-252
2240,-5493,2402,5636,-458,1312,192
2241,-4564,-2445,-4443,268,-172,52
2242,-6231,3189,-6025,-741,504,-1063
2243,-3124,-3493,7254,1742,-1969,1505
2244,5884,-1360,-85,171,1960,690
2245,182,-6088,1947,-1937,889,72
2246,1380,-1044,-668,-260,-1056,-580
2247,1976,7848,-2671,-1690,206,814
2248,6024,1353,413,1264,-1185,1543
2249,-3854,-246,-2213,-1882,-393,-1742
2250,-7708,7477,-6161,771,-1063,422
2251,7639,1035,485,123,-574,-489
2252,-7027,5239,7535,-1915,-1979,-2
2253,789,-6833,-4645,-504,-945,838
2254,-619,3576,-7658,113,266,-660
2255,-7250,-7701,4323,901,-798,-1512
2256,5743,2599,-1624,-1091,118,-1843
2257,-2941,-7126,460,537,1048,-68
2258,-3819,-289,-45,223,135,-279
2259,3601,523,-6600,-1346,335,-1604
2260,-7324,-385,-1198,-1547,17,714
2261,-2170,3582,372,1318,1333,1200
2262,1366,-6716,1778,1097,-1947,176
2263,-1648,4427,550,1369,-379,1774
2264,1844,-7550,-1266,1783,1868,1770
2265,-7627,6422,1400,-1630,628,-444
2266,-4400,2914,7605,250,1823,-1827
2267,2106,-5385,2135,-577,-1439,-1075
2268,-4595,-4877,1517,191,-1901,1389
2269,2176,-6217,1761,-1212,647,976
2270,5034,3392,1076,-2000,-1183,-1650
2271,-4399,1735,5012,1633,-1865,350
2272,-7664,3428,3379,-566,1365,-169
2273,-7195,5675,-7277,-1376,-1566,-743
2274,-4153,-6298,-6905,-1385,922,-145
2275,362,4866,7484,-411,-814,1371
2276,-1161,-1269,4887,-606,-937,1995
2277,1837,3380,-254,1673,-1760,-614
2278,1397,-7350,-5719,718,1487,-1980
2279,-5849,-6317,-1471,931,1224,-1939
2280,1618,2670,-4918,-58,-547,-101
2281,6932,-2513,5995,-597,-990,1076
2282,-2814,-6962,7777,-123,1109,557
2283,-1671,-1089,-4227,54,631,1121
2284,-2264,-4933,789,1543,1174,1208
2285,6709,-3443,-4156,-1011,-311,247
2286,4574,2873,-7550,-1215,107,591
2287,600,2267,7773,-837,-796,1474
2288,-1038,4289,-3523,-1381,1798,-685
2289,5939,5801,1601,-175,1790,1499
2290,7734,7002,-7631,1081,1219,-1637
2291,4507,5936,5881,-973,168,1191
2292,-5032,5216,-410,-1006,237,890
2293,4274,-7306,5893,931,-1324,22
2294,7755,6598,3181,1070,-132,1566
2295,-3228,-6291,3215,-748,1381,-1508
2296,2779,-5293,-5382,1083,-965,829
2297,628,-7754,290,1656,-1391,-667
2298,-4819,-2383,7255,-1563,1049,589
2299,-6737,3540,655,1695,1513,-402
2300,2003,1895,7298,-567,795,1253
2301,3372,7623,-3000,-799,-272,-884
2302,-6711,-7414,-3940,-771,953,8
2303,-6351,-3454,1157,-1285,-450,-180
2304,3514,-984,4222,1537,931,-1505
2305,-1266,-1793,-4731,33,-1989,1183
2306,-682,-3114,4538,854,-1408,1955
2307,3819,5444,6085,-1670,-215,-883
2308,-4125,3652,6138,-666,104,-1530
2309,-2239,3320,4636,1262,-1020,-989
2310,-6512,5872,2311,-1732,-39,1831
2311,4013,-2087,-1266,664,15,1289
2312,3755,-3280,5997,1902,315,-632
2313,1285,-3280,2438,-212,-804,-1395
2314,-7486,2824,-3691,1719,-43,-980
2315,7327,7581,3281,-132,-353,410
2316,5374,-3176,-4203,618,-544,-577
2317,5503,-2341,5815,1950,-833,56
2318,7817,-3038,-5006,-582,-125,1043
2319,4804,397,5116,-1745,847,-125
2320,-5806,7802,-1636,1628,772,1629
2321,7468,-2106,2082,1128,594,688
2322,6934,-7156,6213,370,1081,778
2323,-5884,-1266,1878,292,1479,-1867
2324,-2851,5270,-6026,-724,901,1061
2325,2797,-4343,89,-1204,1947,-1101
2326,-3279,729,-4549,469,955,-1992
2327,6616,3675,1696,-1138,1931,-208
2328,-1143,-6146,5872,-1116,-1578,129
2329,-4044,700,4514,966,1577,-1544
2330,-32,6720,-7968,-1345,-801,-898
2331,1547,5958,4014,-500,-1087,1402
2332,2416,1972,1179,-1534,-1067,-1773
2333,6594,2495,-24,-618,-604,32
2334,4707,1266,-1847,-406,795,-1416
2335,678,1981,1846,-660,239,-1457
2336,2274,-2061,1344,-1384,1977,-1559
2337,-3372,-6345,-6282,-47,246,994
2338,2241,5246,-162,1955,977,853
2339,-2279,-4888,-4106,-1269,-618,-82
2340,-5409,4697,-40,1896,-588,-1736
2341,-6038,-7020,-7283,-821,1727,1475
2342,-5557,6667,6115,580,1208,-196
2343,-7334,-3368,-3984,-235,-925,-1388
2344,844,-6684,-704,-1231,1952,682
2345,779,-3327,3171,-1083,-1163,627
2346,-15,1795,-5944,1220,-1242,0
2347,7001,-2590,325,911,1263,-1368
2348,4665,-1371,5820,-1980,126,1930
2349,-1752,4389,-1771,-1188,364,-740
2350,-3099,-2418,-6565,356,-1082,-1650
2351,4356,-5705,7548,-980,-1964,-1031
2352,-855,4361,-4953,650,-1943,1345
2353,2691,6915,-3106,-1414,-1124,-1759
2354,-1399,7856,-4890,431,1203,1107
2355,-2770,-219,1257,679,-1296,-1325
2356,-2063,7407,-790,659,-152,839
2357,5952,3680,2734,-504,-1559,-490
2358,7565,-2780,-3484,542,-719,1442
2359,-4457,2466,4898,339,-617,1923
2360,-5167,-7212,-3900,-1336,-1367,-1186
2361,-4328,-7884,-4247,1133,-1381,908
2362,5236,-2098,-6139,-1412,-144,1453
2363,6967,-3121,902,-1682,-372,83
2364,4342,6212,-1373,-232,-1645,259
2365,1426,6981,-6164,1191,1148,851
2366,230,6393,-1205,-1188,1300,1618
2367,-2112,-4000,4295,-1531,-1245,1239
2368,2405,-2998,4476,-1595,-1652,1628
2369,-3854,3282,6102,-1341,-1498,1741
2370,-3425,7027,3038,744,525,322
2371,-377,3519,-4819,267,-1605,1636
2372,-6233,5889,-4878,743,1774,1773
2373,6603,5860,-2865,-260,1365,327
2374,3383,5005,-624,639,-1383,187
2375,2622,-5080,2552,-201,-37,1804
2376,4297,-6065,-6360,1605,1861,-1182
2377,-7028,5404,5799,-1437,-858,-665
2378,-1952,2578,-1115,1760,-975,703
2379,-1333,7192,-2289,-453,668,-498
2380,2214,4594,3002,-392,-96,163
2381,-4321,1896,-7812,1027,333,-285
2382,-2223,-3539,-7730,122,-625,-1864
2383,6304,-3633,-2714,-1201,191,-647
2384,-7672,5089,5273,1098,1356,-539
2385,4120,-4851,1278,-999,505,236
2386,-3524,7666,-2244,-1209,-799,-1332
2387,640,-7672,-2807,905,-315,-890
2388,725,1892,-788,1001,1939,-1671
2389,3346,-150,3753,-1241,1361,-1326
2390,2076,4277,1524,887,54,-1256
2391,-40,-6981,7826,-737,1349,1543
2392,-4453,-5189,-90,-1060,-842,-909
2393,-6406,3233,1808,-692,691,-1813
2394,-5373,6785,-3703,-200,559,-362
2395,7759,-3475,-2130,514,1811,-1806
2396,3909,-6047,6522,71,-1040,-883
2397,1438,6989,4395,-722,-1768,-1700
2398,7686,7337,-3832,-1220,1893,-1341
2399,-1270,5930,-4819,1776,730,1056
2400,3344,-2813,-3067,48,-874,693
2401,996,-433,-6392,1467,1261,-1486
2402,4899,-2493,4317,-1271,1268,-1321
2403,-2492,-6203,-2940,-945,1320,566
2404,7917,318,357,1791,1945,1064
2405,-1528,-6537,4478,-39,0,-556
2406,6358,6267,4582,401,-968,-1624
2407,629,-6066,805,-61,1735,487
2408,6939,1093,494,-1001,1116,1623
2409,2967,803,4130,-1475,-937,-1096
2410,-656,-1655,6888,-1501,-35,-1452
2411,-4813,-2526,-6508,-415,-1024,-980
2412,-3402,1491,421,-989,1564,-1061
2413,3923,433,5062,-1360,-417,-1872
2414,-7756,-3733,4927,756,1766,-818
2415,6690,4769,-2473,-1974,823,910
2416,5351,4418,1606,-238,-469,333
2417,4190,2287,-2104,1118,-1852,-487
2418,-2184,-1245,5955,-1422,1811,1011
2419,5035,2009,7270,-1291,-1364,1893
2420,5999,7126,-1220,1407,499,911
2421,7488,-2660,7883,-677,1542,-484
2422,2904,-2202,-6051,-182,1529,-1459
2423,-458,-556,4274,-652,-167,-1367
2424,-6900,6050,-4031,451,487,1830
2425,6511,6087,4613,1939,1,-347
2426,-1397,-7016,4572,-128,-168,1747
2427,5322,6131,4910,-1466,721,-1762
2428,1325,671,4412,-835,1807,608
2429,-5505,7142,6825,176,563,350
2430,6902,-7405,-4955,-1209,1352,1608
2431,6781,-2974,1777,-1352,-1673,1886
2432,2785,-838,-4670,1368,-1898,-556
2433,-5051,5903,-6656,1358,290,-1351
2434,-101,5336,-5646,60,-1854,1430
2435,-744,584,368,832,1702,-1635
2436,-1178,-1751,-2820,-1729,-1224,1144
2437,1071,879,2218,942,1414,1522
2438,671,5714,7068,1085,1956,648
2439,-6916,-3673,-4514,580,-29,1765
2440,-6020,1252,7606,-233,506,-1771
2441,-246,-2081,7575,508,352,1678
2442,-6829,1878,5508,-873,754,-1794
2443,-5531,-2699,5786,188,-597,1920
2444,5323,-7839,-60,254,1787,-903
2445,-7486,7661,7040,-1392,-1839,1027
2446,5816,-6860,-4343,1903,-1846,-848
2447,-4474,2881,-5662,1416,-708,1133
2448,-956,-6175,1748,1783,1124,-470
2449,-2575,3582,-4879,1896,-949,1344
2450,-613,-1045,-7522,-2,-505,1966
2451,-1641,4409,1975,-1052,-1882,-859
2452,-5203,-2799,849,-456,-449,-1912
2453,-26,-672,-298,-964,-722,370
2454,-871,4407,-7109,-25,466,-374
2455,-7081,5014,4179,-750,-868,505
2456,-5735,4568,-6185,250,570,1550
2457,-4454,-5110,3412,249,-337,-1793
2458,3268,-6691,-2049,-176,-650,-875
2459,-2647,3294,2344,-1795,-1259,-393
2460,7073,-6798,4268,1819,969,1943
2461,-6265,2474,-2180,1121,-804,-1407
2462,-139,-2434,-4785,-1918,1800,1504
2463,7925,-5334,3651,-846,797,612
2464,6713,-4682,-6543,1056,924,-1772
2465,-484,1747,-5207,328,-370,728
2466,-7744,-5599,6854,728,-83,562
2467,-6291,6693,-1908,241,-1039,-410
2468,-1189,-7448,-2467,-1337,-906,660
2469,708,3494,-592,-192,-1323,227
2470,6563,-2499,-4256,-732,-1235,-1131
2471,7423,-3414,-5254,732,1127,-1825
2472,-2740,-1022,-380,1173,1158,-1351
2473,4408,6318,-3273,-1070,1515,-1684
2474,-1068,6635,4735,-1238,1131,912
2475,5875,5052,-1708,1793,876,1487
2476,4865,-3957,7400,-1141,-275,-1723
2477,1277,-3178,-1623,-647,-81,1031
2478,7737,-5567,2992,-85,1311,-1013
2479,-4078,-1638,1839,-184,614,-215
2480,-3681,-3580,-7026,572,-238,166
2481,-7784,-3785,-5132,-402,1873,-107
2482,-1073,1943,2153,1615,-417,-34
2483,-517,-1409,-7268,-1278,-1566,58
2484,242,-6779,-830,-287,507,1805
2485,-3120,3314,-1324,-29,1291,-1154
2486,6271,7259,6730,-1200,-1689,1373
2487,-4905,6117,-9,-1184,1711,-18
2488,225,3750,-2731,966,816,616
2489,-328,5322,6240,186,971,-1764
2490,-3767,-4561,5306,1864,1044,-671
2491,2792,-179,219,340,-341,-1868
2492,-2459,-4480,-7690,1199,-1817,1618
2493,2616,159,-295,-1644,34,-728
2494,-7082,956,1341,1943,-824,-1170
2495,-1321,7913,6951,1530,1912,-1362
2496,7264,5217,4719,1815,24,-1732
2497,-2775,5688,787,-1864,154,1873
2498,4644,931,-2731,1102,1544,-1167
2499,-5663,971,-6246,305,393,-252
2500,1495,3830,-4769,-1463,-1575,-1014
2501,7570,3192,2547,1235,-1784,-438
2502,-3307,7204,2142,319,1543,-1830
2503,569,439,-1844,1946,529,758
2504,-7248,5717,-6,443,-1834,431
2505,-1751,-1083,2229,1474,463,-1627
2506,5871,3546,-1856,941,98,438
2507,-3232,2269,-3925,-478,-1609,-31
2508,-1099,3254,2728,1639,232,-238
2509,3428,-7729,-1204,1334,1378,-1889
2510,3024,-4873,-6234,667,107,-310
2511,-3804,-3861,6940,660,-1253,-624
2512,3134,-3118,-4652,550,1619,-907
2513,-7546,-3045,-6920,-230,549,7
2514,5061,5370,-2099,-1080,105,-1373
2515,-4487,-3138,196,1618,323,-49
2516,651,7453,5574,-902,-685,-354
2517,-3760,-4268,5184,906,1313,77
2518,-3341,5649,-5296,795,1618,167
2519,584,-7504,-6862,-1296,221,-88
2520,-4945,1999,-7963,-531,1755,1081
2521,7684,-6148,-6211,569,-267,-69
2522,7287,5816,-6717,-1834,720,354
2523,-4783,2352,4965,418,1052,-684
2524,6614,-6877,-2462,377,325,1535
2525,4410,4851,-3940,1632,-1711,851
2526,-245,7458,6214,-1809,1846,-984
2527,-7569,-3537,-4746,-332,1419,-1886
2528,-6646,-1377,-1249,-203,-1313,-1661
2529,-4425,3430,-1970,934,1848,-1385
2530,3179,3186,-7225,1186,-614,1010
2531,3594,3099,-3941,1790,-1147,291
2532,-2479,-5454,-7818,47,768,1666
2533,1322,-1027,-2311,-1817,-1093,1063
2534,-7414,-6468,7737,-1737,-1407,-872
2535,-2976,-4599,-5619,-1078,1637,1277
2536,-1903,7487,2454,-1243,1672,331
2537,6058,-6490,-2333,-310,-519,706
2538,-6469,333,-5067,-1672,-1818,-418
2539,7164,672,-1561,-127,-360,-1137
2540,4386,1406,1081,-1929,-571,-1956
2541,465,-280,5353,437,-861,1613
2542,-592,5828,892,-618,1192,1093
2543,-1199,729,1719,-893,213,512
2544,3137,-6229,-3172,-1329,-22,-1347
2545,1313,5275,-4196,1138,789,-1647
2546,2266,2019,2882,383,-827,-926
2547,1357,-2822,161,-314,1523,-11
2548,2661,867,7658,-1134,767,955
2549,-7625,712,-5695,-382,-194,1169
2550,-1454,-620,6429,-518,-1518,-522
2551,127,-7718,-2218,644,1752,-516
2552,-367,-31,424,-156,429,1866
2553,7640,-6560,-3017,1794,805,-142
2554,-3838,-4389,3965,-1019,-1245,-1113
2555,-67,1705,3076,-296,-1732,1676
2556,-2264,-5257,-7555,53,-137,195
2557,-3997,7246,6916,1072,-1928,1159
2558,7989,6777,-486,1161,334,-1419
2559,-7484,-5422,-7042,1698,-1643,-1185
2560,7292,5484,4325,-652,-1594,1496
2561,-2115,7069,3059,1554,1736,470
2562,4079,266,-3331,-1956,1293,-1116
2563,4097,3819,1417,1857,-1414,348
2564,-5774,-2464,-7538,1648,825,-23
2565,4546,2286,-7748,1225,-779,-760
2566,-1563,-5201,3927,-1432,-666,644
2567,-3168,-955,6157,-901,-1866,-117
2568,-2901,-6986,-2819,927,-1216,-1902
2569,7851,3872,-5926,-171,-1366,1221
2570,1462,1619,-492,-1663,-1509,8
2571,2127,5580,-4492,74,215,1310
2572,-3096,-2973,1765,-1912,-515,-1843
2573,6726,-4841,5380,1736,-990,919
2574,1283,-525,-5697,-616,-1688,-1141
2575,7337,3203,-2898,-1715,-284,890
2576,3132,-5984,-3537,-1670,1950,598
2577,-2756,-7824,-2155,-841,-1597,754
2578,6656,7605,-4472,89,-639,-747
2579,-1855,4070,4544,-1795,1164,-1087
2580,-1575,3164,-4391,-849,-818,-1194
2581,-940,-5880,4547,-1004,-368,137
2582,-5419,58,-3922,-1993,1424,-805
2583,-6620,-3204,4188,-1403,1143,946
2584,-2853,7809,6219,1703,31,-1941
2585,5692,-2711,7351,1685,-1892,-228
2586,-603,-6358,7444,-1103,-2,1515
2587,6989,-1674,1981,1318,464,1047
2588,5220,6866,-4357,1203,-158,1506
2589,-276,-5299,166,311,-157,-414
2590,-7368,-4889,1862,522,513,916
2591,-7240,-1518,5681,-306,-1741,-807
2592,-2925,656,242,-1777,497,1840
2593,20,5276,3866,1681,1401,-1645
2594,1343,-2490,5068,376,1981,-249
2595,7045,-591,-4156,180,237,718
2596,-6431,-4382,3676,-114,1500,1886
2597,-4452,2009,5535,460,1497,-1634
2598,-2090,5524,-5637,676,-1527,173
2599,4204,-7561,-4391,631,-747,-1662
2600,-4132,-659,7667,1973,-212,1609
2601,-7641,-2109,-5033,1698,-33,240
2602,3411,3273,-5476,478,1844,-678
2603,2918,-4324,2453,1485,-1461,23
2604,-4739,-7993,904,-1978,1818,1747
2605,6363,6092,3871,1849,1011,781
2606,7402,5545,-5655,106,-1173,-56
2607,2701,-7034,5385,45,-1030,-172
2608,-6801,-2664,368,-1731,1329,903
2609,-527,-108,-4412,1232,1871,-729
2610,-4645,7629,-7280,-404,-299,1948
2611,3701,1739,-1445,-658,-1876,-1101
2612,-5637,-4378,-146,-499,-1325,1016
2613,7727,261,-2855,-1770,-1296,1653
2614,5560,-3649,2198,135,1647,1356
2615,-7113,3021,3678,-670,1651,1122
2616,150,3187,-7516,-472,-1858,1075
2617,5515,5134,6744,384,918,257
2618,3884,5458,6869,-1194,-101,633
2619,361,3696,-3575,-1805,301,-253
2620,-1164,2340,-5414,-56,-223,-451
2621,-4971,307,-6655,222,-485,1462
2622,-2450,7559,6888,206,-325,886
2623,-7993,-6002,5569,-1349,-1140,388
2624,39,6093,-443,-1774,808,-1087
2625,-5426,-5069,2772,-1965,812,1780
2626,3910,73,-2643,-1991,1797,1344
2627,4568,-6778,-579,289,562,144
2628,6035,-1535,6095,1757,1029,491
2629,2387,-5024,5514,-1786,856,-377
2630,1807,7551,-4432,-1227,127,1762
2631,1329,-7774,6707,283,73,-1593
2632,-823,1344,-537,-1930,955,-1539
2633,-2220,-6415,6909,-321,1068,1372
2634,3339,-2010,7065,-1491,700,-1675
2635,1645,-7350,-3525,1267,1164,-1315
2636,2000,22,-1295,-1919,750,-952
2637,-1226,409,4340,1946,958,1561
2638,5638,2071,-2295,-1808,-1806,153
2639,-2410,-4757,-4764,638,-1329,-552
2640,7676,-4618,-6679,-924,1331,39
2641,4550,354,566,-447,-493,-118
2642,2802,7785,-2425,606,463,955
2643,-5123,-7129,-2770,280,-1938,1014
2644,-5757,4836,2200,-1666,946,-125
2645,-4649,4422,4675,1300,-916,1369
2646,5887,7948,4467,400,-843,-544
2647,2381,2989,-529,1691,-1205,1948
2648,7388,-2201,-5757,-902,1492,929
2649,-402,-7913,1014,-385,892,-847
2650,548,-7166,4962,1785,-1783,125
2651,7921,6681,4113,-718,1198,1511
2652,-1192,-6878,-3260,-945,1250,-53
2653,-7560,-1721,-5860,-932,281,-1180
2654,-856,-3685,-5660,851,-1670,316
2655,6857,-2828,-6345,256,-1677,1053
2656,7443,-420,-306,281,844,1585
2657,-4418,1622,-1617,-996,1611,-1908
2658,-6099,-3270,-5774,1491,-1599,-1601
2659,3670,-5293,-2082,1118,-514,-1305
2660,-383,2746,2820,1363,405,-695
2661,1575,4071,-5463,101,675,1491
2662,-3437,-520,-5360,-645,427,-510
2663,6940,-6893,-374,1129,1732,1930
2664,-2751,4524,894,203,569,1458
2665,-5015,-180,2926,705,1263,1590
2666,-7088,-5210,-2844,-1459,-711,-1185
2667,5466,-7184,5855,418,-912,-1059
2668,880,-4490,7435,-1305,-774,-228
2669,1382,6680,3060,-82,1519,1947
2670,4688,5001,5402,-810,-364,-61
2671,-5683,3099,2406,-342,1598,408
2672,-7533,-7133,-5271,-235,-1606,-235
2673,-869,-7129,36,135,1790,-808
2674,-2940,4910,7218,631,-1319,1564
2675,-2282,-1273,7227,-1376,426,-1836
2676,59,2834,-3998,18,-1987,-189
2677,1962,3012,6658,-356,372,59
2678,-6014,-384,-6438,579,549,-1384
2679,-2895,2326,7365,-1508,-109,-800
2680,-1641,-6721,-4798,1445,753,1604
2681,-6086,6369,3464,-1893,-584,1228
2682,-369,-5457,5367,-1710,1324,-467
2683,-5633,5871,2416,849,766,94
2684,455,7937,-4103,83,-1234,-492
2685,-2089,-85,-6443,-688,498,-181
2686,-2886,-6322,4538,1591,348,-323
2687,-4141,3965,-6728,-602,-682,70
2688,5140,6128,2695,-1783,-510,-1465
2689,-4635,-1338,-4947,887,-996,-678
2690,5642,-4167,-3681,-453,781,1401
2691,-6446,1533,-4284,850,-1724,-1489
2692,2160,872,-4676,1213,-404,12
2693,302,-7857,-7226,128,-821,61
2694,3567,-7012,7133,-715,1890,-810
2695,5739,-3281,-1904,213,-1487,-950
2696,-6195,-2461,-5493,177,1106,-1614
2697,5255,1474,-142,1166,367,882
2698,-6630,5152,-5747,1219,-1826,-289
2699,1045,5234,-1938,878,416,-1324
2700,-3760,-973,-566,318,520,-1477
2701,-7569,-7623,-998,573,822,-1369
2702,7405,-5730,7381,-1241,-455,769
2703,-6854,2250,-2333,-568,-523,1960
2704,4857,-654,-4990,533,75,701
2705,-5291,-4863,6705,746,-1742,-135
2706,-2433,3508,-2867,46,605,-591
2707,-2232,-1025,4516,1232,937,-529
2708,-7191,1932,1455,486,935,-1665
2709,7806,-5879,-4482,1777,-1878,-347
2710,-3942,-2064,-2471,-1421,1659,-276
2711,-7956,-1360,-3317,487,-50,898
2712,347,-411,1342,653,788,1381
2713,-6046,7221,1123,-467,1447,-247
2714,6541,7255,-3003,1034,-1990,-206
2715,331,6167,-4452,-1127,1505,-221
2716,-7972,-3580,7346,197,1658,1113
2717,6677,-7793,7054,1944,-57,-359
2718,-4235,2205,4409,-426,755,1742
2719,-762,4302,-7060,-923,-1852,-1416
2720,-2983,-6108,-211,1070,1160,-1506
2721,-5599,1711,-1739,1759,-1340,1040
2722,2736,-6567,4605,-1718,798,440
2723,1028,3182,629,-1250,1252,-399
2724,4439,-7691,7108,368,127,-1549
2725,5067,-3329,285,-809,-1570,-1336
2726,-882,-3005,-994,871,226,-1125
2727,4685,-7745,-3753,1319,-1549,300
2728,7512,6521,3231,-242,-1146,685
2729,4762,6974,-3925,-1303,1372,498
2730,7634,-3991,1816,1023,1012,-1015
2731,891,317,1472,574,-1402,-1965
2732,7275,7471,6449,980,1477,6
2733,5686,5610,6415,-1912,-162,-929
2734,-4157,-7347,-7207,-1056,1629,-575
2735,-5807,-1191,5820,-451,1959,-1382
2736,1507,-5082,-2368,1819,1335,-1818
2737,-2447,-1077,3026,-228,1754,365
2738,-6680,4256,7001,123,-977,-262
2739,1409,-2727,6435,919,159,740
2740,-1074,7005,-5110,-436,-482,-1495
2741,4426,6708,4250,-617,1449,-1740
2742,3393,2530,-1121,-852,-1850,-1513
2743,993,-1778,-2357,1863,-1896,-519
2744,-1217,7508,6198,884,-828,-1757
2745,372,-6970,4368,1950,963,-1199
2746,1134,4698,3125,-1684,-1728,1076
2747,-3766,2483,4116,126,507,39
2748,1000,-6840,-1314,-819,-434,-603
2749,2996,-6881,3639,1196,348,1320
2750,-7075,-3951,-2158,1888,-596,1089
2751,3812,7684,501,1402,1411,-807
2752,-7704,-145,-1400,-1818,-53,1260
2753,-7374,-5688,-7150,362,1575,-1270
2754,-7669,-1768,5317,1650,-749,587
2755,-2565,-1999,-3830,-773,-746,1182
2756,5320,-6601,3287,-1745,-655,551
2757,2052,2674,4159,1625,-77,-49
2758,6511,-2272,-453,-1970,-719,-1102
2759,5135,5723,-7691,1154,1246,1056
2760,884,-2437,3788,1903,-305,-19
2761,-6906,-2295,-3344,447,-516,273
2762,-3367,436,-5200,584,725,-613
2763,-6408,-2200,4064,-82,-1531,-1081
2764,6237,3853,-362,1219,726,304
2765,-3355,5089,7766,-870,11,-1014
2766,-449,532,1570,-693,-1742,1978
2767,1886,-2822,4428,1394,-891,-336
2768,-6151,-3126,-4021,18,1640,738
2769,-6909,4137,-416,-1257,-1081,1645
2770,7246,-783,-1023,1431,1872,1134
2771,3477,-526,1417,-881,1315,-947
2772,7702,-4873,7539,-621,700,345
2773,2146,6856,2073,-1249,-180,-653
2774,-4403,-1181,-6405,145,567,-1940
2775,6441,-6799,-4143,-759,-1285,98
2776,5903,5121,4276,-193,1733,268
2777,1541,-5446,-1495,-1388,-1402,-236
2778,3209,-463,4308,1508,21,-139
2779,-95,-6982,5594,968,-836,1729
2780,4518,7512,2785,1988,-1599,-1400
2781,7528,6025,2714,1670,-1654,383
2782,-6616,-2050,-7634,820,315,1498
2783,4304,7335,-6539,-690,1333,-993
2784,-1626,4375,6517,-757,31,920
2785,-4553,-6795,-2540,-769,445,-1485
2786,-7149,-6625,1200,1282,930,626
2787,-7800,863,7132,450,-1614,-1059
2788,5196,-1992,2161,-1662,-602,149
2789,-7334,-3661,4153,274,832,-1187
2790,-7556,7104,678,-1724,-1654,-1969
2791,650,2937,7758,1971,686,1822
2792,-115,-7642,-2328,264,-1814,-1215
2793,-1205,2037,7635,-575,-1460,1676
2794,-5212,2566,5205,-1336,1332,-1920
2795,-5763,6950,-7243,497,735,-1244
2796,-366,663,-6616,1845,378,1242
2797,-986,-3928,-208,-605,1408,1346
2798,1928,1215,-1313,844,-1957,-233
2799,2686,-5001,-6436,-616,-792,884
2800,7362,6882,-517,1213,-1681,-1084
2801,2828,3101,5321,-92,1432,-1610
2802,4176,4324,-6150,-1089,191,-1328
2803,-2839,1927,149,-620,-574,-1400
2804,-4213,724,1219,-113,1919,-616
2805,-6146,-2559,3610,-1620,390,1392
2806,7491,-7074,-3949,-136,126,-694
2807,7462,5514,3826,-1230,-577,1055
2808,-6262,2471,99,1583,-721,34
2809,-26,2015,-4129,1845,-1313,-1045
2810,5640,-7810,-1911,461,-778,1888
2811,291,5335,-6172,-148,14,1684
2812,-537,1209,3535,-1159,1026,-1324
2813,5423,-7018,-7270,1533,1210,921
2814,979,-1409,-1630,-923,1344,-242
2815,811,1906,1942,114,-559,-1105
2816,7903,2398,-1904,-1924,-976,1269
2817,2454,-626,-7454,514,-533,-604
2818,-266,1268,-5607,638,-1389,-1414
2819,6330,4835,7434,149,87,1470
2820,3444,-1367,2533,1708,-1157,449
2821,-2094,-3746,2768,-1131,-1377,1681
2822,-1829,7356,-6661,-1650,-1348,714
2823,-1322,-1108,-2252,-840,-562,-768
2824,3688,4690,6916,-1155,-645,-897
2825,-2208,-4081,3466,-548,-219,-1483
2826,-3647,-1265,-6889,1847,872,-375
2827,-6532,7506,-5785,-1110,798,779
2828,1293,3854,-6911,-1209,-1245,-588
2829,-3462,849,3653,-260,406,384
2830,1879,7431,-197,578,-1848,511
2831,-6894,-6946,-4444,-1996,455,170
2832,-5184,7833,5883,536,-1476,568
2833,3017,5721,-2790,-1795,1966,199
2834,-3334,-3913,2770,-1132,-918,-523
2835,-4080,655,2782,730,-1051,-143
2836,-1965,-3086,-7328,258,702,-1295
2837,-4324,-4382,-6542,-1302,-475,-29
2838,-1118,363,-7562,1146,1432,94
2839,-3179,-1078,5588,1916,670,1054
2840,-2815,-3274,7425,-121,-208,-1015
2841,5629,-7863,365,190,-754,1033
2842,-6156,-6780,6574,-1918,1449,1177
2843,4273,3421,-3313,-881,90,1249
2844,2036,3066,6832,173,-1498,-900
2845,-4831,-5039,-2347,1751,-1189,-764
2846,5590,-4384,4343,-1331,1260,-251
2847,5579,-4550,-7242,-539,424,1545
2848,-7392,-1002,-3950,-232,1665,-107
2849,-6064,7304,656,-994,-639,-1789
2850,-2978,6753,-6608,1840,-207,577
2851,-503,847,3621,1887,-317,-216
2852,6789,6882,-4117,-891,-1108,507
2853,-7455,1433,-2256,840,-1777,-265
2854,4695,-4432,3515,279,-1305,-1327
2855,1128,4152,-946,6,-331,-1121
2856,2585,-1288,-3895,347,-1276,-1200
2857,5812,5381,2301,-611,1911,-1885
2858,-6121,-918,-3077,907,-1612,-1087
2859,-325,2787,1940,-1337,-812,-191
2860,-534,3604,7507,1360,-342,-1162
2861,-3857,2196,-2003,-526,-375,245
2862,2758,-6539,86,-839,1605,-284
2863,3315,-1762,-5819,-905,-1030,-1780
2864,-1245,1839,-2150,1829,1195,-1172
2865,5809,-5646,1255,-1214,-169,1964
2866,4130,-4744,-6536,1191,-1427,1857
2867,-1500,2950,-5330,1446,-1290,1182
2868,3370,5355,4693,492,-1062,482
2869,-6485,674,5156,1876,792,-598
2870,-701,-566,1168,1956,604,-1347
2871,4547,347,2272,571,133,1201
2872,-5657,-799,-4709,-451,456,-1112
2873,-6949,4473,2915,1652,-334,1685
2874,-5720,4544,-5662,615,-262,1853
2875,-7134,7663,6569,913,800,1952
2876,-7947,-1126,-6337,1491,3,1417
2877,4475,-7716,1196,1969,731,704
2878,663,-3243,6506,-795,116,527
2879,7422,-43,3456,-1344,777,-434
2880,-7632,6089,-2219,-1329,1537,-1064
2881,6873,-1326,3936,-430,-172,-1390
2882,2516,-3433,-5358,492,935,872
2883,-6112,-7597,-2834,39,106,613
2884,-4128,-202,-7702,1780,1665,621
2885,-7790,6972,-6741,-1280,1925,1158
2886,599,3313,-2671,-1814,1100,-1555
2887,3192,6303,-4405,-353,-178,-167
2888,-5149,-7199,2247,-1321,1373,-48
2889,1887,-528,1560,1568,1623,-778
2890,1659,22,3460,-444,-677,-895
2891,-2583,-4007,4408,-1086,-1407,-250
2892,-1790,-2242,-6953,871,1003,-507
2893,3804,-572,-5179,1284,396,1062
2894,1515,-7613,-7213,499,-1393,851
2895,-1429,2513,-3151,-1336,1431,426
2896,2886,3897,7510,1566,-1704,1341
2897,-7095,-774,-4121,520,-1868,-1246
2898,1214,7485,6742,193,11,-1666
2899,-2793,3147,-3681,1594,-1375,1495
2900,2305,6922,-7779,-908,-604,-788
2901,-83,-5541,27,-453,-902,1597
2902,-7527,1140,6489,-1836,-330,89
2903,-5685,7866,3524,655,724,922
2904,-387,-7341,-6597,1518,1802,1299
2905,-4888,-4330,241,-1580,-25,-1510
2906,-6946,-3117,-4120,878,-1831,122
2907,-5343,1087,2389,-1775,-27,-810
2908,5697,769,442,-181,-1468,-1372
2909,-1250,-5674,-1993,-218,-1394,-351
2910,5538,-3829,1143,1125,-851,-545
2911,-335,-3331,2780,1924,1929,-1942
2912,910,2365,3852,-193,73,-1920
2913,-3015,-3948,1720,-1141,-1253,-1061
2914,-7985,-7498,-2352,-883,-1319,1289
2915,3504,4659,-7590,940,-238,439
2916,7759,-7006,-6307,-36,-1089,-1142
2917,-2547,-6253,-5098,197,1294,-560
2918,4165,1385,-7401,-430,-1947,849
2919,5539,-2056,5521,-147,-1566,272
2920,6392,-2105,-7918,1482,-1959,1463
2921,-1036,4672,7848,-712,369,-1531
2922,-4191,2774,3469,1498,601,1446
2923,6665,6722,-1679,-301,-1612,1235
2924,4722,-5296,7829,191,-723,345
2925,5236,-3944,5614,-1361,-334,1568
2926,-381,66,-727,261,-1807,-219
2927,-1514,-1048,6009,-24,1945,632
2928,3888,-5670,-144,70,-1009,1258
2929,2126,-6046,3200,418,-1653,-402
2930,-7888,-2238,-3361,-452,-744,133
2931,482,3843,7248,519,-1498,-1980
2932,5704,-2447,849,1087,377,-1631
2933,1659,-5493,191,1231,975,238
2934,-7187,-164,610,-500,-1158,514
2935,-5220,2542,3242,-1565,-1159,-1472
2936,-3709,6252,1345,99,-606,-681
2937,6764,6008,6773,506,561,-445
2938,6909,-2498,-316,1954,-240,427
2939,313,998,6039,436,-1475,-149
2940,-6576,-5469,-5266,1428,1030,-1619
2941,-7181,6945,-518,287,877,202
2942,-3291,-4669,917,864,-1975,1689
2943,-2100,-3336,-4917,-210,-644,404
2944,-5697,445,5008,1863,-134,-1623
2945,7632,-2398,-4858,-266,612,1257
2946,-4824,-1992,-526,-1999,530,211
2947,6008,-2613,5240,1388,960,-1744
2948,4879,-6357,295,88,-120,678
2949,4083,-2044,1948,918,469,-1043
2950,7977,-2045,-2049,-1719,665,-296
2951,7311,-7276,-7480,-186,-1799,-1251
2952,-1260,2408,7943,91,-188,1276
2953,2972,-428,3085,1769,1142,252
2954,-5904,837,7270,17,915,-355
2955,3394,798,3259,608,1388,1465
2956,-6256,5859,-6024,935,1561,-1657
2957,3560,305,7198,-1237,175,261
2958,5128,-2009,-1778,-1460,-733,487
2959,550,-2004,-1366,-1792,-976,-918
2960,-5766,-1479,-5787,164,863,186
2961,6746,3302,-6050,1141,224,-1184
2962,225,4053,6824,-961,892,1925
2963,344,-4806,6633,-1574,632,-903
2964,2086,-4710,-5123,563,320,-1752
2965,1083,-1165,-4831,742,105,-205
2966,2379,2678,-4215,572,-1543,-738
2967,1183,7625,-2841,1106,-700,657
2968,-5241,-6665,-4463,-862,177,140
2969,-7550,7427,-122,-1154,1139,-1065
2970,-2301,-7805,-4413,-1490,1939,-1521
2971,4449,7890,-6100,-1695,-720,-1856
2972,-3726,-7265,-1569,-1530,276,-803
2973,-261,-2056,6060,-1840,-617,-1531
2974,-6038,7414,2148,1445,-813,-1218
2975,-2118,-2867,2021,-454,-1336,1882
2976,4738,-5520,472,1924,298,1882
2977,1572,-7346,6700,-796,1711,576
2978,-4675,-3110,-2550,1577,1432,-640
2979,-5252,6354,-6362,204,-1387,-990
2980,2128,3313,-1719,-1144,144,1703
2981,750,-6440,-5509,1351,431,-11
2982,-354,-630,4048,1186,772,1886
2983,-2591,-3247,-4907,1464,-309,256
2984,-5149,-2587,-2290,240,-1381,-887
2985,7580,-869,2870,-13,577,-923
2986,-3230,7811,-7673,531,-234,1164
2987,6768,2955,6034,-1988,728,-1815
2988,812,-265,-5801,404,-29,1199
2989,5050,1968,1404,-1446,-1820,-1169
2990,-3189,2593,3465,1053,-290,-1682
2991,4672,-7041,3431,-613,-167,-1445
2992,-6738,2241,3430,-292,-55,1140
2993,3135,1727,3921,1432,1636,-132
2994,-350,-2448,6816,-224,-872,1802
2995,-205,-1535,2277,-707,1943,-954
2996,2219,-1789,-5343,-888,1501,-125
2997,-771,-3711,7051,1142,-472,367
2998,-1108,7868,7316,-842,113,997
2999,2029,4317,-4211,1299,-223,-331
3000,-1854,-5638,1596,1146,-1011,-1450
3001,-2245,5499,-4663,-1418,1718,1567
3002,2476,3830,-5139,668,281,-1799
3003,-5491,5076,-441,-451,-1658,-105
3004,-6051,-4794,7814,923,-1308,1170
3005,-5415,2888,3650,1851,1139,-1227
3006,6659,5714,-5065,679,-1656,-1457
3007,7512,-4333,3136,1821,602,-359
3008,-3739,2260,-7082,1794,-1451,-1239
3009,-684,-384,-2778,1169,282,143
3010,2503,-114,-4987,-468,-919,1312
3011,-7069,4639,3594,-495,1084,-554
3012,-2330,-402,5533,-1184,32,-1785
3013,-3470,-5770,7841,-1839,-1315,866
3014,-1896,-5212,-7964,-682,-1951,-1292
3015,5630,-3084,4207,-1429,1880,1519
3016,6097,875,3175,-1843,-367,-1744
3017,-4262,5442,6299,649,1379,-752
3018,-6075,-5477,-7176,169,-1109,1460
3019,4357,-4146,1359,13,1512,888
3020,-4913,-1472,-1821,-480,-1301,-1442
3021,3648,4451,-630,-1919,847,1691
3022,-5709,-372,7306,-782,-837,770
3023,6526,4533,1115,443,879,-1286
3024,-5851,4314,1506,-1293,903,23
3025,-4164,4988,-7856,954,-338,-1441
3026,-7438,-1114,2300,-1833,895,396
3027,-139,7453,4223,-920,-1633,-1047
3028,434,6699,-375,-857,-1520,354
3029,980,4736,520,-279,709,41
3030,-6791,3595,-27,-1104,-206,-201
3031,5321,-5848,1617,-959,1534,-1071
3032,-2183,-4713,3143,163,-1046,392
3033,-2073,3829,-427,1323,1579,-1642
3034,3176,-427,-4977,33,715,-1422
3035,3957,7793,-376,1064,-1321,-1122
3036,-610,-4386,7459,1017,1353,1048
3037,4478,1004,-360,1583,683,-20
3038,-3226,233,-2296,-1214,1154,-232
3039,4901,-6567,-1575,-894,-795,318
3040,-1579,3364,-2921,-1499,1883,-1485
3041,-2927,-147,-3772,-1184,-851,-1252
3042,-5063,-4462,2473,-1171,-1032,-109
3043,1380,6288,2464,1134,-743,-695
3044,-954,6955,-6192,1256,1312,238
3045,-5232,6010,-4666,611,-1774,-1534
3046,-1713,7658,885,423,1352,401
3047,7644,6755,2579,1446,990,691
3048,-148,4710,6796,1685,-1003,-1945
3049,-7030,-2165,-6844,-567,-1242,-1331
3050,555,-6847,4369,-1867,-352,-778
3051,1859,6199,-3407,380,-969,610
3052,4892,-1058,802,-688,1096,901
3053,981,-5119,-1727,1206,-158,246
3054,-1218,-6516,3037,-779,-1825,1349
3055,-5394,-7350,-3804,-975,-281,1103
3056,-815,6914,-4837,1888,1949,-1613
3057,-2488,-5833,-6963,1252,-1942,1849
3058,2718,-135,-6591,-386,1038,1029
3059,-7686,2836,4488,1818,-1481,-1734
3060,7203,-1624,-7264,-254,-1781,458
3061,-4990,-4443,2251,709,17,596
3062,-6095,-3832,-4731,-1318,1361,1417
3063,-2975,-187,2520,1274,-680,-1094
3064,956,-7094,-1681,-1094,-290,577
3065,-1746,5409,-7948,989,1261,822
3066,-4109,-6956,1141,-1863,1315,-360
3067,-5243,1814,5838,-1562,966,128
3068,-2571,-6402,-488,-308,1220,-1025
3069,1969,-2844,2820,-1741,1644,-874
3070,5911,-6863,-625,-1384,90,-1777
3071,-7043,5515,-7483,-605,-153,-852
3072,-2402,-1673,-4498,546,-221,-1030
3073,-2208,-1925,-4357,-305,-1038,-1246
3074,-7308,7648,2101,-333,574,701
3075,-2176,7409,-535,-903,1407,857
3076,-3053,-2712,-6432,-1474,-1771,-67
3077,-7671,2954,6350,-1639,-733,1702
3078,-3425,-1863,1392,1971,-966,-1586
3079,3673,-1472,-6375,-109,1047,-1065
3080,5952,2498,4398,598,1766,760
3081,6564,-6761,-4558,-376,1980,762
3082,4961,-115,-5622,-1516,-1877,228
3083,1470,-3866,-3822,861,-1302,1677
3084,3063,1950,-6909,-516,454,621
3085,-205,5018,7001,418,1540,772
3086,5015,-5040,1423,1569,-426,325
3087,-6450,6596,5389,-297,689,-1752
3088,-7761,5753,2181,998,-563,1036
3089,-7567,7218,-2094,1940,-720,-841
3090,-5758,5812,-7013,-469,1308,1393
3091,-3720,7875,-1978,968,-546,-1067
3092,3691,6735,1650,-426,696,-1432
3093,70,7397,6699,-317,1179,400
3094,-4805,4616,-3921,1084,710,1514
3095,716,6733,-907,-451,-1414,-1409
3096,1754,1191,135,1293,-1920,682
3097,-3220,2463,4334,1885,-307,1095
3098,-673,6072,2826,1569,89,1574
3099,-270,-7414,1884,537,-1500,-36
3100,-2456,-4961,1036,-1805,-270,-843
3101,-5628,-5108,-1313,333,-1671,-1530
3102,3030,-4884,-1232,480,-1020,-397
3103,-4792,103,-907,1208,115,-1569
3104,1198,6095,6267,252,228,-1636
3105,6784,-6542,3645,411,-653,-403
3106,-7234,-4106,-1461,-1668,445,-625
3107,-5364,4568,-2328,1491,161,364
3108,-3055,5936,3210,1498,-248,-1183
3109,-4473,1229,-2551,261,-1402,-1366
3110,-1759,1207,-181,1664,245,1865
3111,-4370,-6774,-6074,1618,-434,-239
3112,1871,-1884,-6967,-390,1161,190
3113,127,-761,-993,-1251,-244,91
3114,-3297,5729,-2301,1350,-885,662
3115,-2243,7603,-42,-1495,1699,500
3116,563,-4287,-2266,756,-1798,-1713
3117,417,-2094,-1266,1814,706,-34
3118,-5073,6338,-7872,383,-1645,1790
3119,-2906,2827,-1346,1941,1966,-1754
3120,1839,-4800,5039,393,69,850
3121,2152,-7368,-3427,9,448,-1516
3122,1072,3204,7191,1996,-491,-1168
3123,-4992,-2652,-3484,1493,1411,1642
3124,-4330,-6936,3790,1674,513,-685
3125,-3241,7679,5174,1,-1975,-724
3126,4494,-6866,-1090,-1978,-785,-1308
3127,1159,-4232,-7677,-1660,1082,-1855
3128,5203,-5640,4341,-479,1749,1353
3129,1178,-3902,-6936,-1720,-833,1243
3130,-992,6874,-7055,-1025,11,1450
3131,-2220,-3931,-5781,-1312,-1057,-1115
3132,7631,7301,-624,314,1739,-1073
3133,4809,7894,785,523,-1758,-1539
3134,-1483,3877,-3502,-393,-1222,1587
3135,1572,-3896,-3184,243,-667,19
3136,5676,-7375,104,896,-1800,745
3137,4482,-4090,2097,-1377,-971,-765
3138,-3367,-5635,679,1736,1697,-1933
3139,-6334,633,35,1517,1417,-360
3140,-7313,-5381,-7366,1656,-662,-979
3141,-2842,-5090,3038,256,-851,1225
3142,4556,5411,-4710,-999,1389,1324
3143,-7084,5937,-7859,-56,-1503,-1359
3144,-1012,-6087,4407,-243,198,-378
3145,2063,1223,-2148,-1284,-186,494
3146,-3836,726,-555,1774,-1756,-1270
3147,5179,1030,7212,-1662,-217,1637
3148,4043,3162,-5794,-1617,32,524
3149,7490,-7180,-284,913,355,1142
3150,5867,6985,-1762,-1745,-1350,1908
3151,-73,-3741,4371,1495,1588,-543
3152,-6237,5298,-3885,-1887,-40,-593
3153,-509,-408,-4713,-1899,1452,1914
3154,5317,-2680,1217,-895,231,667
3155,-3211,-5510,-3362,366,-1588,-378
3156,6556,1710,5769,1281,-334,-357
3157,-6069,-6865,-6320,-1433,994,1975
3158,923,-5005,-514,1959,1910,-27
3159,-7827,4858,-2359,425,-1446,1331
3160,6797,4625,4355,-202,-1707,559
3161,2683,3337,1511,1710,-136,-663
3162,-4684,1969,2372,-78,-493,1960
3163,-2799,1265,5033,1531,-1149,-1476
3164,-3355,-7897,4857,-1098,1789,509
3165,-3490,6229,-5910,918,-621,1251
3166,325,-2267,7766,-737,-1083,-1053
3167,505,1025,2536,-1830,3,-284
3168,3260,-3154,-6657,-508,639,130
3169,-4878,6489,-5045,994,-1214,-698
3170,-4167,7799,4884,-1308,-304,-182
3171,-3323,3991,1635,-923,-1329,1512
3172,4204,-3088,6558,1418,1669,205
3173,2442,6306,5481,463,1911,-333
3174,-3898,-2368,-5304,-1252,310,127
3175,-2710,-1250,-1230,-1677,1505,1477
3176,-6049,7013,2663,1426,-1235,-1233
3177,-7378,68,5269,-1757,760,-150
3178,-7658,6665,-7501,1983,-839,-571
3179,-582,1172,1258,719,-1594,222
3180,-6305,-4120,3771,-1433,662,-1576
3181,4857,1194,-1936,5,-827,-1893
3182,3187,-5164,-6744,-1526,-1209,1389
3183,-7992,-5311,-1263,-1026,1401,-1644
3184,3661,1997,7158,1469,-1996,-1864
3185,-4228,5435,-262,-869,1072,623
3186,47,-1005,5688,-989,-784,1991
3187,4438,2975,-2617,1523,1389,1775
3188,-1464,-5383,7283,-805,-1733,-731
3189,6922,-1951,1917,-34,-23,995
3190,4774,6619,7461,-72,-747,1545
3191,-759,-2274,-7556,-430,1231,1492
3192,1412,-3223,3388,-1656,401,1950
3193,5588,-7086,6993,-1725,-500,12
3194,7339,2066,4002,-667,-1540,1390
3195,405,-5093,-2622,1145,-150,1565
3196,782,-3042,-279,-1823,13,-593
3197,668,2389,-2734,1958,-1247,1823
3198,-5000,6608,5852,945,1631,1835
3199,-7872,858,-2466,923,977,-17
3200,2745,-7158,-2474,78,1559,-539
3201,-523,2541,-814,-1048,24,510
3202,1257,-6665,2342,1701,-1356,-1055
3203,-4867,-2103,-931,-624,-224,1444
3204,-676,3070,6783,1090,-803,398
3205,-6094,47,38,265,1815,1200
3206,4581,2246,-7099,-250,508,-47
3207,5938,3818,5261,40,-1116,230
3208,7224,2535,-4885,-1030,-689,-595
3209,3578,2141,-2038,1454,386,-1359
3210,139,7378,7557,-832,-1275,500
3211,-3662,-2379,-4797,-1722,1130,-1358
3212,-145,5426,-995,-662,1950,-1935
3213,4439,6080,-4535,973,-1098,646
3214,7354,-779,-589,-1782,-241,1703
3215,7897,2642,-5574,-1454,-453,1238
3216,-7997,5777,3676,123,-1193,769
3217,-7424,2576,7719,-35,1286,-814
3218,278,-1002,322,-510,54,247
3219,-2590,7321,-3036,643,-874,-1702
3220,2885,3397,5060,210,560,232
3221,-1139,-1365,1666,-1868,1654,-484
3222,678,-577,7984,-1198,-1800,-561
3223,505,-2391,3133,-174,-300,1656
3224,6057,-5708,-618,915,-1231,1199
3225,-5671,-5837,6441,1849,884,433
3226,5465,-5486,-935,-1341,-1095,-207
3227,3056,7072,-4674,772,-705,1233
3228,-4091,7418,4448,708,-144,-1480
3229,5900,3505,4553,-47,-1578,278
3230,5248,3328,-4098,317,-206,-1122
3231,1616,3222,-4850,-537,241,-768
3232,-899,2816,-735,-1700,1510,-1915
3233,-7176,5137,-6053,633,-1606,-1938
3234,3493,-6044,1564,1650,1615,1910
3235,-4230,-2040,7200,555,-1557,-1933
3236,7420,-6425,-6841,1224,472,-976
3237,-3437,7126,7082,-97,-77,276
3238,456,-1778,4309,1730,-1969,-1342
3239,1702,1582,5687,-320,1221,135
3240,-6514,5185,2713,933,-1925,178
3241,5198,-175,-4965,1256,-326,106
3242,3593,-3089,-1193,-621,-1345,-706
3243,4710,-709,-5018,524,-861,-15
3244,3103,4034,1685,-1519,536,-491
3245,-3252,6053,5675,367,874,628
3246,-5486,-7916,-625,-1032,179,-650
3247,-5416,-5744,-7038,413,366,1544
3248,-3530,-7726,3684,30,1643,1468
3249,4464,-3174,42,359,-581,963
3250,-3236,-2429,-3580,159,-1703,-886
3251,-1680,7365,3642,1605,22,-1834
3252,-7183,1560,674,1400,-513,-1175
3253,-4934,-2173,5590,1185,1773,-1525
3254,3124,4155,135,-1188,-886,-915
3255,7086,4165,-4805,-530,-281,-606
3256,-6812,5180,-4434,-1727,701,1009
3257,-4983,1171,-3915,500,1669,-1632
3258,-7205,-5261,4655,-826,1348,1947
3259,-5208,-7710,-1509,1521,1866,97
3260,517,863,7140,1071,-631,1127
3261,-7333,3185,-1137,834,-438,480
3262,5060,4215,6821,-440,1620,965
3263,1347,5652,3863,-1195,-228,522
3264,5044,-1501,7006,1586,1018,-867
3265,6330,6318,-5781,-1806,-1209,-1967
3266,1677,-6799,1244,-619,-489,-1907
3267,-4025,-4477,-979,231,1144,-1903
3268,5363,-3114,-3733,-860,1821,673
3269,2140,-7477,6724,-763,-1911,-1672
3270,-765,5686,7253,914,1181,1713
3271,-797,-6030,5518,1681,-730,216
3272,7449,992,7272,1115,-1547,-653
3273,7076,-5805,-3069,1097,1523,367
3274,1903,6956,2880,-129,-1256,-276
3275,1310,-7542,4470,-1763,-1276,-665
3276,7201,5581,4551,-1585,384,1495
3277,5599,7814,-5283,-1381,-646,-1078
3278,138,-109,2820,-660,-949,488
3279,1057,4847,-695,-334,-1530,1973
3280,4894,1020,-6326,1232,-133,324
3281,-4155,2256,-235,-1805,-1814,-1360
3282,-2475,-2074,4352,-946,222,-746
3283,4727,4563,-4190,-1464,-1345,1033
3284,122,-2719,4230,1447,-688,1852
3285,-2760,1581,6452,675,-303,-177
3286,115,2719,-4781,-570,1456,1326
3287,-3683,4908,-1267,-823,1570,-1907
3288,-5039,-3167,7289,83,-315,1400
3289,-2049,1062,-5231,415,-1506,1711
3290,-6079,-1867,1328,-459,1991,-789
3291,-2867,-3135,2590,-818,-206,-582
3292,1628,-1255,-5033,955,1352,-875
3293,-2666,342,-6341,1923,1129,1799
3294,-7045,2863,-4479,-1656,877,1290
3295,4607,5822,5420,925,921,629
3296,-1625,341,-2662,-44,-262,-1672
3297,2880,2829,-6180,868,1843,-1146
3298,-1909,957,7427,-1829,164,1918
3299,995,4828,4608,677,-1649,-1278
3300,-3901,-3444,6527,-909,367,-1611
3301,4664,-1548,3686,-1206,501,615
3302,-5252,-1284,-2398,-1448,-1949,1512
3303,1488,-6875,6412,1639,-47,-794
3304,-4427,-3715,-1340,1584,-1932,1572
3305,-1763,4961,5763,-1810,1158,-945
3306,5799,-2393,-7488,-1409,-223,323
3307,3160,7034,2483,-732,-395,-485
3308,-6960,5695,-1578,254,1586,-679
3309,-4550,2659,558,-381,-1673,281
3310,-1277,2348,7425,1615,1935,-622
3311,178,-6003,-5997,176,-362,745
3312,-6073,2950,3302,-1263,-1574,470
3313,-2277,1228,-2329,-14,665,-206
3314,3724,-522,-67,-1196,-1638,1937
3315,-6314,3101,-6951,1396,-822,1927
3316,6617,2953,5144,-489,1985,627
3317,4507,-4211,2024,1394,-462,119
3318,6830,2652,-3210,216,45,174
3319,3454,4710,-1080,1252,-931,177
3320,4603,-3634,-5978,646,1906,77
3321,3181,6565,4689,1257,1329,-1811
3322,-6693,1665,-4625,530,1392,-1153
3323,-3468,-1725,23,282,-727,918
3324,-6244,4580,-3058,-456,-1204,-75
3325,4216,6659,3379,520,-649,-1069
3326,-2284,4499,-3805,-1392,-302,1491
3327,-6369,-582,-4700,1654,954,-434
3328,3309,-2114,-6381,-749,130,978
3329,-108,-5738,-5588,-1825,-1503,1823
3330,-1162,-1519,2079,-1709,-481,-1046
3331,-1455,7887,-4454,1259,184,1949
3332,4520,-6920,5902,-783,-466,-651
3333,-4560,-6434,-3694,-678,1264,1418
3334,-3449,614,-6648,-1979,-891,356
3335,-1222,-504,7144,-1821,721,637
3336,4218,4215,4815,1665,1127,1726
3337,3101,-2707,5212,1317,1733,-1842
3338,-5333,2398,-1107,1937,-772,-732
3339,2455,776,-2081,-767,728,181
3340,7495,-745,6036,-1586,-1536,-326
3341,5726,7944,5830,-665,1684,-773
3342,-1931,-2075,7607,-1767,481,1832
3343,-5586,-1230,-402,455,-1984,1306
3344,-6838,4236,-2799,-484,-1352,179
3345,652,-2363,-2721,879,915,1507
3346,4603,-6676,-4263,-1245,-1224,1224
3347,-2269,3360,4135,-1490,-549,1099
3348,-4224,3405,-2648,773,-1494,-1893
3349,3792,-5543,-6503,1704,1035,1786
3350,-7009,1034,4247,-1975,-230,-705
3351,-3266,-5918,6683,1522,751,709
3352,-5465,-1953,3057,1177,-539,-1030
3353,6035,-5572,1741,370,1553,-350
3354,5231,-3767,-2117,1671,519,307
3355,2491,2039,-4691,813,-64,-1301
3356,-7462,4813,-7221,1381,1979,282
3357,5188,3340,2568,991,-524,-380
3358,3569,-2062,-5636,540,1578,1654
3359,-7433,7599,-362,-733,1574,-52
3360,-6662,2834,1304,-1319,468,949
3361,2189,2075,7814,-1373,724,929
3362,1764,2836,-219,1631,97,-1671
3363,2151,2245,7521,-1629,1268,528
3364,-5491,-3805,6642,-704,1459,-904
3365,-4923,-5442,-3069,-1741,-332,-1885
3366,-36,-3921,2709,1743,760,-1837
