Sample,Ax,Ay,Az,Gx,Gy,Gz
0,-3052,1114,-5818,1074,-1217,1501
1,600,-921,6079,-1763,-672,1528
2,-6976,5734,2024,-993,-881,634
3,-3221,6264,7802,-1847,191,-1455
4,-4761,-4497,5700,658,884,-1407
5,-4910,2084,-372,-1029,731,-88
6,7260,5429,6055,1338,1102,-1682
7,-3678,-3021,319,1707,1466,-501
8,3745,5963,6997,1667,771,-841
9,5669,-3947,-6959,421,-853,-1854
10,2256,2711,-7537,-655,1267,719
11,4246,-1764,5372,111,-1229,629
12,-3884,3116,3424,180,684,-756
13,-7810,7864,4567,-990,-182,-1496
14,-5298,-3989,-3536,628,-204,-662
15,6511,-5880,178,1077,846,-625
16,2935,-201,-715,-1493,1850,454
17,4347,4926,4400,-1539,-923,1209
18,7095,6657,-6524,1024,1967,-556
19,5935,-4770,4408,1385,-111,832
20,-366,3098,1888,375,1424,1784
21,-7653,-6609,-7283,172,-596,-300
22,-3992,-2110,6673,-587,-1394,780
23,-4382,7482,4890,-301,-1730,-1940
24,-7493,-237,6985,1825,452,1633
25,7173,7314,-6234,713,-603,-1761
26,218,-6353,6698,1964,1046,148
27,-3368,2320,-6052,-708,599,562
28,973,1066,-7987,1893,-249,-1590
29,6808,-2911,-951,1247,-1723,320
30,2246,4523,-1111,767,-1924,-1909
31,-3617,-7098,-6880,-1359,-36,827
32,5873,3332,-5521,372,1615,-468
33,-2417,-4396,3937,-1032,249,333
34,6145,-3045,3816,-1823,-1958,-1068
35,6477,2268,-6830,-1158,1067,64
36,3651,741,5241,1423,425,-1386
37,7573,16,-43,1045,-690,-385
38,-4905,-7867,-515,-656,568,430
39,-1844,5992,-15,-571,501,-1129
40,7649,1750,-6316,-1203,1913,-1142
41,1682,-4526,-1548,1850,1870,1355
42,-5111,-113,2229,-1152,1494,-864
43,4894,6387,-4846,-491,1246,264
44,-2028,-4130,6446,-97,1983,1514
45,-2596,4442,1885,-1810,51,-1258
46,7044,-2619,5738,192,526,-1568
47,1556,6657,7183,849,1689,346
48,-2021,1848,1868,824,-1439,-734
49,-2810,533,-2411,-1340,1033,-1122
50,-2513,3541,2687,804,604,-422
51,702,5521,2720,349,1065,1385
52,7194,-3860,500,-226,-1261,-1294
53,1770,-7203,-3893,858,179,-1339
54,4558,-5080,-5477,-930,951,-1542
55,6016,-7144,-4299,26,387,-1521
56,-7154,2641,-5721,1086,122,-102
57,-4883,-7012,7895,1103,-982,-1724
58,-5545,5091,2036,-1865,136,25
59,-4117,-3557,-2384,-1383,632,1823
60,2896,5636,7740,-1126,-271,1590
61,7091,2297,7114,1913,68,1392
62,5074,-896,-1327,-333,606,-1323
63,-1956,-7885,1765,585,-1151,-1601
64,-5629,5622,-7220,-1861,1844,-1280
65,3704,2257,-2922,-281,-673,1065
66,-3366,-2846,-5671,-620,1315,1251
67,7739,-6447,4472,149,-1800,-280
68,-6943,-6475,2150,-1279,93,662
69,-6026,6800,156,458,248,-365
70,599,2353,-5465,1230,-905,-1176
71,-6016,3060,607,981,-918,-495
72,1799,-4051,7968,664,1382,723
73,-3834,3527,3914,1774,-1999,-1189
74,-5889,-4317,4778,-1484,-1066,-265
75,4097,533,5240,386,-2000,-1451
76,785,3290,6076,-845,686,-675
77,-4096,-5932,-3767,1296,-869,510
78,4372,1644,-78,1459,1865,187
79,-7952,3342,3902,-1984,354,-1603
80,1073,-2445,-2990,250,134,-1607
81,-3379,1253,-4506,-1149,-1314,-1014
82,-4959,3199,2322,-692,1202,1761
83,7561,5582,-138,-408,-1661,1725
84,-7816,60,-6877,-759,-1643,294
85,-1502,-3782,5346,-1537,-1649,949
86,-3752,-6238,-3775,1497,1472,888
87,6905,-7826,822,41,-1575,412
88,6365,-4972,-125,1962,-100,-1177
89,2462,-4437,2142,-1629,-973,-815
90,4440,-7593,-3405,-1998,125,-1829
91,-6179,4647,-2265,-94,-1149,730
92,-5951,6990,6359,-736,-211,782
93,2321,2569,1697,1799,-152,-1693
94,2527,2312,3797,-677,-930,-1128
95,-2775,6574,-6616,-1946,1347,488
96,-5660,7884,-114,-1178,722,811
97,-4623,-5379,4571,1850,-1634,854
98,-1226,-7515,-2867,124,-1515,-841
99,7941,4521,-89,-151,-1553,-1514
100,4487,4098,-7727,-1286,-1905,-1860
101,-753,-1878,-5914,-1482,659,523
102,-1260,-5312,6679,638,1774,788
103,-7840,-3799,7934,-135,-1729,461
104,-2607,3891,-3333,660,590,-702
105,-4341,-3133,3052,192,232,-243
106,-6848,-1652,7593,-409,1711,-815
107,3150,5685,-414,-1239,-659,-1557
108,-7816,6725,4899,1266,-1710,1093
109,-3158,1454,-6779,-841,-802,688
110,2220,-1218,266,584,-740,1255
111,1732,6045,396,872,1960,1846
112,4358,1458,1766,768,377,1336
113,-2180,-5353,6807,1678,-1622,849
114,-3337,-2550,1883,-586,1111,1341
115,6361,-2299,1790,375,-1000,1176
116,7392,3232,-6015,-795,-467,-1988
117,-4882,-2316,2761,652,-1372,269
118,-1625,5614,-7785,493,-777,-1227
119,3379,-1794,4076,-1885,-395,732
120,-3074,3997,-5566,363,1086,1516
121,6799,-1680,-1962,-606,16,-354
122,-2819,-1269,-877,-1975,758,-275
123,1521,-4995,-5321,-1499,631,-559
124,7962,4274,-3617,-1221,-725,214
125,6117,4109,-3492,-1377,-875,-1940
126,2945,3069,1542,-1768,1178,-1156
127,-3254,-6504,3716,1943,1897,-624
128,2173,-5915,7749,861,1248,-78
129,1539,-43,-4680,-1295,-338,-523
130,4150,-7015,-7603,-454,-366,-1778
131,-7872,3972,549,-1162,426,123
132,2678,-3674,-1103,1253,-1433,-1779
133,1189,-1788,5854,563,252,1397
134,3628,-6922,-2894,1179,-1986,523
135,-2747,-7922,7151,-19,603,-297
136,2520,5253,-1940,-1034,397,1696
137,-6268,1796,5533,-1298,1688,1752
138,4524,-4877,2442,315,-1037,145
139,98,-6387,5912,927,1244,-762
140,1295,-4655,3973,1017,-1524,527
141,7067,7610,5723,1560,-386,1099
142,5301,7439,7846,-42,140,506
143,7505,-1964,-7662,403,1797,-1570
144,-1156,602,3214,-416,1596,-925
145,3900,-431,-1843,1662,-181,-1636
146,-6636,5917,-6334,-936,-712,-1971
147,-4656,-7652,6815,564,-1178,-757
148,6680,-2968,6830,-825,692,205
149,-3430,7080,4677,-1446,1428,1966
150,3810,-2459,1188,1816,-1439,-246
151,-574,-5682,-3149,-1007,-964,-944
152,818,4515,-306,-532,-1026,-1397
153,-5656,2130,3988,-1404,1173,1743
154,-7772,1196,-1352,-104,-273,1561
155,-5835,-2406,-3336,-446,-950,-1547
156,-3944,4902,-931,1167,-127,693
157,4305,4315,-1720,216,1759,-14
158,-2011,-213,-2992,-751,1233,883
159,2229,-7486,1383,-804,1150,-433
160,5148,1592,-6917,121,-409,395
161,-756,-1882,-4956,1414,1335,-1775
162,2717,7286,7613,1020,1152,454
163,4842,-5912,-1321,1389,1655,1235
164,-1281,-1850,6133,1939,1196,1718
165,-1639,728,5232,366,-1760,1719
166,-7486,744,3039,479,-1421,1527
167,1126,2312,-3956,1390,749,103
168,-1981,3771,2166,1866,988,-1077
169,2009,3617,5973,72,-1318,58
170,-708,-6040,2413,-1026,-652,-1175
171,-6759,184,-6962,-1384,-90,829
172,2023,-4536,4399,-243,-310,1421
173,-1272,5907,4918,1218,-476,558
174,2110,3571,-7553,-427,-1387,1158
175,-4012,-6640,7807,-1171,-840,875
176,5842,4488,638,552,729,840
177,5008,5100,-5156,513,540,767
178,5814,5016,3838,-271,1228,884
179,6344,1376,2189,-1752,-503,-1954
180,5913,7161,5338,1963,-1499,-239
181,-3242,680,-6010,409,532,-830
182,-1495,3202,-7711,341,211,306
183,1320,4213,594,785,1991,257
184,-761,2223,-7191,-1925,1704,-575
185,-6165,-530,672,1185,-1184,-206
186,5365,1199,-2177,1302,-730,-352
187,5457,-1410,-730,-24,329,-769
188,3396,-7593,752,1097,559,1024
189,-1814,-1793,-4395,-58,-148,-807
190,1929,-6587,-6633,-1916,1019,695
191,-6609,-7956,-6781,1853,-778,-615
192,-1189,-165,-5936,922,486,1797
193,-5308,-4355,5567,-284,-1743,-73
194,-2212,1650,-6461,1917,-1572,1987
195,-7704,5378,-4027,-1286,1813,1779
196,4110,-7485,163,-465,669,-990
197,-7204,5897,-7217,411,1977,-283
198,-4912,1952,-1894,-25,-1881,1277
199,4921,7524,-2424,-1318,1033,1821
200,-7130,-1124,5064,966,312,431
201,-5063,3135,1532,1548,22,141
202,6943,7651,-4552,104,1361,-1872
203,-2490,4567,-4264,1460,-922,90
204,4219,-5803,-3364,-1572,-454,-1687
205,4417,1038,-200,-1976,1305,1472
206,-3637,-1136,6354,107,583,595
207,-800,2424,3233,-740,-1876,-34
208,7654,547,-4827,-1554,1305,171
209,-2658,5939,6076,-1933,-1159,906
210,-1783,4784,1436,1212,915,-1230
211,504,-5725,7238,1918,-690,176
212,-2009,581,-3445,-1177,-1787,-733
213,369,7651,-1852,117,1758,475
214,-2860,-4957,5431,1700,1768,-127
215,7625,2302,-4297,1356,0,-1262
216,3917,-4125,-7528,-1613,442,-730
217,-5543,-7920,2442,1643,537,-1275
218,-1479,-5609,-176,-934,-86,-622
219,-2416,-6455,-1233,1993,-1678,793
220,-4464,4178,2879,1128,346,1760
221,-4328,961,3839,622,-1040,617
222,-5257,5842,-3282,-1547,1914,-1270
223,7761,7265,6097,676,1804,-918
224,-5060,3840,-5684,1386,1827,945
225,668,7019,-4597,1492,1865,540
226,-2591,-1675,-560,1753,1402,209
227,5104,-1627,7014,-1535,-1322,-932
228,592,3219,4583,1296,1354,1711
229,7930,-2620,-1063,294,1840,296
230,-6294,-4070,4539,1798,1301,1818
231,-3118,-1249,-3515,-100,1257,-585
232,-669,-5056,-5531,-1822,1492,1655
233,-3378,5871,2832,-375,377,-1859
234,7211,3601,1023,-637,1784,-1001
235,-1408,7068,7429,1474,-1351,-373
236,6512,-4080,3043,414,-1307,189
237,-5334,-3303,-6241,1651,1270,845
238,-5665,7810,4242,-242,-1058,427
239,7299,-5374,5390,-653,1759,-44
240,-201,-6428,3324,-1603,-1651,417
241,3899,3742,-1634,558,561,-1382
242,-5868,6516,7998,1933,-1101,1041
243,-7706,-5310,2172,-696,725,1898
244,-6235,5850,516,-861,-607,1845
245,1797,-6079,723,78,1948,1222
246,-3669,-2496,-5916,-479,-21,-398
247,-6844,-5881,-7147,-1541,930,-764
248,-3352,6149,-310,-1422,-104,-310
249,-6884,-1791,442,1307,120,570
250,7192,4282,-6078,-469,-946,-1859
251,-7977,7937,-361,145,-472,-1639
252,-1854,-7652,-6957,1332,-804,-557
253,-3591,-2120,-850,1546,-1365,-180
254,1829,1741,-6502,1338,1319,659
255,-6835,-454,2860,-1496,-648,-1054
256,-7516,-3477,2020,181,88,-703
257,-1846,3562,3480,-462,-1059,-1788
258,1414,-3542,1063,67,298,1213
259,6698,-787,5076,-52,231,-508
260,6906,1451,146,1224,1173,-1727
261,2687,75,-4998,1142,1377,-996
262,-7873,3452,7237,-256,572,-414
263,6007,-1408,1794,1682,-149,107
264,-2954,6664,-2129,125,-154,-1720
265,7702,3018,-7275,1165,-1234,-672
266,3584,-1266,3818,-316,1317,-951
267,-5848,1036,1483,-555,-1376,-1356
268,-1500,5142,431,-1382,-63,-1064
269,6922,6705,4263,-374,357,1955
270,4348,2263,5919,-530,1972,-1778
271,4927,3094,1667,1420,-1496,947
272,6610,3283,-6282,1891,86,1151
273,-6171,4701,-1576,-78,10,-43
274,5911,-382,-6674,356,-1944,1416
275,2671,-2605,-5393,1692,1242,-983
276,-6152,1056,1539,-320,1128,-129
277,665,7662,-4012,-1758,-381,-777
278,4559,3473,7249,-677,545,-1996
279,3704,-3147,-3470,620,1645,1792
280,2357,-6600,-5890,-268,723,1496
281,6932,6911,-4284,-64,-573,-1986
282,-4162,-4213,2080,1599,80,752
283,-3663,-4914,7023,1621,78,-562
284,-7711,-7256,6931,-513,-772,-880
285,4371,981,-6193,945,1185,77
286,1470,-6685,975,-648,468,1739
287,-1382,7729,-7024,-1092,1001,-563
288,2249,712,5166,-1618,1964,389
289,6837,-5596,-3150,-1128,1043,-823
290,5638,5781,2048,153,530,-141
291,-3321,5732,-3567,1247,-1207,929
292,3476,-7643,-5035,713,-1454,1058
293,-4567,-2580,-958,370,-1731,0
294,-6653,-5014,-864,-1503,-1345,83
295,-7968,-2486,3886,-970,90,-508
296,1976,6621,-5411,537,826,879
297,4432,-4814,-7571,-516,1229,-581
298,-3527,-6905,-2594,-754,869,1348
299,2338,-4294,-1928,1752,80,-1654
300,-4574,-6399,1759,720,463,1662
301,4298,6718,-738,1966,-1943,-1796
302,4267,-3663,-7957,-1675,-1222,1722
303,-154,-7136,-1759,1606,-347,-462
304,7248,127,-4017,-1927,473,-736
305,6564,-4116,-4883,-796,-196,-1410
306,-1242,5413,2788,1630,1903,1822
307,-3458,1332,1634,109,-1607,1995
308,5132,-3275,-4539,280,129,1253
309,-796,-4476,4590,1284,-1210,-1829
310,-7361,-6778,-2349,-1144,-640,-1221
311,-4912,3522,-1463,-306,419,-192
312,-1148,6697,-6832,114,-442,448
313,218,5864,-5915,294,602,1262
314,-5410,888,-3341,1905,1229,-546
315,-7438,5825,7640,-1447,-1932,-887
316,3066,-7951,5605,-1949,370,-1492
317,7937,2442,2404,-935,798,420
318,-2294,588,2032,-748,-1456,-43
319,5233,64,4513,1135,-686,1264
320,3381,4595,5477,-512,1178,-344
321,2397,-2397,-3418,-534,-524,1474
322,-190,-5458,3223,188,1877,318
323,-5885,7913,-3106,-1579,-1249,-1463
324,2164,-2647,-2190,291,62,1789
325,4700,3939,-4080,-1944,-1519,-885
326,6514,5149,-6812,1859,1471,-1210
327,-4960,7352,356,1552,137,-1912
328,-6866,-1528,-283,-546,932,-1219
329,-3215,6595,-564,1980,1830,730
330,-5896,324,3612,-1599,627,623
331,-6115,-6239,-4881,-1631,-408,-1697
332,6977,3641,4812,1099,1487,-330
333,872,7430,-6423,1230,-228,-387
334,-37,-4167,4430,1896,307,-472
335,3223,-1159,5157,-1726,-650,-1808
336,-6301,-6360,-5897,1445,1460,1896
337,7169,730,-912,-1618,-1600,407
338,1974,-7634,3090,1957,1920,1294
339,-3454,258,-3546,67,-1349,-1132
340,4803,-4324,974,1776,1701,-1925
341,-5199,-6471,-4162,951,-1271,-261
342,-270,6963,-1219,-1088,-13,760
343,5287,-5284,-5430,337,716,-369
344,-6403,7709,6257,-1612,-1974,1244
345,6643,2032,1437,629,1004,988
346,5716,7631,-6572,-1641,1945,-1261
347,2608,3032,7218,-1443,1611,1888
348,5234,3263,-1710,-1518,-6,458
349,6442,1675,-4591,-429,-1792,1613
350,-600,2950,-5246,938,1872,1101
351,-6425,-7614,-4544,-1714,-1425,-1277
352,-3808,-6631,1138,-1800,26,-1543
353,547,3109,2114,-1018,644,355
354,-1418,-6947,5303,-588,-1221,1437
355,-7040,4414,6222,1038,1272,-957
356,-2103,-420,-6131,1018,-720,548
357,-6166,-3513,-3093,-1389,-637,269
358,2923,-4860,7838,716,779,732
359,-5091,-784,6224,-1817,-589,-1827
360,-1265,-19,6487,1343,1571,-548
361,398,3144,842,64,1225,-1269
362,-1558,6740,-93,804,1406,466
363,2585,-6366,5988,1673,677,-759
364,-5988,-5573,-6240,1995,733,1863
365,-3207,7729,2200,-265,-295,28
366,2272,-5210,4418,110,1343,-1157
367,-3766,6743,6871,-1065,-175,132
368,121,-3312,-2954,-401,-1719,1317
369,3675,762,6198,-1920,786,1474
370,484,-6383,-5967,-1370,778,1465
371,6781,-4930,1052,355,291,1112
372,1778,-7088,-1715,405,-1231,1244
373,-7988,-3720,-1205,-1758,-1746,1800
374,-3764,3980,2362,-827,374,256
375,-6268,-5396,4719,-278,-1722,925
376,-7953,4955,920,1586,1985,1786
377,-557,5978,2308,225,608,1230
378,1488,3904,4474,312,1687,655
379,5460,-4258,7117,196,-1433,1223
380,-483,-6444,1285,-608,-582,-1419
381,731,7201,-2319,179,1704,-1886
382,2294,880,-2105,1060,816,-851
383,-3871,1772,1780,-1948,1401,665
384,-7899,-2286,-5347,1930,519,-1091
385,1257,-6300,4887,60,325,-1009
386,2299,7494,-2174,-147,-1161,-699
387,7031,-622,4902,-509,-425,-873
388,-7115,-1103,-6796,817,6,808
389,-7076,7317,2884,1094,1177,-1207
390,2079,-1854,-1259,101,-810,-183
391,-7651,677,2639,595,-774,1845
392,-1112,1225,6514,238,337,-206
393,2095,-5075,-7432,534,-1208,734
394,3857,608,-6993,-1044,-1460,-499
395,-563,-4219,4804,1603,-569,1230
396,-3110,7075,-5775,-1504,78,491
397,1661,3559,-499,932,1649,-327
398,4289,6996,-1620,-739,-97,-492
399,-7031,-7359,900,-1278,1365,-448
400,-5816,-3450,-1233,-607,-1755,1894
401,-5006,2982,-5995,1900,-1082,756
402,-7691,-6424,-3282,21,-608,-1995
403,-7184,-5659,565,1802,-189,867
404,4415,-2790,3265,239,202,1350
405,2821,2422,5330,-325,-1651,1354
406,-2670,2006,-4749,1992,-1955,-1118
407,6830,-1218,3181,-445,1210,-268
408,4369,-6426,7244,-1954,1287,978
409,-879,-3072,-5664,873,1154,-909
410,1465,-4076,7447,-999,41,1973
411,-944,-1573,-2695,-605,150,-1847
412,5141,1656,-4133,383,-1441,1584
413,-7580,-3297,-4775,1983,-390,-576
414,-4119,2788,7109,-1291,498,-1080
415,1189,3374,-4382,-130,-1960,-1559
416,-1916,2197,-5780,1887,405,-1609
417,-470,2074,-5377,-1072,-1759,-1748
418,3370,-5610,995,-1943,-1331,806
419,-1778,-1552,-3176,189,551,-1122
420,7305,-7352,5716,-1746,464,1450
421,239,-7911,-3035,329,30,-305
422,726,-5881,-2280,1757,474,1459
423,-7738,-1386,-676,935,1254,1643
424,5149,-530,155,-1256,1718,-1290
425,7417,-6624,1615,1945,314,-101
426,-3706,2835,-7805,365,-1585,-1763
427,-5967,-3588,4469,1154,-1386,923
428,5864,-7759,-1527,-43,47,634
429,-461,5907,5691,1050,789,900
430,-5443,2819,-1843,1317,-1252,1663
431,2216,1677,6339,223,-346,-11
432,1672,-3756,-3888,-1519,-1565,1981
433,7237,-6884,3695,266,201,-450
434,7084,-192,779,127,-1406,-1120
435,3554,414,-3538,787,1829,-840
436,-2735,630,2270,-1307,48,1191
437,7249,5316,497,-1783,-1382,-461
438,6500,6780,-4671,1431,-843,-1805
439,3216,7597,-1377,-43,161,1806
440,-3884,162,-891,43,441,1199
441,-2535,5246,-5134,-100,-1806,374
442,3719,-118,7810,1017,1999,923
443,-7947,-527,4532,1425,-1135,1609
444,-3359,-4163,552,524,-982,776
445,-6286,7587,4191,-1486,812,374
446,-7376,-6108,-1512,-1978,-1885,780
447,2151,-4981,-2674,-500,451,-105
448,7742,689,630,469,1244,-514
449,144,4122,2017,427,-752,1020
450,-3569,-2430,-3096,-1487,-1680,-1407
451,802,1579,3799,-1444,-1935,1802
452,-6949,5341,-7108,-1644,955,250
453,6717,-1157,6219,-1989,-994,642
454,-7685,5432,6764,915,1862,1939
455,1063,-3723,6694,731,856,-1008
456,1447,3063,-3274,-897,1821,1377
457,-115,-359,-2174,-1803,554,1863
458,867,7800,5458,866,-1645,-800
459,-6904,-3353,-4563,-826,-780,-1520
460,3345,-5690,-5085,-1628,-1433,-1186
461,2779,5153,870,1944,647,1933
462,5219,-479,5634,-907,-1048,1406
463,603,-3733,1706,-733,-1094,-256
464,-6319,-7567,498,-1238,906,382
465,-5852,2973,3063,96,1085,287
466,-794,-6792,-1301,671,-970,508
467,6826,-5237,-6180,1581,551,-1433
468,-2258,562,-4630,-187,1976,-1743
469,3282,4665,3519,-430,754,-1913
470,1507,-7980,-6982,1231,-1744,1865
471,-109,5142,-742,1044,1381,-1977
472,-7984,-1966,4999,1396,-86,-1315
473,3495,7003,202,-780,-1261,1216
474,1199,383,-2011,-1531,668,-1753
475,-6128,383,642,162,397,1912
476,6168,1823,-1998,-1879,-524,-1877
477,-3168,7360,-7997,-778,1818,1876
478,4341,-2159,5761,1466,1336,1384
479,7668,427,-5950,-649,1293,946
480,-5003,6014,-3801,1532,-1631,-1809
481,-287,-726,7951,363,-32,571
482,5556,-831,-3878,-763,749,750
483,-6557,-5704,5157,-1302,-94,419
484,-2159,-4964,-7218,-1060,186,1095
485,-7217,-4314,-2806,1326,295,-431
486,-6528,7850,5022,-1101,1517,464
487,5088,-3908,2922,9,-1451,-1162
488,3643,-7406,7602,-1770,637,84
489,2982,-4781,3371,-1881,932,1682
490,-7385,6263,-2889,985,1704,-1395
491,4919,5365,-7594,-1870,-212,-1510
492,6874,2316,-6021,260,1430,-565
493,4717,1628,4033,-1652,-262,69
494,-5577,5718,-6152,446,1679,1989
495,943,-5667,4036,-252,1662,327
496,1087,-2370,-3025,548,-140,454
497,-3414,-1711,5017,-872,-1927,-156
498,3039,4533,-3447,-1207,1214,-742
499,-6351,1725,-3633,152,-200,1604
500,401,-3373,1616,100,832,1026
501,4790,7415,-4993,-660,-1769,-1395
502,4521,5303,424,1602,-1860,-114
503,-7447,1144,-4783,-171,1531,237
504,6815,7361,-5261,1067,1193,1636
505,3743,5819,2414,-428,1943,641
506,2037,-4297,4167,-329,1119,-1357
507,-1751,-7983,655,-553,514,1831
508,1588,-2607,-1678,904,-891,689
509,-1300,-5838,-6876,-466,827,1579
510,-6126,-2019,1437,1355,1441,263
511,-2282,2481,-3615,-698,-524,-1405
512,-1987,-2487,-1986,869,-1750,-853
513,6236,-6036,-6561,-747,-947,1299
514,2042,7503,5155,-1820,-732,1527
515,-2479,-6756,2544,-1568,-711,-746
516,5706,-4959,-4390,409,-86,-1897
517,1369,-664,-6896,1296,886,1946
518,-4657,4859,-2276,-362,-1381,377
519,2917,-2528,-5571,-1097,895,-1513
520,3767,5499,3509,-1471,-321,-545
521,4890,-2148,6171,-110,1184,-851
522,4106,7911,4871,1,-1635,-125
523,7739,-4959,-1704,-330,1429,1035
524,-988,6628,-4785,1911,389,1832
525,6531,-4051,-1083,-242,1236,-425
526,-5785,-3191,-6802,17,-175,1822
527,-1226,3414,-2165,1179,-1526,-1298
528,-770,2789,-359,1755,-1795,441
529,-7260,2137,-181,-1380,1774,1660
530,2912,-3079,-3302,190,-497,-1212
531,-6226,3489,4358,788,176,611
532,-3098,-2864,-2755,1043,1362,1517
533,6603,2079,6318,1496,-1194,231
534,-7106,-3185,6984,136,-1878,959
535,4016,38,-1524,-1028,-1852,77
536,-4633,4067,824,1054,-597,-960
537,1203,2268,2962,855,235,632
538,-5095,-2636,-7179,1644,-1432,281
539,-290,-6025,-5839,674,145,1602
540,2530,-7284,-6101,174,-728,-666
541,5685,377,-501,-1083,-1260,1277
542,-1482,-1591,1004,1368,-304,-292
543,3487,-1587,-492,1535,1045,-899
544,-7936,2544,-6585,-34,1931,-1850
545,-5400,133,-5264,-1145,-626,-373
546,4936,-1503,-5035,-1508,-1777,1345
547,-7153,-7821,3527,-1011,1236,445
548,3843,610,691,721,63,-1491
549,4822,3242,4068,1191,1410,-607
550,-6489,-369,-607,702,-557,651
551,-5384,-4077,791,1164,-332,585
552,3530,3623,-2835,269,1030,-1060
553,-6026,7530,-6505,-1365,-619,-1500
554,-520,7526,-659,-629,-1384,-362
555,-2144,-3648,-6940,34,-109,1209
556,7139,2023,-4873,-1939,1801,1729
557,-2671,-5968,-2704,-498,-1467,-1296
558,-969,-4982,-7685,1152,-538,725
559,1491,-5532,3649,-996,1187,636
560,-7068,-5029,7216,1379,776,-938
561,-6325,4642,6539,-1715,1041,1783
562,-6847,-2239,6343,803,624,1566
563,-2265,-2116,-2267,1619,202,216
564,-4081,4165,3363,-168,-1029,-641
565,1420,5706,3177,1822,-759,-950
566,2024,3022,-4755,1705,-274,1045
567,5387,-3588,2624,-537,952,1316
568,1007,5666,1305,1027,1232,1716
569,-1965,3278,5293,-794,-715,1724
570,982,-1027,-3831,-63,1127,-1746
571,-1281,4504,-1276,788,-79,702
572,-915,926,-7917,1438,-1819,-340
573,1444,-3768,-4380,-348,-736,-640
574,2456,-2350,5603,-382,1525,800
575,-4374,2066,-908,-391,-1236,555
576,1678,6386,-4490,294,1132,-1197
577,-5023,6886,-6445,-1548,568,-1906
578,-3848,2390,6789,-586,-1632,-1729
579,4039,3656,4333,1142,-1625,-476
580,-523,-7589,-4640,-1194,-1011,-280
581,-277,6440,4920,-1522,-1742,-674
582,-2763,-7343,-873,-1080,1231,266
583,-6386,455,-5190,-582,-6,-195
584,-1009,2598,-4808,1578,49,1204
585,6796,-4856,-2816,1605,-948,-338
586,-931,-6332,-3532,-196,1061,-1376
587,-7051,7936,-4150,-1406,-1429,-916
588,4082,-6199,6565,1882,1611,-1952
589,-172,4193,-4431,-403,1643,-916
590,-3385,-6963,-5576,893,-835,-1565
591,-4680,-1341,-197,-1576,1551,360
592,-7836,2282,-1327,-1013,-1713,1020
593,-1521,-6921,2890,1480,1236,-919
594,-4211,-5710,1309,645,-402,-1384
595,-5947,-7984,-2227,-521,-1223,-1187
596,2166,-7826,-7177,-1235,-1275,-36
597,5716,3119,-626,769,-976,1600
598,-5530,-2582,2213,-829,1690,-968
599,-1301,3181,-2433,994,-427,-198
600,2078,-2761,-94,-792,-814,-1963
601,-5381,-7313,-7684,-927,-319,-1822
602,-3099,-412,-1147,-1199,1096,1227
603,-3429,1722,-6395,-22,-148,-37
604,-5206,-7583,3974,875,-1367,-573
605,4517,-352,-3202,1787,-997,1279
606,2434,-544,-3682,-1411,1194,-1157
607,356,1617,7841,-1892,951,447
608,-2669,-1794,4229,-1136,79,-1926
609,-7130,-3674,-3096,1316,-706,1991
610,7871,1706,-4777,1252,90,932
611,-3898,-1449,-7299,-731,-257,-1454
612,-1043,6304,1070,-720,896,35
613,6584,-6783,-6670,1022,-1512,1496
614,-568,-7499,222,719,379,-1281
615,5428,-1622,-4128,1573,622,-1270
616,-5638,3205,-2018,-1305,1925,-585
617,-567,5034,1450,-1775,-1050,1614
618,7870,3099,3474,1207,-1304,1916
619,5421,285,2766,-54,-466,258
620,2759,-6872,-7243,-1793,1203,-1223
621,5235,-1494,-5208,287,1932,1368
622,6892,-7370,4975,-1761,-1121,1927
623,-3115,-24,2957,-752,989,811
624,-2450,-888,370,-1065,996,1349
625,-4546,-137,-1754,-1964,821,542
626,-6601,-7385,-7910,-1599,-402,1001
627,4579,7135,-3464,1441,-1120,-146
628,7922,-2106,-860,269,14,1389
629,-7178,-3354,6766,-631,-71,403
630,-6398,-310,7801,-475,-1082,-1063
631,4139,-7587,-6790,-1819,797,-1338
632,-58,2008,-6350,147,-127,-708
633,793,-1684,5909,-257,96,-411
634,-5844,1572,5822,107,-1307,-1288
635,-2732,1496,-2111,-880,-1279,-843
636,-6698,3505,-6238,151,-37,-283
637,3284,-5845,5835,1499,-1221,-1817
638,-5041,1826,-3172,1483,1393,-1388
639,-7010,-6711,6802,1426,-1812,-1778
640,-657,-3587,5410,-316,643,1641
641,5282,6890,-5729,-285,1426,-720
642,-6692,-5323,8,-1859,1419,1410
643,-7806,-583,3069,904,881,-1391
644,458,-187,4591,1276,1905,81
645,-3025,-1022,4962,1978,395,504
646,4305,2504,670,30,1259,-1491
647,4005,4481,4463,1079,-1669,1854
648,7441,-2574,2628,-365,859,-1102
649,7751,-594,172,-1650,1248,-1064
650,-3141,2648,1396,1841,1180,641
651,3111,-1762,3721,866,-1974,-817
652,2252,631,120,-1762,389,-365
653,4106,332,3411,1735,-1474,1290
654,-5654,6715,4902,16,-1830,-574
655,5355,6507,4693,233,554,1951
656,-3893,-6327,3428,1594,641,-249
657,2144,-6429,-7078,-611,-9,-697
658,-6190,7229,-1765,-1364,1605,-924
659,-7689,-1438,-1999,-1000,-391,1157
660,1940,-2732,7535,-1107,-1433,-1750
661,7023,916,-3128,346,1247,-789
662,3506,2814,4035,-1519,-784,-1718
663,-5076,-2911,-84,1921,243,-1128
664,5571,-2018,-3565,-1182,-486,1904
665,4096,-3770,-2515,-637,-330,-717
666,-1320,7398,-1612,1616,1486,226
667,4741,6077,-7311,-1329,69,-1901
668,4707,-5595,5213,204,1273,-143
669,4527,-4261,6474,-815,197,-1150
670,145,3601,-1457,-1446,108,-434
671,-671,2683,-7708,1850,1556,691
672,-7333,-6000,-2102,1057,13,-900
673,-4447,5821,1480,1068,254,116
674,-7317,-878,-95,-153,1116,1434
675,-2708,-1055,4252,878,-408,44
676,5374,2309,-5252,-1828,-943,150
677,4348,-6753,6375,481,1654,111
678,2716,-899,967,700,1858,1667
679,-5855,1885,-1291,1975,-626,-672
680,5477,3352,4628,1586,-1309,-811
681,-4431,4638,3163,-357,-783,1331
682,4904,4953,-7035,-1618,-1566,1773
683,4872,4932,-2180,1756,-578,1257
684,-7785,1501,-6414,499,-1649,1162
685,4720,-6756,-4612,-1088,-1867,1490
686,3416,-6142,5071,535,1528,1110
687,-3518,-4092,-2958,-61,-1541,-1880
688,6700,5167,-6094,1981,-60,1611
689,4353,-1234,3684,88,1195,651
690,-7587,-6431,7131,28,1900,1752
691,5798,6950,934,-573,1514,-457
692,2189,1332,-5539,1023,-1730,-1478
693,7182,-5270,4903,-1056,-804,-676
694,5081,7524,490,1168,-882,575
695,2605,896,6697,320,423,-250
696,-5669,-6588,-5693,-1104,926,-354
697,3220,-916,5666,-182,397,-1155
698,-2280,3851,2215,-278,-1164,306
699,-7286,-3002,-5404,1811,1802,-660
700,7363,-1912,-5706,1390,-833,1468
701,4539,-5273,3870,146,1545,855
702,-4533,649,1571,476,-762,1555
703,4625,6895,-2684,-1005,-1235,1626
704,-68,1170,5102,-1720,-841,1004
705,-1454,-4099,242,591,-784,-66
706,-2973,-5229,975,-1301,562,-1411
707,4487,-5799,7513,-634,855,-1784
708,629,-182,6889,1033,-1829,1059
709,-5690,-2758,-1870,-1571,-378,-1326
710,4652,-7162,1574,-1295,-1478,-1216
711,1929,-873,6810,864,-1305,-1800
712,6014,548,7881,1381,1036,1580
713,-7758,-7101,1661,-221,-1271,-1732
714,-6760,1342,-1163,-348,-1506,9
715,7180,-7146,7101,-1329,-1991,-1079
716,6443,-5279,1743,-283,967,-1258
717,3306,-1641,-3881,1451,350,-2000
718,-5288,-4824,2332,-54,-726,-8
719,-2471,-5391,3127,1494,288,-1368
720,-2067,625,-3012,-529,-69,93
721,1629,-4019,-3816,-258,-857,-1442
722,6431,-1776,2780,200,521,-1446
723,2125,-1920,7517,1396,-898,-43
724,7495,-2086,5210,-1780,-417,1360
725,-1870,2038,468,-118,-715,-1434
726,4394,-1888,4844,1067,-1384,1735
727,-7224,-1536,4476,-657,1469,-1480
728,956,1121,5998,-1263,1216,257
729,7951,-3976,1668,-937,1186,361
730,3836,-307,-6717,-734,-1543,315
731,6717,-2290,-3347,-192,-908,-576
732,-4178,5569,5501,1654,-572,-642
733,6521,-7808,6941,-1316,590,778
734,-2575,5955,3491,899,714,253
735,-6325,365,373,1535,-819,1093
736,-6752,-4076,4779,-1188,814,1915
737,-7754,-2953,-4233,-1983,909,1017
738,-7824,3300,2770,-1348,1894,-1394
739,-1974,2061,1786,-113,-673,-485
740,-6961,-1405,6783,1380,-258,338
741,3366,1699,-2792,1565,1941,36
742,1087,1555,-3037,207,1342,-623
743,-3153,-7877,6920,15,-1900,207
744,-5180,7158,-654,-1147,430,-417
745,3687,1357,-7341,-862,-1265,934
746,-5365,-550,-1353,-1650,1624,1361
747,-4412,3713,4862,-1812,-1481,1421
748,-213,1069,-2797,75,-903,-1508
749,-54,6385,4195,-1165,-821,-1877
750,-7962,-1553,5668,-498,1151,-1750
751,7108,7119,1745,649,81,1845
752,2897,-7014,2670,-188,1764,-143
753,3382,-1470,-3527,-1455,973,-733
754,7416,-158,-1656,1044,677,516
755,-3805,-2677,-5162,598,1877,1107
756,-5261,-2544,-3443,672,-892,-817
757,-2397,4145,7409,927,1600,1271
758,166,6108,5324,361,-1484,364
759,-6967,135,-2975,-266,-91,-842
760,6034,5511,2980,-478,-858,866
761,-1732,6038,2375,21,1279,1840
762,-3312,-5586,-3638,1100,-1166,-1835
763,-2576,-5913,-5922,-68,-1816,31
764,962,-1989,-2225,-1361,1426,463
765,-550,7749,-2667,-1960,-1862,-974
766,-7542,5967,-3748,-669,-731,1947
767,-4967,7773,869,484,344,1804
768,6146,623,5118,-1079,-1822,-1450
769,4617,6337,-209,989,-1856,-540
770,-5647,-3154,-6832,-82,-747,1516
771,4124,7656,7469,866,251,120
772,3863,6689,-7723,-1388,934,833
773,6174,6120,2509,38,-854,1701
774,-902,527,-856,-1134,221,-1324
775,-832,-5785,-1491,-298,-503,1179
776,-2600,-3740,5616,-1419,732,-946
777,-3548,-5565,-1952,-1816,-266,-1964
778,2319,7348,-6318,-787,-1191,-1456
779,-5680,-1658,125,822,-1565,1376
780,151,-3766,6495,-520,1154,1538
781,7096,7095,-6816,1218,-1985,-642
782,7598,2997,-3026,455,1261,-1738
783,-4959,-6505,137,1223,727,-1186
784,-3713,2316,2603,-1369,-1868,164
785,3931,-7757,3174,206,506,-12
786,-6468,7452,-4746,51,1052,1392
787,5655,561,5655,-1507,-1052,428
788,4619,-2357,857,-2000,564,-1063
789,-2428,4523,-4901,96,1635,-478
790,529,-4086,-7926,1157,-121,1407
791,114,-4696,-4000,-21,-1798,-1957
792,3769,-5476,7546,1126,833,1087
793,-5055,6000,-6976,-952,1689,409
794,6481,374,-7052,805,1057,-1943
795,4740,-1481,883,-502,1781,901
796,5571,4700,-2850,-1430,-1499,-640
797,5209,6124,-2974,-1899,-1832,-1010
798,386,5723,-3620,756,-1304,-203
799,-2578,-111,90,-1505,33,553
800,-7026,-7089,2294,-907,-128,950
801,6289,4505,-946,674,-30,1425
802,-316,772,-836,1671,-565,-394
803,5723,-2800,204,-1606,-993,1974
804,-4130,4739,5793,-105,220,95
805,-554,-4742,-1636,1568,188,1985
806,6348,5498,258,1743,1614,223
807,7483,1830,211,-87,-304,-1776
808,5666,-1986,1979,-386,1367,892
809,1271,2791,4382,1831,-1406,-354
810,-278,-1131,-281,1571,-1761,1899
811,-189,-4552,680,414,-1350,-1856
812,423,-6205,-2997,1041,102,1142
813,1677,4030,-2075,1310,-1247,-753
814,-511,6667,1367,1513,-1591,-748
815,6557,-6865,2510,1994,1482,-752
816,251,-845,-6186,-512,1283,-1987
817,-403,-6884,-4456,-60,1775,1708
818,-3655,-487,-5444,1887,-1118,1352
819,619,5946,7049,-182,-336,1396
820,6504,5977,7479,187,284,-1086
821,-5987,-5969,-3883,-25,869,-793
822,1771,6869,-7963,1010,-29,37
823,668,-4000,-6697,1591,1948,-796
824,-1726,-435,7758,523,-323,1687
825,-1234,-580,3525,-854,-1766,-114
826,-4029,-2655,7004,1839,205,1876
827,-7193,5985,-2326,141,801,-1595
828,5027,5905,-7041,-699,-1793,1802
829,7687,1886,6724,-615,-529,381
830,6638,-7867,-868,-1431,-1470,-114
831,-2264,-2081,-3068,-1995,1552,651
832,1193,-210,-7353,-1327,-1858,70
833,-2929,-4645,-3195,-1052,-766,462
834,-2907,4912,3229,-1047,-677,390
835,7208,2935,-3501,776,1889,1152
836,3476,5359,-1373,609,-502,-1243
837,4311,-3029,1949,491,330,820
838,-6285,-6385,5439,1193,87,-1936
839,-34,-6734,1324,1440,1002,363
840,-5925,-5485,-268,541,-526,-1114
841,-2460,-7517,-879,689,915,1743
842,1529,5469,-5704,1579,748,458
843,6902,2063,3724,-881,-1910,743
844,-5216,-538,-6627,1522,-493,1612
845,-5224,1857,5621,-1844,1912,-1656
846,-2886,-5268,-216,129,1023,-1927
847,-5088,7880,-4424,172,1197,-54
848,-7886,-3703,5330,887,1613,-1508
849,542,-1518,4947,1122,-1104,-1052
850,7971,-5223,656,1479,1284,1236
851,-7143,-478,-4126,1525,-403,1470
852,-5813,2975,-6972,-640,248,-1688
853,567,-1077,-5567,-1003,1202,-1878
854,-2753,-2410,920,546,1867,-913
855,7408,1591,-3028,-1193,171,-1201
856,4777,4061,-1894,-1309,1220,248
857,-3910,-2676,-772,-1657,76,324
858,-1495,-899,-340,156,1937,1258
859,-7692,-3661,-7672,1039,-1578,1211
860,-3412,2372,-1702,54,346,-1773
861,-5254,-1897,-4476,822,65,635
862,-4028,-57,1693,-383,1691,-293
863,-2621,7159,2260,622,-317,633
864,-7479,-4760,6031,1854,204,-251
865,-1105,-4685,320,-805,663,576
866,-2172,-5052,-6447,-1392,-1997,488
867,6446,-6945,4497,1701,-1585,-669
868,-3024,3220,3964,-369,437,-543
869,6824,7047,6290,-1706,1436,-1021
870,-4425,4699,628,-1836,-1040,-1884
871,-4347,-5546,4646,600,1326,-1980
872,5581,-6204,263,-490,1045,-234
873,-1109,-7324,2705,-1098,-1167,1013
874,-1222,-5725,-4341,225,-1901,-1252
875,1637,365,-5172,-1622,526,-550
876,-3657,-308,-2396,-576,-737,373
877,-4016,-4761,-1074,-1301,-1533,1328
878,744,708,2051,315,-1683,1457
879,-539,-738,-5169,1981,717,-1391
880,1049,6062,3341,1679,1567,-1944
881,-3417,-2201,3553,-130,-161,468
882,600,-852,5358,-1123,-1950,838
883,-1365,-6296,-3032,-464,532,331
884,-2562,3497,-4656,1386,380,-770
885,7625,6502,2774,-196,1686,1127
886,-7828,7703,1453,1016,-270,225
887,-7645,-4935,-3481,-546,-1847,392
888,5551,526,-1359,-103,-643,-145
889,563,-4476,7049,1499,-793,803
890,-4021,3878,-7734,-1756,355,418
891,-1773,3799,-2424,896,284,-173
892,5603,5269,5934,-1877,1426,-1594
893,-5538,-7888,502,-629,837,-339
894,-7930,-2829,7903,1543,603,-149
895,-6046,6754,-3236,734,1738,-164
896,7049,-5585,-6430,1018,-659,119
897,-5476,4556,2863,-1816,-2000,-1011
898,-3802,-7988,-6247,-1454,-116,613
899,2763,1471,-7250,158,1973,-18
900,6971,-6660,3849,1940,856,1181
901,3425,-4197,-3821,1014,-1091,-1717
902,-6162,764,-1420,-585,-401,-1089
903,4453,-7253,2039,384,169,1176
904,-4888,-1819,7435,-730,-135,470
905,-3899,-1432,-5921,-490,1500,262
906,1958,3692,77,723,59,-1264
907,700,-7937,5396,-365,694,1073
908,-2131,-6437,-3377,-1124,1550,271
909,-6256,2768,4806,-1043,-1239,1152
910,7736,5789,6147,-766,-454,-1743
911,-159,-2010,5210,387,1619,-612
912,2402,-4660,3346,932,-105,712
913,-684,-12,-439,1247,220,-723
914,3512,-6587,-3510,-1270,-81,-635
915,2156,4738,-1496,-1468,1906,1035
916,-1077,4550,-7346,1243,1226,-1762
917,-2923,-438,193,-723,1630,1734
918,7806,-5489,1885,1550,1053,-1555
919,-463,6804,7612,512,-135,1264
920,-4127,1229,1603,-1982,-780,-700
921,403,-2685,-7072,453,1372,-840
922,-2275,1908,-819,-1414,51,357
923,5025,-1358,-6372,459,-133,-879
924,3502,1746,5042,-1294,-1830,-1015
925,3937,3950,3539,170,486,-229
926,-6043,6545,-2710,653,556,915
927,7770,-2169,3026,1907,-757,-405
928,-4159,-186,4817,1,-1631,-1052
929,-1841,5914,4579,1866,330,1860
930,-104,-73,-2371,-1667,724,-962
931,2405,4145,2034,736,811,-31
932,-5999,-4276,-7555,1162,-308,1716
933,3345,1473,7320,416,159,-969
934,-318,992,-2439,-288,-1775,532
935,-976,5708,-7479,1919,1292,1138
936,-5156,80,-2471,-1409,-228,1381
937,5447,-3846,-1064,851,1710,1126
938,-3462,-4039,-7257,135,-1176,1620
939,-7206,-7810,3098,-1251,-320,1776
940,2571,3360,5458,1174,546,-577
941,-2600,3655,6173,792,-626,759
942,-5041,7984,-3210,193,1890,11
943,-3519,3927,-7932,-1894,202,63
944,1345,3099,6869,1086,-1441,932
945,7440,-645,4006,388,674,-1364
946,-4805,-6383,-5463,935,1852,29
947,5064,-3431,-5607,-261,-527,-138
948,6271,2402,-824,1498,-114,670
949,-2734,1355,1833,1953,1589,-583
950,-395,-4936,-2776,592,-1854,1251
951,4586,-4000,-2653,1695,-1598,-1870
952,-1066,3893,-2682,1349,-102,1226
953,1828,-6443,2564,-1122,1539,1159
954,-6962,2507,-1348,954,1191,-1329
955,-1891,-3736,-5635,-1920,-1884,-1903
956,6953,4459,3901,779,1223,1622
957,-5273,1362,7223,511,-696,-310
958,-778,-3166,4700,-393,-1220,1659
959,-7201,-6399,-200,-378,-1830,-109
960,2886,6637,-1649,-857,-23,-1820
961,201,-4959,6959,-1842,1956,-495
962,-7285,7250,4107,-1923,-1504,533
963,-2558,1842,6881,1753,-1302,-1473
964,1062,2467,3123,289,758,-1947
965,2039,-1582,5761,61,111,103
966,4446,414,284,-351,-1223,1995
967,-99,7829,-6253,-1965,-1017,1704
968,-112,-6566,-852,1800,1661,-821
969,-2764,1000,805,93,-680,-455
970,-4089,-1641,-5963,1122,-1734,-997
971,2312,4395,-6368,-1563,-561,1004
972,628,3480,3836,-1750,1477,1367
973,2769,-6558,-5955,1848,-561,416
974,-5657,4101,-3156,-139,-1875,1616
975,4079,27,2570,125,-1105,-1897
976,-2213,2929,5845,-1382,-634,620
977,2715,993,7941,-817,-296,1232
978,-5102,-6475,157,-1430,534,-924
979,-5845,-1657,-2733,-711,1151,1719
980,-3715,7465,2976,1331,136,-497
981,-6305,91,7069,-1365,-1856,666
982,-2972,3712,-4422,-1285,-1942,-501
983,-6811,208,6,1264,-1522,1338
984,1220,4908,1005,-574,785,-1082
985,2466,-1605,4166,-1456,-659,-1763
986,6806,7180,-1611,1609,-651,-1185
987,-7309,791,4260,-988,-123,666
988,-2678,5442,7151,-1947,1559,96
989,2407,-4573,-4361,668,1317,157
990,-2149,-3498,4401,-1043,381,-772
991,-4703,5133,2576,-977,-346,-1944
992,4547,-7803,7944,-1815,450,876
993,-4025,-4382,-5583,70,548,33
994,-6663,5395,5257,-11,777,475
995,1171,-4379,4172,-1267,-359,221
996,-5671,-1033,3806,988,452,145
997,3069,3082,5589,596,52,-1711
998,853,6141,5686,338,-947,-228
999,-614,-333,-3733,-1360,-478,1049
1000,6855,-2579,3066,1950,-1342,-1999
1001,-7097,-4548,2462,1126,1166,-1601
1002,4826,6234,-698,-1391,1144,-1291
1003,2458,4628,818,977,1550,-1839
1004,-763,-762,-6704,1561,1906,754
1005,-4789,3325,1611,1830,536,-566
1006,628,-4155,-7912,-725,1829,697
1007,399,-4870,265,1138,-1903,-1669
1008,-7950,2564,-7108,-1582,-499,373
1009,6168,2347,3292,-216,944,402
1010,-7089,-6726,3385,-1477,-353,-1594
1011,5380,7414,6717,-220,1633,-1052
1012,-5538,2005,1399,1295,-367,-1483
1013,-780,220,-136,-1365,1602,970
1014,-5557,307,-3894,191,-1358,780
1015,-7382,-3156,-4127,1000,1466,1377
1016,-2174,-7311,-4698,-1940,1659,1385
1017,-3627,-26,6461,-518,-1478,-402
1018,3037,-6814,1708,1443,-574,-964
1019,3059,1361,3821,661,1392,-1824
1020,5943,-5304,2285,1468,-194,-203
1021,-1766,-296,335,-941,1314,1184
1022,-7992,-330,-6672,1235,-1767,1209
1023,-3344,-2182,153,851,1738,1448
1024,4791,-1415,6168,1379,-861,-1352
1025,-5427,-4413,-3124,400,-42,-1349
1026,1163,640,1547,-425,-318,-900
1027,-2604,5990,-4484,567,-158,273
1028,-3797,7842,-5352,1229,-1257,397
1029,6947,-4358,-252,238,1869,946
1030,3062,-983,977,-1902,-434,1320
1031,-7378,501,-40,-451,-1141,-1934
1032,-4680,4199,5532,-1765,885,450
1033,-7618,4530,-852,-1916,-968,-1636
1034,7741,78,4523,-922,-588,1994
1035,6529,-4898,-2581,1575,-537,1180
1036,1052,-3527,1749,453,465,-233
1037,5596,-7169,3695,-659,1717,-784
1038,-1492,-4319,7126,618,-1029,-1027
1039,-8,5627,-4580,331,-1719,1110
1040,1969,-2125,-4064,1897,978,-1102
1041,3172,-6680,-6845,-167,454,1784
1042,1236,-7787,1844,-626,769,773
1043,5344,1389,-4877,360,-1185,1630
1044,6340,-4862,-2952,-1199,-433,86
1045,795,-3260,6128,277,1129,910
1046,-4876,4743,595,-1571,1024,-801
1047,7127,-6384,-7306,-934,687,316
1048,-5777,7514,3906,-1969,-115,918
1049,1843,-5722,4046,480,1915,90
1050,-6527,1779,-7321,-1706,-3,-1644
1051,-226,7179,819,620,83,-886
1052,4559,3176,-7541,-564,-1382,-723
1053,6574,83,-3038,-15,-1596,-1531
1054,6215,-2580,-5874,-1715,1924,1941
1055,5512,5391,-209,-1183,268,-130
1056,-2424,-756,368,1979,-941,-671
1057,-7036,-4592,-7810,1836,1025,1506
1058,-5448,-7388,4572,-730,513,-37
1059,-2384,7493,3565,-984,-1600,-999
1060,-5157,6962,-240,-283,1416,-1454
1061,-4545,-5513,2717,-1537,1297,717
1062,-7027,-2590,-3854,-946,319,1486
1063,-2986,-6423,-4553,-718,-72,-1880
1064,2555,7919,-6575,-944,1042,-1762
1065,-3388,-6256,2002,-1818,-93,-1361
1066,3093,-3887,2147,1147,-503,-291
1067,4651,7086,-722,1035,1145,347
1068,-5924,4575,-3358,1629,-1686,591
1069,7888,4682,-4518,1147,1518,-1150
1070,-1409,4293,7160,-453,1645,1087
1071,-6393,7199,5249,657,564,-1039
1072,2858,694,5471,1848,-622,-1001
1073,-6913,5409,-6478,1191,1041,-1845
1074,2721,1250,-5266,-755,-985,-406
1075,-852,7238,-7372,-4,-1225,-307
1076,-5952,7686,-6986,160,26,-1660
1077,-365,-4733,-6804,67,1523,596
1078,6555,5083,-5947,1909,-280,-367
1079,-1834,3934,61,-541,1698,-1497
1080,-521,6300,6217,678,204,-1878
1081,2287,3432,-4604,1963,-1732,1536
1082,-7378,3100,-7019,-1707,-1456,-771
1083,1632,7395,-154,-761,-1874,1036
1084,-4069,850,7339,-462,416,1727
1085,2090,3539,3110,-1340,866,1265
1086,2383,-4226,-1556,814,1438,1919
1087,877,-6217,-1358,854,1908,-1903
1088,979,-760,-5420,-638,-166,939
1089,4744,1083,1125,1230,624,1273
1090,-1717,-4058,2440,-1615,1439,1331
1091,5213,-1864,1369,-877,-1288,-476
1092,5411,205,-1119,1492,363,1631
1093,-7061,-4909,-4942,1312,1559,1063
1094,3637,-1803,796,1009,-1777,-877
1095,1579,5439,-6601,-13,544,-1236
1096,40,3534,1851,-180,1249,-1175
1097,-7782,-2512,2841,-1273,-551,-109
1098,-7450,-7524,5294,-1203,-1549,1416
1099,3297,-2250,1649,1084,329,122
1100,-6507,-1145,-4835,220,-1309,1721
1101,-1581,3856,-6901,-823,802,1934
1102,-7171,7326,5015,-583,-1789,-102
1103,-281,1306,6256,-1631,-1880,-1928
1104,7918,-6346,4994,540,1480,-236
1105,5638,-1388,-6390,-885,-945,1996
1106,-2212,867,3943,1934,153,-1899
1107,-6366,5965,-2118,-1215,-475,414
1108,-2340,-2740,5851,-48,642,-176
1109,-3642,-2020,6532,409,673,418
1110,-3902,-5952,3616,-157,204,-1154
1111,-3302,2506,-5653,-1250,-1133,18
1112,2555,5506,-65,-408,-1083,-454
1113,-3343,2608,4626,-1190,-1220,299
1114,7101,-3493,-6901,318,360,1335
1115,-5045,-3681,5374,1657,-123,996
1116,-6357,7788,2305,1977,-1084,-1774
1117,-6412,686,838,972,1764,84
1118,6383,-2292,7726,-1,-724,-1692
1119,-1800,-539,7056,-1187,1439,403
1120,6135,-1081,2556,931,526,-374
1121,-4751,-1510,-7608,519,-770,-1708
1122,416,6087,3691,1251,1453,734
1123,-6551,-1577,5234,1069,1386,-1973
1124,-6672,-3565,-6656,-1073,759,-1890
1125,-7964,-4438,4275,1348,-1187,-1368
1126,4625,7672,6279,1938,-1614,-1896
1127,5521,-2349,-246,-761,533,1550
1128,3670,-6142,-3534,1623,347,-1445
1129,2306,1872,937,809,1222,291
1130,-5229,-7046,-2229,-1519,1353,-1700
1131,-2752,-5335,6469,127,-7,-1613
1132,-7055,-7759,1686,-942,1080,365
1133,-168,6464,-7738,279,1776,-1976
1134,2555,-131,-2899,176,1127,1551
1135,-1467,-4268,-4233,1685,-1754,1950
1136,1586,1116,5451,1530,395,111
1137,7103,4199,-7009,166,1675,1652
1138,4344,5106,7470,225,-1148,1288
1139,-7093,7607,-4661,1977,353,7
1140,2282,2060,-2580,1763,-1017,1673
1141,6368,-3341,-6732,254,814,1534
1142,6087,-7794,-7536,467,-1894,1627
1143,-1066,-3834,3428,-405,1397,1756
1144,-1077,-7253,7262,1736,1104,1872
1145,-4023,-7819,-7956,589,65,1262
1146,3363,6065,7738,-723,1359,165
1147,-3285,-92,4017,867,-54,-1406
1148,-6133,-6910,-871,-1299,-1961,-996
1149,-2697,-7447,2962,1450,1115,143
1150,-7586,-4555,5126,721,-1766,-1339
1151,5233,4061,7066,94,-1319,1180
1152,4831,-4120,-3019,-1707,-1847,-640
1153,7940,513,-7818,554,-706,-1727
1154,-1616,53,3137,1126,-261,-513
1155,5829,-3422,6841,1086,-61,1648
1156,6032,-7894,300,766,69,-953
1157,4740,-5018,62,-1696,283,-904
1158,2138,6349,3339,1616,-1333,-790
1159,5216,-6893,4630,-719,653,740
1160,-4660,-1234,4631,1771,-1095,1948
1161,-531,-3004,1922,1943,-1065,-751
1162,-3236,5933,-4586,-1838,-507,-742
1163,-7224,3587,6568,1240,-778,-1638
1164,2075,-6901,-6065,1792,221,-104
1165,5645,-7493,3419,649,606,1736
1166,732,-49,-7350,1300,-1769,1693
1167,4343,1618,-3614,-74,740,-128
1168,3658,-3798,1684,932,-848,-1938
1169,1746,-3748,2784,377,-1330,-1901
1170,7874,2865,7535,1452,1846,1787
1171,7925,5309,-1465,-1829,-1880,-545
1172,-7006,3596,-5632,-1278,1978,1650
1173,2350,477,-7179,1685,-1477,-81
1174,3950,-7297,-3056,-909,1246,851
1175,-537,-774,-3231,1267,6,-657
1176,953,-7397,-5221,1763,-1339,473
1177,-3786,6275,-191,1200,-901,-913
1178,-931,6483,-1107,-1285,-1661,1278
1179,-7381,1290,-1884,-462,-1575,1171
1180,745,-4906,-3805,-279,1235,1336
1181,7929,-4078,-866,-1601,1183,824
1182,4388,189,-7812,709,1029,1081
1183,-3806,-2285,230,-1201,-1261,-1345
1184,-6506,2937,-5211,-6,1737,24
1185,-3866,333,-7427,-1595,119,-715
1186,-453,5388,6904,481,287,-1118
1187,3373,-3154,-4357,-1312,-1263,-524
1188,5299,103,-1473,-822,-614,1267
1189,4012,2497,3948,-194,-1741,-278
1190,-2667,934,-4528,-1304,87,1904
1191,7819,-953,7860,-1620,-1739,-828
1192,-3306,-1588,-60,-1844,1367,1443
1193,-2810,2864,5966,-1331,-1918,-1859
1194,-5238,-6515,-2117,-1579,691,-921
1195,-2308,-6469,-6399,-1090,-1731,-1839
1196,5009,7900,6881,-412,-236,-84
1197,2993,-3592,1236,1778,973,583
1198,-1359,-495,-1827,-314,-1069,-1665
1199,287,3577,-3043,1366,-568,1976
1200,3418,-5956,6162,1673,-1096,1622
1201,-2554,-843,7104,-911,1540,-144
1202,1951,3979,4361,-1614,-1841,1237
1203,-1873,-559,2391,-984,-1484,-1626
1204,3747,535,3187,-740,-1343,1841
1205,5612,-1025,1022,-1580,257,224
1206,63,6662,-316,970,-837,-1498
1207,-1779,940,-4168,1851,1163,1210
1208,5195,-5310,-2409,-211,91,-681
1209,4025,2424,-7151,-1165,-1520,-210
1210,2199,6661,-464,813,474,608
1211,-6063,5547,-1140,1424,1611,1372
1212,6267,2169,-6316,-383,1337,-89
1213,-4423,-5218,-5661,-723,-1836,-138
1214,5638,1971,6844,-295,-1546,1837
1215,-1239,5001,-11,1722,-24,727
1216,134,488,-400,-1049,1683,-965
1217,257,7361,5774,-1414,-87,1641
1218,4094,5211,-1129,-1230,547,-525
1219,-4752,-6579,-7398,1348,548,-1067
1220,-5876,5686,-3248,-390,-60,876
1221,-2659,5480,4337,1629,-581,-1110
1222,1063,7944,-891,-958,604,738
1223,-3446,-5776,6519,-1254,1875,1640
1224,-514,-7722,-6417,133,-1829,-402
1225,2421,-352,-5116,887,991,1412
1226,6974,3776,-4464,1228,-1360,-1735
1227,-3864,775,-7753,137,1270,99
1228,3346,1073,-6234,1003,-217,111
1229,2668,6693,5197,812,859,337
1230,4787,5732,-6625,623,-837,738
1231,-971,-1578,4425,1311,112,-1938
1232,3827,-5714,-5553,580,-1951,-971
1233,-6261,4061,-5495,87,-598,-971
1234,1558,-6833,6956,-1425,-203,900
1235,6308,3067,556,-523,-592,1188
1236,-2796,-5129,-7025,447,492,761
1237,-1855,-5321,-207,-1491,1139,-1622
1238,-3295,-2533,4591,-403,864,890
1239,-116,-4139,-5440,347,1729,1857
1240,5923,2245,4425,1912,266,1097
1241,2167,-3646,336,1182,1334,-1346
1242,6975,5457,4125,-200,-177,62
1243,-4988,-7029,5875,-1455,1744,-662
1244,-602,-132,-4911,-1209,1937,-1343
1245,3346,31,5761,881,-306,946
1246,3097,-7866,-6287,1278,-1159,1097
1247,4168,-613,-159,885,928,-952
1248,-5954,7142,-2309,602,-667,-1256
1249,-3359,6895,-3670,1223,-69,1050
1250,7777,-3935,-1501,248,-1602,1444
1251,-2042,-7539,6423,-361,588,-366
1252,-2315,-4473,-3674,-796,-731,-908
1253,-3646,472,-970,1409,1416,-434
1254,7198,939,5425,-420,1299,-1653
1255,-3793,1889,-6100,1921,-867,1730
1256,7780,-6298,3694,1898,-638,-894
1257,-2846,-2648,4249,-835,-1158,-1492
1258,4689,764,4015,1380,-290,-773
1259,704,-6820,-4356,-1869,608,1213
1260,-752,4351,-5741,-22,1202,-1325
1261,3217,-7322,6615,876,-685,-1772
1262,5953,1299,-3449,-85,-1915,-714
1263,280,2817,1787,1964,-1693,-1675
1264,-6393,2943,7698,1888,-17,-533
1265,2546,-2999,-4047,1578,1134,-943
1266,4413,3830,-5652,-1519,-1443,1617
1267,-7636,-5849,-6268,1140,-527,-1894
1268,-4648,-3680,-5031,353,-1622,1764
1269,1168,-1004,-2841,1005,-420,-317
1270,-2094,4330,1790,1798,-1873,1228
1271,1418,-4481,-4609,89,-1221,-876
1272,2621,4190,2885,859,-200,-1552
1273,-1773,-6244,1375,153,1728,1705
1274,-7193,-6877,1438,594,640,1840
1275,6543,-2174,-1687,425,760,-1773
1276,-1630,546,-2343,-433,1712,1316
1277,4783,-137,-4839,300,-1982,-1248
1278,-7214,7733,239,148,193,-1806
1279,-797,1665,7171,436,-766,1186
1280,124,-1499,-2546,1439,439,-1700
1281,4749,1135,2174,435,-258,-102
1282,1863,5890,6209,609,675,960
1283,3410,-75,-7666,616,567,266
1284,7950,814,6281,1249,-636,-1372
1285,1120,-6275,-2776,726,499,-734
1286,-6243,7291,6980,-630,-1570,-94
1287,3430,-6161,4548,-1536,207,-1839
1288,-1659,-4328,-7909,1051,480,-238
1289,1201,-6728,-3570,883,-1360,1344
1290,6289,-1707,-4447,1475,-1978,820
1291,-5992,2394,-4539,203,-1742,-1293
1292,2575,-5372,-2369,1986,-602,-176
1293,514,7548,1492,1512,-853,-1602
1294,7636,-827,-5171,-1616,1961,241
1295,1225,-420,-928,-1283,934,-1269
1296,-3775,-7641,989,905,182,-1417
1297,6054,-6754,-4785,-746,-31,-1207
1298,2554,-7308,5778,-553,1447,1858
1299,6252,-7619,1869,1068,1560,834
1300,4339,2076,-2908,-200,1982,-1287
1301,-1,-5952,1862,746,954,680
1302,-2893,3799,1343,325,264,22
1303,6862,-316,1363,1012,-1100,-1164
1304,7997,-2875,78,210,17,-1575
1305,-4962,-7082,1572,1903,1463,-18
1306,-6869,1295,6139,-1179,1223,715
1307,-2702,5736,6536,-479,-439,1525
1308,5820,-321,1301,324,346,1730
1309,-7676,2463,822,-479,1595,-663
1310,7503,654,-7474,545,-1200,-92
1311,2775,-797,-3341,1282,1513,-1546
1312,-5048,-7822,-3396,833,1172,1709
1313,-5578,2422,5325,-1196,1982,-1198
1314,-6719,3116,4274,-691,790,-67
1315,-6010,2993,713,1908,1175,805
1316,236,-3321,848,-877,-442,-56
1317,-5884,7840,7366,1560,1744,1909
1318,-3707,-7262,-6398,509,1838,1865
1319,7924,3777,2115,-1626,1339,-1242
1320,2081,1073,-267,756,-918,635
1321,-2534,3005,-405,-697,-1628,-918
1322,4497,5233,3894,-588,1098,-1623
1323,-3118,3648,7070,1744,1119,323
1324,3553,-6455,1615,-357,709,-1357
1325,3095,5497,1031,174,585,779
1326,7220,-6376,4715,-1845,961,1096
1327,-1872,4654,-501,1904,343,1597
1328,3232,-2411,2221,830,920,818
1329,3920,-1439,6300,-1464,1400,-32
1330,-7821,-3212,-939,-1792,1895,-1601
1331,-7903,-5344,-189,1235,-241,1586
1332,6809,6652,-6453,-1552,815,-505
1333,-6684,5608,-6145,-575,988,1954
1334,-3469,2400,1642,1771,-1398,-132
1335,7435,-1357,-2725,-1720,0,1530
1336,6313,2398,-4814,484,1782,-1645
1337,-1857,-809,-7854,-427,1859,515
1338,-3849,4745,-2638,-606,-968,-426
1339,-1730,1889,-6065,807,1249,1768
1340,6669,-4216,-1367,1639,-609,-913
1341,4445,-370,-2226,1315,-1110,-1118
1342,2229,-3192,4958,776,-108,-587
1343,4335,-4359,-2325,-1576,-992,1280
1344,4802,-4014,1220,-321,1911,-504
1345,3812,6229,7631,-93,-1396,-1821
1346,6430,-1488,7323,524,146,-1748
1347,3848,4977,-2181,966,1459,-932
1348,2848,622,6816,620,-1270,-1945
1349,-2441,-2890,7262,-1975,1021,1549
1350,-7574,5520,-5777,-1891,1842,1747
1351,-3324,81,-4234,143,-1939,-1142
1352,3337,-5884,-3624,-1873,1739,988
1353,6242,4460,7444,-1389,853,1296
1354,3564,-4670,-3983,-281,-1917,-976
1355,-7990,-5035,-6130,-868,1075,-641
1356,-7933,-1671,568,663,-1025,-1859
1357,-1601,-583,1649,1164,148,886
1358,-4314,-1435,4110,-1582,1974,1032
1359,204,-2666,3347,-1748,900,-1953
1360,-5097,-4763,5273,-17,-1915,1677
1361,-1534,4428,-2224,608,685,-1958
1362,-2229,6214,345,-301,-176,-1820
1363,-2955,-2519,-2912,1806,-1312,590
1364,4765,-1993,6526,1090,1258,927
1365,3881,-6729,-2346,-632,205,1748
1366,-7841,2117,6117,-223,-1010,-1605
1367,-1121,-6991,805,-504,609,1381
1368,3365,4291,3877,1811,1954,1740
1369,-1631,-7435,5346,-340,1134,1009
1370,-6756,-1264,985,293,-747,224
1371,3225,-556,5577,1703,-1311,-440
1372,-7601,1581,6731,791,-1665,1841
1373,1312,7423,-6850,-1587,1860,1217
1374,-6273,4767,-5892,635,1991,442
1375,2097,-1573,-3557,-1788,-371,1804
1376,7838,-6028,1301,117,530,1987
1377,542,4446,5822,-1905,-848,-1169
1378,-4246,-3666,2356,-1883,80,-679
1379,3474,-5302,2403,182,1713,1506
1380,-7923,1649,-6108,-751,1984,99
1381,-6363,4590,5008,1600,1594,580
1382,2495,-409,-1172,829,1700,1035
1383,4886,-1495,1598,97,-582,1497
1384,-213,-6979,-1821,-744,-1295,380
1385,1286,3798,2740,-1539,1640,-800
1386,554,-7503,-3860,-1367,-342,1441
1387,-4259,-4220,-6840,714,642,-153
1388,-86,-6568,-5962,-1168,194,-257
1389,6955,-3951,6834,-1643,1390,-884
1390,6431,-3181,-6180,1621,1299,1635
1391,3453,1038,2512,98,-510,1022
1392,-4618,4231,-667,1771,1734,1485
1393,1950,-5460,-3857,-140,1267,546
1394,7059,7837,-1484,1582,1111,-1134
1395,6743,-6208,1772,1212,1984,1132
1396,833,-7137,-6423,-1911,-780,-1854
1397,-7264,5253,2223,-1075,-949,1533
1398,6018,-4349,1049,1737,-402,1962
1399,-5322,4431,4435,-632,1266,1030
1400,-670,78,-4441,-1587,-1731,-352
1401,-2366,230,598,-1622,-348,-1216
1402,-4520,4965,307,-616,1347,-294
1403,-1130,3920,-7103,468,-1581,-1317
1404,2647,3858,-1296,534,-1565,-1202
1405,-5467,4116,-6491,-1934,1467,-1038
1406,-131,-2252,2218,1694,-565,-1963
1407,-5680,-6284,-4539,-842,1943,-1002
1408,-3318,2304,4969,-174,-385,-1264
1409,-1693,6537,-1374,654,-1584,425
1410,-530,-6473,-5040,-1694,842,581
1411,-2857,4739,1163,-1062,-302,-1974
1412,-7135,2127,783,-273,-1595,1501
1413,3277,4085,-2144,-996,1821,619
1414,-2098,-2793,-6706,1971,-1918,1593
1415,7452,6958,4733,1416,-1437,-892
1416,-5392,-7475,-3051,-1913,-1445,-1620
1417,7606,5684,340,148,1019,1737
1418,569,-5544,1300,-1506,434,1539
1419,3941,3672,-2759,-1807,725,-1378
1420,5037,-1346,-5324,935,279,-1727
1421,-6205,-2446,-7188,-1499,784,1337
1422,5869,-6024,4634,113,1990,-390
1423,-2484,921,-4369,-1474,-1275,16
1424,3566,-1651,-6585,1209,-1276,-225
1425,-1155,2619,922,-410,-139,120
1426,1970,-763,3373,228,-1123,-1383
1427,4896,3959,7159,654,-110,-1170
1428,4362,5078,-1386,-859,-1703,-1817
1429,-245,6249,5924,-703,1978,-981
1430,-4671,224,-3029,1888,-1116,-1577
1431,-1604,5517,1383,-833,1054,1216
1432,6289,-1231,-3698,-417,-77,302
1433,-4057,2769,3064,-1001,991,115
1434,-3126,-2771,3626,288,-297,-483
1435,-6996,7050,-4543,46,-413,-1609
1436,3708,-486,-3936,1564,-1175,36
1437,6531,4127,5883,124,1520,-1274
1438,6837,-5797,-6354,1135,405,-1118
1439,-7596,-7326,-5829,1414,1069,547
1440,-969,-538,3937,90,-1548,-683
1441,-4248,-571,1030,1508,-1524,1970
1442,1731,2422,5890,-1051,-734,-768
1443,6840,2399,7394,-1218,1966,-1428
1444,4573,3729,-3872,-869,-1418,-1822
1445,-206,-923,-4556,97,-1271,-252
1446,7447,-2785,-6709,727,-82,393
1447,-2519,-1462,-4139,1060,-1693,-490
1448,-1356,-346,-5764,-1768,970,-1142
1449,-4093,6563,-3321,1195,28,474
1450,2387,2581,-4796,970,1606,307
1451,5462,-1279,3192,992,-376,1102
1452,-2878,4744,-5526,-671,-567,678
1453,-6604,2758,1207,-1708,7,622
1454,-4982,7958,-6985,104,-987,-1347
1455,-6212,-7188,-4325,817,748,-1313
1456,6698,-5979,-1987,878,-560,-1632
1457,-839,3021,5175,165,1223,-345
1458,-2680,1486,4693,-1294,1874,1467
1459,-478,4430,-849,397,-294,8
1460,6727,-3535,7091,44,201,300
1461,4547,6650,-1295,-823,-269,-1797
1462,1458,2095,2801,-1065,25,-1029
1463,-4296,-1915,1975,340,-980,685
1464,7216,-6858,1754,1009,-1479,-404
1465,1738,1643,871,391,792,756
1466,-3482,-5240,6655,1420,770,1786
1467,-5939,-1504,6234,1314,718,-1151
1468,-4555,1753,4832,1638,1312,-1858
1469,5486,5924,3474,-680,1590,-109
1470,-7896,4175,-5150,548,-98,-1592
1471,7131,667,-7035,-439,-1830,1404
1472,1496,-4231,2389,1472,-1723,-309
1473,-6576,5814,-3320,-1887,1558,-106
1474,3937,4791,-3415,908,1348,-1545
1475,7471,7846,6860,-449,-75,90
1476,-336,-5044,-3944,408,-840,1306
1477,941,6677,-2791,1340,-1787,549
1478,520,625,829,-332,-598,-1934
1479,-2468,3881,-7463,153,640,72
1480,-2515,4809,6576,-29,890,-661
1481,4084,-6896,-2948,-1678,-174,1108
1482,-2062,4588,-7021,1331,1721,-1694
1483,-3960,-829,5228,-288,31,963
1484,-4478,1765,-1985,-1519,-337,1464
1485,7190,1247,-3226,-1666,576,-1906
1486,7144,-4095,7843,719,-1821,1301
1487,7873,-5703,7074,843,220,-375
1488,689,-2390,-957,494,1789,1452
1489,-6870,2376,-1471,206,-1918,-348
1490,-7337,1113,-1367,-19,1362,1010
1491,-683,-6656,5550,-1287,-1710,-1540
1492,6625,3062,7878,237,-1837,561
1493,4922,-4403,-6095,-1329,1661,-1837
1494,-3760,5482,-5593,359,-1307,1579
1495,-1850,-7959,4169,889,229,-571
1496,-356,-3568,-7018,1019,-869,-1393
1497,-3595,1471,6658,934,-805,1008
1498,6820,2554,4296,1201,1517,-1397
1499,7919,3270,5401,1430,-467,1676
1500,6803,-3843,2262,-650,670,1431
1501,1697,2923,-5144,-24,675,-1630
1502,-5461,-6088,-637,-223,-931,348
1503,-6827,3187,-3439,1248,-328,843
1504,-7039,4519,-1764,-1512,1924,1041
1505,-865,-2457,7504,-1599,399,844
1506,3763,2560,947,265,-1792,853
1507,5070,-4639,-7179,1577,1285,-1174
1508,-4963,1939,-1933,436,-1111,-727
1509,4164,5220,-5599,-1497,1897,1488
1510,-3314,-3251,2975,-903,-1935,407
1511,704,-7357,-6829,-1335,-613,-698
1512,-6051,908,-4115,-1403,-1602,551
1513,-883,-5685,3802,-1468,256,715
1514,-5238,7552,-7809,-1605,-422,1477
1515,1636,-5302,-7074,392,-176,465
1516,7784,2758,-7841,-1781,-1533,-34
1517,3933,5815,-7627,-1794,-83,-1684
1518,6587,7935,1356,467,1800,-764
1519,1830,-4739,-2586,705,-1325,1449
1520,-1025,-3459,-7531,884,-20,-1584
1521,-3477,-5681,7695,112,-240,485
1522,2274,5634,4366,584,-410,1819
1523,3123,-1505,5652,1601,945,1209
1524,-225,-4000,-4185,-1997,-803,-1821
1525,-1743,6257,-4272,44,-1249,-1176
1526,-700,-5207,6018,396,1361,183
1527,-5664,-3957,6111,-1099,-1135,1425
1528,-628,-3221,-2417,-403,1693,1625
1529,-5998,7825,6111,-1398,1596,-1887
1530,-7087,3975,1020,-831,1610,1626
1531,4752,-1329,-3745,-1222,-1950,-1998
1532,-3310,-1941,-6562,1493,802,239
1533,-5491,-207,1243,1058,-1412,715
1534,-2279,2346,5553,-487,1021,-1238
1535,-6141,4251,-7442,-526,528,285
1536,-7593,-558,6581,-497,552,-1108
1537,-6094,3778,-5897,-1316,134,-1398
1538,3451,1393,-1341,1825,-1963,-717
1539,5870,-6636,-5767,-1357,70,1144
1540,3422,-5916,7502,-371,1415,-1973
1541,-6366,1327,5074,217,-1802,-962
1542,5572,1695,4234,1296,950,-1354
1543,-1988,3021,1501,-329,-395,-208
1544,3947,-4120,-6846,-679,223,-1161
1545,2034,-3542,-480,-688,348,285
1546,-5176,-7868,-1075,-919,459,388
1547,-766,5830,2814,1135,110,-1306
1548,-3936,-3618,-5552,590,699,-1607
1549,-6871,4544,-5373,1870,-222,945
1550,-1970,-1180,-7332,-596,909,-987
1551,-7156,4499,7213,-1853,1106,-256
1552,-5075,-97,1644,-445,-1229,-404
1553,6618,-2143,327,-912,-1168,887
1554,-2185,-5452,3426,1418,237,1450
1555,5288,-183,955,-1759,-268,608
1556,-958,6924,-7205,1780,1506,-1323
1557,3688,-5875,-2205,-1740,174,1648
1558,-4806,6499,-7018,-528,-260,-634
1559,-4427,6552,-3240,-970,55,-467
1560,-4562,-4245,-2592,1647,-1999,1540
1561,-4428,181,4619,429,-1552,917
1562,-6780,-1933,1394,701,-1575,1343
1563,7008,-2271,-6744,76,-60,-1876
1564,-3461,-1486,-1000,1053,378,1750
1565,-3486,6847,6719,-673,-1466,-559
1566,5321,-197,-8000,803,550,-1962
1567,-4235,-6113,-3261,766,1981,800
1568,7103,5793,-7155,1077,-1406,1547
1569,6188,1616,-2144,-935,-6,1844
1570,7254,-7605,2442,1593,-329,-1201
1571,-3332,-3533,-6102,1598,34,-738
1572,-2068,-4898,6048,-904,-1259,-1310
1573,6403,-33,-7456,1668,-173,-1247
1574,-1480,5604,3281,831,460,-495
1575,-752,-899,6237,1382,-207,741
1576,-3458,-5386,-5074,-793,1978,919
1577,7309,-5583,4136,-1535,-832,-236
1578,6626,4192,2808,1377,-937,-282
1579,1680,-3030,4119,-503,1948,-1141
1580,-4316,-2274,-1235,979,-1891,-1830
1581,-3071,-4480,-3017,359,1766,185
1582,-6987,-3598,2091,-740,-258,-1267
1583,1644,-7731,-4602,-1504,125,1601
1584,5159,-2815,-4918,1044,1617,425
1585,4097,7582,4069,1046,722,-175
1586,-2161,7533,-5370,651,453,1881
1587,-979,7618,-812,-695,1411,233
1588,3069,-4963,6519,1544,-886,-357
1589,2615,5274,889,-58,397,1288
1590,-4208,259,1195,1893,-4,-1024
1591,-4262,-6629,4910,1933,-1316,-151
1592,3991,-5564,2428,-1839,1059,-1685
1593,5407,-7079,6439,769,163,-340
1594,-195,-2529,-140,232,-1912,-1630
1595,-152,2476,7092,1324,875,-157
1596,-7407,45,6262,-666,-16,52
1597,3827,-7974,1687,1416,-1668,136
1598,6597,-6234,4767,1799,-14,-282
1599,7247,4667,5090,1514,-164,-236
1600,-1402,330,-6669,-206,-1971,342
1601,864,-2560,465,-946,-445,-332
1602,1319,6330,1244,-1796,1264,1664
1603,-7340,-1914,2100,-1105,217,-939
1604,-7678,1421,-6197,7,-750,174
1605,-7512,-276,573,-1053,-1261,-307
1606,-3171,7462,-6950,-1265,-820,1992
1607,-1624,-3518,-461,1458,1846,-1773
1608,2057,-2203,-5842,1468,-107,-1581
1609,3139,-7701,1593,-656,-339,1906
1610,1656,-2989,-383,-1535,1979,-792
1611,4813,-1863,6732,609,622,-914
1612,-4265,-1984,-7805,-1666,-67,-270
1613,6415,-1822,-542,-77,-251,-593
1614,626,6043,-5737,1813,-96,-243
1615,3030,1825,-4699,-708,-1437,392
1616,-5154,6667,6631,-1989,-70,244
1617,7258,2410,2794,1524,305,-1939
1618,-7639,58,2805,937,-385,-12
1619,7892,-5222,-1413,-940,1204,781
1620,-4444,1235,7059,-1052,-1253,-127
1621,7377,3327,22,1494,502,1163
1622,21,3573,-2581,-554,937,-1931
1623,5249,1370,3619,-65,525,494
1624,170,-1833,-1663,746,211,798
1625,1170,3610,-7458,760,887,227
1626,-5026,2743,2844,-1974,451,-92
1627,4567,3947,-2183,-338,-892,1627
1628,-7074,-4411,-4419,-666,-1412,1143
1629,-1916,1702,-6878,1507,508,1284
1630,-6792,3376,-1769,814,968,1639
1631,1600,7663,2785,1228,1182,1920
1632,-7449,4089,5640,1733,1945,-1110
1633,-5359,-2498,6503,-1393,1099,538
1634,-5765,3050,2190,619,-616,1839
1635,-191,6131,7215,414,-322,-104
1636,3773,2299,-5518,754,1073,1398
1637,5903,7857,7448,1160,-1851,-1580
1638,7403,6726,4508,1342,683,72
1639,-951,-5201,7857,147,1292,-446
1640,-6219,-7067,-1442,201,-559,821
1641,-6676,-7455,3731,176,-120,-1965
1642,2525,-3549,6144,940,-770,1663
1643,-3541,-7403,885,-855,-1600,942
1644,-924,-416,-6256,-483,-156,-699
1645,3990,-7075,-117,1391,-882,-265
1646,18,-2417,-5872,1875,1008,1532
1647,-1716,-5754,-5238,1389,-1595,-650
1648,1937,-3517,-5617,-876,-874,-1452
1649,-7721,-7620,-807,-1194,-965,-1302
1650,-5866,-5307,-4488,-858,1359,432
1651,-1115,-73,-904,-44,350,736
1652,-7366,145,-7688,712,-1848,-1082
1653,-6234,199,3787,1915,-1605,-569
1654,-5226,-5008,2392,-165,543,1470
1655,7989,-6568,-2144,1668,-1387,396
1656,-6606,7288,-3063,157,-756,417
1657,4646,-3057,7108,-434,197,1046
1658,7733,930,2325,1857,-322,1040
1659,84,7721,-6398,-299,-407,1817
1660,3930,1323,6092,442,-1465,-1366
1661,-3353,7876,2272,1950,-1953,-558
1662,-7326,-4301,-6207,1541,1933,1952
1663,5455,-7734,4686,-302,-885,440
1664,-5639,6443,-7334,401,946,118
1665,4609,-20,1952,-38,281,-1255
1666,-392,720,3871,364,403,-1772
1667,-745,11,4145,1905,769,463
1668,878,5312,3870,1085,-206,-1190
1669,-5516,5157,2829,-148,473,-82
1670,-7830,-1029,7005,246,233,-434
1671,-6632,-7851,-6611,987,-1996,1019
1672,225,6557,3850,9,1247,-1835
1673,-745,-2345,-1202,-91,-1113,-1943
1674,3693,4792,-6635,1442,-1690,-1240
1675,3292,-5462,6356,-1361,1903,-1832
1676,154,-4276,-7155,703,-1794,-156
1677,6138,5007,-3664,1936,-411,-482
1678,-2474,-2784,-3090,-1895,-281,-1334
1679,-6757,-4782,-1288,-610,-56,131
1680,-7168,-4838,-4129,1382,1352,-1767
1681,5882,-3640,-6488,1459,-885,-987
1682,4630,5309,2890,1176,-230,780
1683,6334,-691,-442,1866,1418,-1410
1684,-6378,5330,-1980,-1957,-1497,-1716
1685,1079,-7587,-699,-647,896,-790
1686,2562,5017,-1627,-1409,269,1843
1687,6204,4465,291,-189,1836,-852
1688,1935,5824,-3277,924,648,-183
1689,2522,-4798,-1115,987,-870,526
1690,7914,-5071,-882,-26,-1130,-1431
1691,-7178,3706,-150,-1218,-785,-1987
1692,-4846,4960,4600,1366,-304,574
1693,-4774,3930,-2515,-353,238,538
1694,-6280,5921,-924,-383,-1535,1522
1695,-6776,7460,-7929,1559,-126,-656
1696,2868,-7191,-603,241,-1109,399
1697,-610,549,-3779,-1305,3,-1582
1698,5435,-6414,5328,757,-1330,1633
1699,-5131,-3407,5153,-773,-1404,-43
1700,-1264,763,3383,1492,624,-107
1701,-469,-3941,7580,-332,-1454,1674
1702,1922,1932,-2216,-1049,-1842,-1996
1703,5977,7802,7805,-891,1603,437
1704,-3143,-5804,-5723,1880,-1191,-991
1705,-2099,4870,2424,-440,1945,-1819
1706,-6703,538,-1612,-940,1027,-1704
1707,-1220,-6506,-2391,1977,-1347,885
1708,6977,7567,-5034,-1006,-1039,-73
1709,-6920,7587,5276,1604,-793,556
1710,5268,-2108,2558,-561,-465,-372
1711,-2945,-6688,-3290,-99,-693,473
1712,-1279,-4765,7881,-1478,1403,-1586
1713,178,-2296,1205,-1782,200,1959
1714,-3916,5037,-32,-899,1858,1097
1715,4439,167,-6293,100,388,928
1716,7130,-5004,-5119,-1579,-1141,-1965
1717,-580,-6437,-3744,1863,1740,-924
1718,6939,-1441,-3439,-47,724,1012
1719,248,6771,7613,-1698,-459,416
1720,1030,3078,-2800,1644,1641,-496
1721,-7790,6327,-4870,1380,1636,-420
1722,3796,-1061,3049,152,1220,71
1723,471,6738,-1426,-700,1432,-264
1724,6268,1415,4978,987,1456,-451
1725,-16,-7142,-1684,-1073,-11,760
1726,2635,-5133,-8000,685,-266,699
1727,7717,-6258,-5968,-1084,-505,1082
1728,-5382,1071,-3726,-897,149,-37
1729,3751,-4965,3365,1602,-430,-1440
1730,-100,2568,-1722,-1357,1304,38
1731,-394,-4765,-3403,-696,-440,-1836
1732,-2352,7325,3495,-824,1895,1424
1733,7300,4470,-1709,1897,401,147
1734,1580,-113,6663,-600,1251,-459
1735,6173,6408,1013,-625,-966,-84
1736,-3171,-475,7362,1403,-775,726
1737,1790,-6996,-7461,-914,676,-557
1738,1516,-5529,-680,1092,299,752
1739,-3252,-1370,7642,1802,-1429,-302
1740,795,6612,-6415,1699,-737,1871
1741,3670,-3671,-2004,1881,1751,-1641
1742,-6159,3648,-5671,-1930,672,130
1743,-4112,6246,-7337,1868,-61,-701
1744,-1054,1429,5718,-1673,-1023,-818
1745,-2700,3278,271,913,1776,-1540
1746,6852,7325,2924,-1184,-1727,1828
1747,4054,-990,2517,-889,1469,493
1748,3924,-5798,-7947,-467,-975,701
1749,6058,-6648,-1991,-1825,827,517
1750,-2231,-6550,-6922,-1977,1560,-1879
1751,-3098,-7411,7595,-235,-1978,-1193
1752,-6798,3912,-1463,829,-1788,579
1753,4763,40,2612,-831,461,-844
1754,-2706,-1171,1708,737,1286,229
1755,2794,-4453,-1995,1119,-1049,1688
1756,-4887,1724,-1184,735,-1245,1838
1757,-3382,7502,4548,1372,-634,1278
1758,-5373,3541,-2025,-1582,-548,-1823
1759,4596,-5015,-7178,43,507,1610
1760,-1754,928,4049,-13,614,1808
1761,4981,-1110,2242,-523,1473,1964
1762,5171,-5552,2604,-228,-1732,-1972
1763,3641,-4830,6457,1509,605,191
1764,5183,3198,139,1290,1724,-685
1765,7271,6431,6358,1231,1045,193
1766,7749,2508,-6565,550,-240,-952
1767,-149,-6487,4055,-54,404,-697
1768,5029,-6346,3765,592,1898,958
1769,-7230,-3375,-5128,329,-305,1319
1770,5887,3306,-3701,-1287,-1695,-402
1771,5977,-7747,6125,-947,-405,1482
1772,-2929,-5507,-4404,444,1544,913
1773,-7665,-6743,1581,-1764,-1416,1205
1774,4259,1698,-2304,-1050,1594,-387
1775,6583,-2472,7957,366,-1513,-1934
1776,-298,-312,2324,-265,1735,1848
1777,-3088,4652,2814,35,-915,1458
1778,2734,6937,-5730,420,1465,538
1779,-5830,4594,-1623,-188,-1210,1580
1780,-6753,-1482,7498,454,673,299
1781,2071,316,-6096,-1152,1295,-188
1782,4891,-7934,2489,433,-216,-613
1783,-4529,4042,-5859,1487,486,1280
1784,1033,-7582,2393,250,1380,-1747
1785,6892,7884,-110,-1129,1446,-1365
1786,5841,-2744,664,-1551,-1332,-295
1787,1865,-689,-5740,886,-1000,-759
1788,-5002,1788,-7646,-1323,-1144,-448
1789,6936,-3422,7909,368,1679,1831
1790,6427,4147,-1582,1298,1421,-1025
1791,6547,3060,7465,1402,1697,-704
1792,1328,3018,5180,1036,1154,1256
1793,-2967,3219,463,-834,413,464
1794,4238,3409,-1691,1574,30,90
1795,-3705,1761,-5488,1875,-1077,1350
1796,1049,-5964,3622,-1440,-1692,-1948
1797,7797,-587,5628,956,-1925,-515
1798,-2720,-1147,-1277,617,-255,1758
1799,1006,-3842,1635,-1660,1783,1211
1800,-4993,6020,-6355,1532,7,-1096
1801,-4341,-7124,7718,-1785,248,1650
1802,-2633,-210,4391,205,1019,-780
1803,-4991,-5272,-4517,-1668,-175,694
1804,551,-6583,-1186,1678,615,-1857
1805,-3020,-4855,-1675,109,-1545,254
1806,552,-1812,-213,1041,827,-181
1807,-1140,6207,5329,1001,-1463,-1582
1808,2664,3565,2457,-1091,-574,777
1809,7320,6225,-3579,-1487,-1205,-1883
1810,5242,-3847,147,-946,1152,-762
1811,-5377,7137,-5184,713,-1760,-1361
1812,2078,5332,5812,13,1491,1049
1813,-6092,-2314,6471,-195,-933,-1058
1814,7241,-2863,-919,-1786,416,759
1815,-2832,2593,-7150,1664,-1212,-1766
1816,-6927,-136,-7410,-1093,-1131,133
1817,463,4529,4110,1961,1831,-1078
1818,3263,2108,-6855,-722,629,1959
1819,6295,558,2343,-1542,1146,-1445
1820,-3577,1969,1850,-230,1077,204
1821,4055,7711,531,-680,1091,-1340
1822,6570,-4788,-2881,318,122,440
1823,6178,4259,509,1382,1478,248
1824,3078,-4622,763,483,615,1275
1825,6992,7347,6798,1689,1805,514
1826,-2518,1930,260,-1791,1857,1605
1827,1963,2915,-6835,-592,1841,1561
1828,4889,-7303,-4812,1869,-608,1622
1829,-4826,-6693,-123,-1024,1424,1384
1830,-2477,-2622,-3410,388,-1304,1275
1831,-571,-3716,-5935,892,-931,964
1832,7213,-5820,-3393,1380,-162,666
1833,-1213,1424,-2475,-1839,282,-603
1834,-6830,1942,1401,-329,-664,-637
1835,3978,-7968,6578,-156,-30,-1298
1836,2562,6219,-6705,-1665,-1608,1724
1837,5369,398,2572,-293,1416,551
1838,-2680,-3390,1224,-1305,-1867,-1846
1839,-326,1961,-806,1549,740,-900
1840,-6429,1933,4279,1739,1142,1061
1841,-4274,-2610,-6544,1848,1584,1368
1842,2647,-5503,-6363,-1213,1962,756
1843,2749,5782,29,-914,-2000,-1445
1844,5525,4954,7071,-535,1056,-23
1845,-6598,-5490,-4572,-1787,1497,1746
1846,2125,-7367,3689,-1076,-1463,-540
1847,-5068,-6028,1384,1291,-650,1404
1848,6668,-2084,-6491,1340,-926,1355
1849,-1798,1413,1398,1371,-1593,1999
1850,-1936,7831,7085,-479,348,825
1851,-351,-4348,7426,1162,1683,481
1852,4751,5895,-1446,1759,1194,-697
1853,-957,-7930,6667,-462,-1049,-1102
1854,-913,7291,-1618,1704,-992,853
1855,-1886,2555,1573,-435,1152,-398
1856,-4937,-644,-891,-871,-109,-253
1857,-2936,-5634,5082,-1358,142,1753
1858,682,-3229,-4758,955,1890,787
1859,-1210,5168,7827,959,-628,-1274
1860,299,-5749,-2121,-318,1997,-1005
1861,-5899,4432,3970,1943,1401,-438
1862,5988,6498,7408,281,-1863,1937
1863,-1324,-7968,2630,1166,732,-1017
1864,-607,383,-1062,-1827,-90,-1942
1865,7637,-7516,7823,44,1059,-84
1866,-2820,7530,-819,-1825,252,-1441
1867,-3399,-2167,-1384,471,-1162,-1549
1868,-519,-6812,-3783,321,519,-214
1869,6118,-1529,-3729,-547,329,-950
1870,-6133,4633,-7728,380,-1532,-370
1871,1525,-6312,3996,1086,-1699,-1597
1872,356,4060,-2758,1313,723,482
1873,1774,2268,-2434,-1824,-1794,-1844
1874,6201,-5431,2839,-1658,1537,1940
1875,-3447,-489,-3647,129,415,-711
1876,6874,-7282,5242,-1816,105,-773
1877,-924,5435,-1620,-1220,971,78
1878,-2879,-6459,-6713,-1520,1560,-733
1879,4608,7076,2429,-1386,1393,-1577
1880,-7577,7973,7617,486,-929,-720
1881,-1707,-4915,5804,963,868,347
1882,-1276,141,1876,-1792,-1069,-143
1883,6594,-4216,-673,-1762,-1931,400
1884,-1615,1679,-651,-1697,-1920,-1106
1885,-7967,2245,1873,424,163,-654
1886,1874,5075,7591,91,-38,-1050
1887,-5846,3769,4891,-125,374,1099
1888,-1832,1888,-4081,-88,-1871,-948
1889,6810,1094,6900,-1458,-540,-70
1890,3225,-3159,1570,-562,142,1846
1891,4867,1638,6825,-1865,-1179,1726
1892,6358,3277,-6657,-1907,-1180,1378
1893,6924,-7340,-6085,-319,315,-1210
1894,380,-3286,-160,1979,39,-886
1895,2703,4235,-646,-958,874,-114
1896,-6079,7931,-843,-1921,1548,463
1897,-7700,-6726,2976,588,497,-972
1898,7074,2997,901,660,-1923,-683
1899,-2537,1695,-6175,-224,-254,437
1900,2772,-6854,-2946,-1465,1194,-79
1901,3938,206,3435,117,1562,-1018
1902,628,-7712,-4156,1324,299,-175
1903,-1551,-2942,-5619,320,-461,379
1904,-5782,3379,-7039,-1314,-1488,1593
1905,-4573,4584,5829,-1622,-571,1709
1906,-5005,-3553,-6300,1708,-1649,-736
1907,-1647,4029,1331,-1516,-1639,-226
1908,4299,5822,-7600,1919,-313,-1042
1909,-3194,-2575,-4010,1797,1056,1189
1910,3711,-5598,7495,1140,325,-501
1911,-5754,-6874,3783,-1929,-1900,-439
1912,319,4939,3743,-623,-1683,1592
1913,-5644,382,-3342,1299,1217,1456
1914,3443,-7267,-3728,-1435,1511,1629
1915,2899,-3253,4211,-635,-248,1660
1916,-4543,-7969,-2595,-166,1378,-1832
1917,4841,146,2762,47,-1147,-1183
1918,-1427,-1227,3548,-1398,687,-663
1919,-1930,-371,7027,-1985,911,1524
1920,-5332,-5552,-6318,-878,584,-1823
1921,242,2016,3491,838,-775,-321
1922,1888,4266,517,-569,1076,-1905
1923,3292,-2481,-3533,1505,-357,1085
1924,4884,-4504,-4790,630,-873,-1450
1925,-6738,-790,-7266,-1976,1832,289
1926,1788,4665,-6118,-1707,-63,1495
1927,3334,4182,-4542,-1757,-1136,1579
1928,5850,7046,3897,-320,-685,-338
1929,3379,3030,3658,1412,-1326,1992
1930,131,4383,7222,1140,1091,198
1931,-3810,7606,579,942,-1999,24
1932,-1533,-1625,-197,1545,430,22
1933,-5841,7168,6829,-1715,254,1532
1934,-3813,-150,-1850,851,-1340,509
1935,-4365,1907,2457,1638,203,-53
1936,-4704,7767,-4514,-1709,-1803,-211
1937,4371,-2403,-26,1982,-244,1554
1938,-3114,6384,-2069,-1111,-1315,-1863
1939,-7637,3142,3105,-1569,1395,-562
1940,4631,-326,1857,1632,1100,-344
1941,-6592,253,1811,1847,-1923,-387
1942,-5722,1855,-7963,-665,1502,1303
1943,-2800,-1182,-805,8,-1952,-161
1944,3396,5838,2424,1191,-777,1071
1945,-5568,-2946,7870,-1644,1780,85
1946,2640,6862,-1030,665,489,-367
1947,-2309,-7302,-3402,-1949,-789,-1294
1948,-6128,-6594,-372,1289,-755,-1789
1949,-7301,-5465,6415,-1935,403,546
1950,-1680,4398,-6544,-123,-24,475
1951,6076,3023,-3776,641,-1629,1901
1952,6609,3194,7076,1831,1755,1732
1953,-1515,6606,2890,-974,-1217,-437
1954,-5790,5542,4853,988,1610,-293
1955,-3324,3842,-1535,4,1197,-24
1956,-882,3698,3682,234,-24,1783
1957,2430,6486,382,1267,-1385,-462
1958,1667,-718,6546,890,727,226
1959,626,5503,3734,1354,-1644,1792
1960,-4069,-6424,6102,1558,-672,-1163
1961,-7067,-2807,-6482,-1788,-756,-889
1962,-3951,4654,654,782,-1855,1180
1963,4899,6278,-4152,1599,-1135,1164
1964,-4145,-7876,4230,-897,-1075,-1404
1965,1881,-271,-5582,-669,882,-207
1966,-1517,-6444,3521,1277,-1146,-1257
1967,-38,-1055,-3751,-520,672,-1745
1968,-4173,-5197,4338,-991,-676,1771
1969,2730,-1408,1831,-917,713,1907
1970,-1815,-7636,-3294,1123,83,-1223
1971,-5279,3365,-7544,-92,1345,-1373
1972,-2,2122,-6609,704,1844,-1690
1973,2039,5176,3522,-855,460,1257
1974,4989,-6898,-1639,-1465,-1342,868
1975,-5589,-5807,3900,568,-942,-1846
1976,-4870,-4989,4976,-922,-1497,1542
1977,-4214,3973,-1978,1674,1026,-1114
1978,661,-2525,-5161,-1160,255,-1590
1979,-6455,832,3051,269,703,-977
1980,4670,-5706,-5957,-1466,-674,-1823
1981,-979,-4667,7513,-898,728,1605
1982,-3553,2812,1390,1520,-483,847
1983,-6506,-4859,-265,1811,-1201,-448
1984,-5027,4156,4838,-285,-1905,-473
1985,6000,-7351,-6126,-1379,1529,1267
1986,-7353,6427,1282,1794,437,-750
1987,7597,4946,7936,470,-1414,-961
1988,6094,4686,-7390,-1892,357,-1957
1989,-7768,-627,-5979,769,1358,-572
1990,-1694,-5048,-2762,-490,316,-923
1991,2771,7620,-4385,-222,-957,-1056
1992,5383,-2483,5239,-1715,-296,1727
1993,1366,6407,-4427,-845,301,993
1994,5647,-2231,-3232,-1046,-1001,974
1995,7940,-3561,-215,668,-1057,-1486
1996,-3851,-6110,-2739,-1260,-1654,838
1997,-4369,-1079,306,327,-249,-225
1998,-5717,4734,-6246,-131,878,-1980
1999,2293,-4196,3851,556,1193,518
2000,3333,972,4882,-518,1550,-1964
2001,-1375,-4252,7694,-1667,438,1726
2002,-6901,-5436,-4678,526,331,576
2003,-7202,1163,-5042,1189,750,-1452
2004,-1732,7560,-5148,-1125,-1849,-1981
2005,-7632,-6949,4652,-517,-263,-1210
2006,-7469,-4252,-1504,1226,1183,-557
2007,5012,509,-1972,1431,1408,-1088
2008,-6154,1516,-1547,604,-1253,696
2009,-781,-5210,2757,-1821,-549,1651
2010,-968,-3147,-5203,1783,512,-488
2011,-3976,-5165,-2796,-236,93,-513
2012,-5600,-2960,3741,1223,1720,1158
2013,-1632,-4416,4318,1422,487,-505
2014,-5360,4138,7122,439,1132,-1240
2015,6668,3860,3449,-1645,1975,1889
2016,7323,-3995,-3466,-141,871,-431
2017,2540,-7651,839,1752,1531,-1697
2018,1038,-1927,-6246,1257,1698,1042
2019,6705,-4991,2461,424,823,1746
2020,-4082,-5610,-4852,1503,609,1543
2021,-5138,-1936,4043,-175,-432,1732
2022,-3674,282,3922,1751,504,-879
2023,4417,5322,-5910,-581,-1297,6
2024,5168,-2073,-3863,-1647,-1964,1770
2025,2211,-6309,-3849,997,660,-1034
2026,-7610,6993,-7104,-1125,-1283,1972
2027,-4418,543,4301,1770,-1884,672
2028,-7972,-978,7462,1670,-974,-1098
2029,757,-5071,5333,-1515,-1015,-1855
2030,2044,-5775,-4727,1601,1775,-1182
2031,6314,-7754,4392,-134,-948,504
2032,1981,-6022,1475,977,-378,1331
2033,7675,6748,4756,-469,668,-1858
2034,-7872,-5229,860,-886,1293,92
2035,7956,4428,7263,899,1966,462
2036,1982,-105,4538,-1185,821,1578
2037,387,-62,-5027,-1246,514,1020
2038,-3722,6421,6115,1424,-56,1818
2039,3377,-3832,-3059,-86,1966,-1823
2040,-4172,-5254,-4556,1256,15,-1107
2041,1086,501,-3137,578,-760,-966
2042,1227,-1619,6980,1281,-882,478
2043,1611,3988,984,-545,1842,-591
2044,622,3912,2436,-113,1273,-1767
2045,-7741,-5282,3243,1969,-1739,1352
2046,493,-5793,-921,-1180,-1736,802
2047,742,5689,6169,1945,1174,1732
2048,-5398,-4839,-7385,-375,1055,206
2049,-5224,7783,-3642,-176,-140,840
2050,3869,3871,-2544,653,561,1693
2051,-1472,7984,7472,-1685,-529,1685
2052,-1458,3279,5078,1531,435,424
2053,-7058,-3232,561,738,-1554,-474
2054,-1529,-7314,7539,1165,1250,-448
2055,-4074,-7134,-4344,-482,-750,-550
2056,1363,7780,-7237,1545,-1255,821
2057,6342,6089,6862,1272,1631,-1829
2058,1334,-1362,3386,-1493,-672,-893
2059,735,5475,5714,1420,-1887,-1448
2060,-7261,-1376,6233,-1126,1639,-331
2061,-7236,3498,6636,-275,1246,-1444
2062,-7932,5752,7344,499,88,740
2063,7540,7748,-5213,277,1225,-521
2064,4206,4473,-6158,1299,1887,-435
2065,5278,2983,-5548,1968,1089,1274
2066,2706,-1978,-5335,-368,59,1106
2067,-7432,1611,274,668,-1205,-731
2068,-7403,6153,1813,-437,179,1605
2069,-3494,-6925,5148,1409,184,209
2070,550,-387,-4545,-1877,1143,-853
2071,3218,-401,-818,-625,91,-1592
2072,5130,-4606,-7504,1645,1148,-1180
2073,-2782,4680,-6194,1005,-559,529
2074,-1556,6751,-5247,-416,-1689,498
2075,7020,-3168,3549,-1627,-1113,1788
2076,-2365,-83,-3452,1298,-1144,1307
2077,-5048,-3558,2167,-268,1408,1560
2078,-6105,-250,-5718,1174,1463,1053
2079,4120,1980,-2908,-651,641,1801
2080,7726,-2843,7261,-1879,-1136,-1437
2081,7700,-7584,-7024,558,-541,1219
2082,-3682,2426,7799,-1049,1365,406
2083,-812,2358,-3855,495,405,22
2084,4932,7108,-282,1941,-1639,1298
2085,-6869,1346,2584,-1100,1532,957
2086,7541,85,6725,-484,1607,554
2087,-6792,2852,-722,-615,1057,1903
2088,4338,4220,-1592,-300,1021,-842
2089,-6747,-5546,-7509,633,1638,-1339
2090,6067,1679,5575,228,-899,-1777
2091,5307,-5111,-6004,-1275,410,-1998
2092,350,-2018,-418,-169,-1633,-1294
2093,-2256,3102,5455,-728,-946,-1454
2094,916,-2391,-7500,-1301,1155,-849
2095,-6045,-5793,1360,-1722,733,-92
2096,766,2958,1680,1216,-1407,-1064
2097,-4060,-1150,3122,646,1621,295
2098,-5949,-374,6018,-661,-740,-429
2099,-7775,7268,931,1709,35,1307
2100,4129,4418,-2304,-815,730,-1438
2101,-2370,4756,-1981,-912,-106,-71
2102,4723,6639,3679,1737,-243,-759
2103,-5565,-3087,-7153,-460,-1722,-1592
2104,1670,4655,-6072,-1582,-166,-1624
2105,7073,-6642,-1402,-931,-322,898
2106,6569,7990,-1399,-1269,-28,-1777
2107,3788,4490,6514,922,1328,-729
2108,-4798,-4792,6545,-991,910,1411
2109,-3619,-3694,5072,-250,102,-975
2110,6475,3056,2690,-524,1892,1876
2111,5135,7583,-3300,230,353,-503
2112,6910,1233,-960,-1052,1275,640
2113,-7358,-2654,3404,-232,-577,496
2114,5616,3406,4851,-1810,-1679,468
2115,-310,-2657,-7283,-614,1312,-1041
2116,7070,-3684,5182,1248,-675,959
2117,-3669,1365,5979,1144,519,-434
2118,3835,-6929,380,-171,-3,-915
2119,186,6653,-6248,-1075,-123,-984
2120,-7189,185,4540,-290,-1340,959
2121,4714,-7789,6310,1860,-1576,-1596
2122,-5000,-2122,-754,1656,428,-79
2123,-3143,-4016,-1469,1402,8,-763
2124,7973,689,5863,1382,-584,1793
2125,-6265,-869,1725,-810,464,1509
2126,5388,-1048,4432,-1475,444,-410
2127,-1620,-5619,7746,-1249,-1915,1448
2128,-2794,7579,-5570,-126,-792,1601
2129,-5312,-232,1437,-737,-423,688
2130,6323,-213,-498,-632,-1439,-563
2131,-3448,-5695,-7956,-1420,348,-1400
2132,-5984,-6086,-7561,1109,-1543,661
2133,-3115,1118,-5001,1676,1340,-949
2134,-3892,-6700,-5864,1817,-1734,-76
2135,4253,4359,5300,1344,-270,-1964
2136,5328,-5787,-3380,-1787,1608,-859
2137,6391,-4374,-5245,909,-226,1505
2138,4552,3135,-7220,763,1684,-469
2139,-298,-3869,4986,253,-300,853
2140,6952,7706,7050,-449,-1016,-1398
2141,-3969,2368,6509,374,781,1091
2142,-4744,-79,-885,1853,-1029,1743
2143,-4394,3276,-2252,-1616,-61,-1371
2144,-4148,6618,-6023,684,1175,-1159
2145,-7120,121,2065,-1101,-1997,-367
2146,4587,-1041,6037,-1574,-256,-1477
2147,-3417,4099,3711,-1990,751,-336
2148,2263,-5289,3357,-1172,-447,-953
2149,-2765,-597,-2931,-24,123,-1304
2150,7625,900,4829,-1156,-311,1604
2151,6583,-7359,7349,-707,105,-1033
2152,6547,2482,1697,-555,-1367,205
2153,3897,-691,-7799,-179,-1949,-152
2154,4913,-733,-5543,-1994,1672,-1302
2155,3247,5714,1625,-1404,-1817,-130
2156,3449,1257,-6934,-357,-210,1468
2157,-5845,7551,6462,-1786,-100,548
2158,1793,-7507,-2930,-986,953,787
2159,6149,7114,-6212,-1781,1131,-1572
2160,-5596,-3868,-3321,-1716,-1273,328
2161,3766,6812,814,-856,-1437,1421
2162,-4456,-7766,-43,61,-1847,-1205
2163,-3001,3588,-3212,1290,-1188,436
2164,3904,4025,-7020,-1021,-1071,156
2165,-3110,5879,-3285,1253,-1618,-228
2166,-1038,-6914,-3585,1593,-1545,-252
2167,6180,2270,4617,-1250,-868,1705
2168,-5785,1818,-6570,-125,1383,-197
2169,675,1653,1497,-156,111,607
2170,6035,-7379,6799,605,-817,508
2171,-1290,5540,1997,127,-1360,-1831
2172,3858,-3642,7422,1389,759,-1069
2173,2632,-6172,2577,1218,-383,799
2174,-5027,453,-7912,-765,530,1612
2175,5649,3760,3327,-1030,1446,765
2176,1876,-223,3405,29,-995,468
2177,7297,4761,4869,-1804,1297,-1908
2178,-3344,1032,2544,957,-468,186
2179,-7044,-7979,-5237,-194,-1056,344
2180,-6766,7749,6278,-423,102,-1150
2181,-2856,6477,4464,-327,1220,-1827
2182,2,7890,-3801,-1138,-1192,-516
2183,-5492,-5879,3102,138,386,-1696
2184,6399,-4661,6990,-633,698,1524
2185,-5225,7860,3674,-1490,1107,459
2186,-5425,1434,1561,586,-554,-1080
2187,2776,7413,4840,-1163,-1750,1852
2188,3272,-1832,-38,-710,1636,-1428
2189,1674,-2559,-3210,-1140,1904,1541
2190,626,-7301,-7663,-988,405,1053
2191,3787,7545,3322,-483,348,-85
2192,4671,6661,4600,1804,1617,1183
2193,4352,-2469,2300,-1403,692,671
2194,-21,1757,-4637,224,1013,-1725
2195,1734,-1871,5130,-1508,-1214,-1698
2196,4355,-4341,-2706,1586,1530,1175
2197,-130,6586,4396,1406,-634,-968
2198,7720,2728,-4227,124,1231,1090
2199,-6976,1174,3562,1037,-1721,-574
2200,-5568,7092,1727,-1760,600,-475
2201,3101,-2228,4121,861,-297,921
2202,953,1606,5388,762,-1172,-290
2203,-458,6185,-4433,1249,-1991,-1059
2204,-1678,1724,-6145,140,-140,-1114
2205,2518,-4983,-495,-399,-1390,565
2206,409,2842,443,726,-1855,-1925
2207,-180,-1863,-7615,-319,-944,-1652
2208,2804,-2759,-6715,747,-159,-1437
2209,6145,2699,6701,1703,634,1950
2210,-2705,-515,1377,-1442,-1188,-1348
2211,4963,-6289,685,1919,-1244,840
2212,-190,5802,-5492,35,-359,-776
2213,1534,6244,-1997,-1298,633,1322
2214,-1584,-1906,-6305,-1810,-1456,997
2215,2559,405,-4204,825,1780,-1524
2216,5403,-1472,5969,-1386,-1036,804
2217,442,-3074,6094,-160,65,512
2218,2542,2962,2064,-1994,1689,1794
2219,4923,-4826,-3437,1476,-629,-1946
2220,-5511,7939,6132,-1102,-663,-154
2221,5017,4743,-5323,210,1858,-1094
2222,7155,-7222,4541,-1812,-1647,-128
2223,7245,3122,-4505,1585,-1203,1818
2224,2681,-250,4876,-1024,-504,1563
2225,7592,-6041,-7830,-93,-1786,-312
2226,-6843,-2446,6577,1296,1927,1834
2227,-6730,3844,-5064,-196,482,537
2228,-827,-7375,-1775,-243,619,498
2229,2420,2608,-4913,-1706,1126,-1538
2230,3647,-669,4541,941,193,679
2231,-1049,1525,-4213,1630,-738,-688
2232,-3543,4861,-2055,-275,-250,784
2233,-1330,-3386,4652,1440,656,-975
2234,-1860,5650,-1462,1010,-1894,-23
2235,5253,3867,695,66,1419,512
2236,-6652,3792,-6576,-1380,364,1670
2237,-6456,3219,-1602,-322,1394,-1270
2238,624,-1456,-1928,553,1290,-1996
2239,470,-126,2379,-1857,-651,394
2240,-2172,5174,-816,1649,-1244,15
2241,-3646,7502,675,287,-953,702
2242,-3302,-6540,-5363,1855,1450,-430
2243,-1889,-1454,-7492,-1960,-75,843
2244,-488,4020,6060,-225,-84,-32
2245,3449,-4724,6364,989,670,808
2246,2205,-3768,728,-1183,467,190
2247,6088,3119,-5130,1857,-1908,-9
2248,-3340,-1690,1067,-301,-1629,1868
2249,5120,-2923,1709,-1270,-1988,84
2250,-7625,3520,-2297,-1879,1675,1647
2251,7265,7538,3885,608,-1510,1072
2252,2633,-3533,5149,1756,1531,112
2253,6731,1973,-7880,1718,-128,-427
2254,-5854,4386,7518,-56,481,-866
2255,-1659,-4132,526,-368,-615,-506
2256,-3119,423,3975,-717,-1581,-163
2257,334,-7904,-5541,-1733,1821,802
2258,-2012,3470,-3651,-1409,1086,-442
2259,-5647,5832,-1831,77,-453,1698
2260,-6998,-6647,-5010,-866,-1002,-1400
2261,-89,7402,-1994,-1523,1920,430
2262,-301,-5382,-4328,-709,813,386
2263,-2718,-4647,-659,1121,-1063,1112
2264,1219,2592,-4375,-53,-1803,66
2265,7938,-1836,-4768,-46,732,1428
2266,-7311,-2439,-307,-681,1894,45
2267,1270,-4071,-6600,-1677,-990,408
2268,4880,-570,-2929,-729,1924,412
2269,-1441,3967,7182,269,1066,-824
2270,-5299,-1348,-5879,497,592,1260
2271,4444,-6560,988,-1611,-300,1900
2272,-3524,780,5603,-452,-994,-1518
2273,-7363,-6867,-3485,1598,-1272,-1443
2274,-7808,-1283,-5441,482,1667,-894
2275,209,-2964,4217,-100,713,1967
2276,5694,1565,-7668,-1161,91,-1355
2277,4879,-2265,6091,-450,-835,1841
2278,2071,-7709,1682,373,663,1866
2279,-4461,7717,519,-301,-1356,-357
2280,7137,-2970,-1418,1351,-1815,-1034
2281,-5109,4959,-3909,1722,1763,-866
2282,6561,-5708,1608,1558,-245,-53
2283,5010,6745,3399,1549,707,-994
2284,244,-3339,-3925,1349,1275,-28
2285,-3536,-5384,2975,622,1605,-1599
2286,3282,-4935,1339,1169,1106,149
2287,-7970,-4363,-1571,-1514,-1633,-1292
2288,7430,1659,-5495,311,-1093,441
2289,6551,16,3821,-597,363,-823
2290,-6452,-5295,5288,149,1486,-1520
2291,2714,4138,-4807,-893,-241,1244
2292,-7599,5911,-2310,-1406,-661,-226
2293,-5282,2632,-3672,-1942,980,888
2294,-3865,-977,1749,-967,1216,-79
2295,578,-6549,3779,-1321,-1487,65
2296,-6131,-3280,-4164,-429,-1867,-1540
2297,-7159,-1801,2291,-1489,760,471
2298,6506,4581,7338,-1683,774,663
2299,-2882,-833,4589,1283,-1242,180
2300,4176,-3560,-2549,-522,-1568,61
2301,-443,5310,7584,-918,274,147
2302,7107,-7927,-2817,166,-561,1351
2303,-4015,-6098,-1818,-1700,769,1835
2304,3030,-6086,4778,1525,-1175,1026
2305,7173,-1615,2329,1679,1245,-325
2306,3588,7365,-6710,1400,792,1951
2307,-7622,5903,-1379,-930,1605,1383
2308,-2508,4235,1449,-72,1334,-544
2309,-418,970,-73,1112,739,752
2310,-7056,-5453,5841,1960,-1653,-1306
2311,5985,-497,-3339,-1905,-1806,-232
2312,2739,3680,5362,1076,1562,711
2313,4910,1839,964,1512,-1393,54
2314,-3649,-2950,-6046,-662,1033,911
2315,-797,-3464,-7253,-1107,598,-635
2316,-3764,-3608,-2669,-1681,1691,256
2317,5632,1608,-5629,-526,563,1569
2318,-5801,-271,3141,443,-891,-1077
2319,2,2332,7472,911,-632,-148
2320,4450,5228,4406,382,-609,-724
2321,-5549,6858,1520,-1085,159,-1939
2322,665,-2442,1023,-811,1889,-1582
2323,5488,-5105,-346,1350,404,-1937
2324,2560,2261,-5377,-496,-1234,-1469
2325,764,-7476,-1867,1512,1337,946
2326,-4478,4457,-2081,266,-199,603
2327,6890,4142,1787,-862,496,1031
2328,-547,3726,-2425,-997,-869,720
2329,-4921,-2477,7959,-458,-1037,-1548
2330,4397,-200,-3448,-1585,1162,741
2331,-5463,7002,-2674,-1487,1979,-933
2332,-4392,-2043,-6602,-637,712,135
2333,-5576,-1324,-288,-637,-1284,-771
2334,5924,-3045,798,1567,1982,772
2335,-1807,6751,4321,350,-1026,1468
2336,-7610,2563,7206,249,-1569,-254
2337,4555,5563,-4686,1611,709,1830
2338,-4599,-5677,7657,1018,-362,1388
2339,-5993,-6319,4472,-1478,-1679,858
2340,3734,3973,3216,92,1856,-1104
2341,-4425,-2997,678,-811,743,-31
2342,3074,766,-4067,551,-811,-1890
2343,-3484,-4870,-1814,-1096,-1396,-91
2344,6869,-4502,2226,-1888,1069,-205
2345,1328,-7114,52,-928,1041,-966
2346,-4839,-50,2792,-767,547,-1072
2347,3959,2227,671,385,413,-1340
2348,7579,-6891,-1647,1206,1690,717
2349,4139,-5322,1782,-1803,-514,176
2350,7384,5876,-2195,-1195,-285,-1124
2351,-5248,7174,7774,1264,276,-181
2352,-4636,-3606,6891,-1094,1916,-499
2353,-5976,920,-6565,-651,255,-1423
2354,-4601,4897,6799,289,862,-309
2355,-2848,-4349,-6253,-346,12,-902
2356,-7864,-1578,4341,1065,-1663,967
2357,-7280,-3549,3509,-181,604,228
2358,-6640,6699,-1730,-1064,1392,871
2359,-4787,-5316,-6204,1775,1460,-437
2360,-7695,7053,5417,1839,592,1381
2361,3807,-7828,-670,-346,1834,-1296
2362,-150,-1922,6637,-152,-820,-1253
2363,-2505,-7404,-988,-1744,199,-1384
2364,1757,-2396,7151,1387,-1608,235
2365,7635,-5280,-4054,31,1374,-1295
2366,-2715,463,-2698,676,1919,1760
2367,-2095,578,-532,456,1971,1134
2368,-2256,-1044,-2768,1994,115,1877
2369,463,-1295,-1222,-1421,-257,-266
2370,-2363,5526,6139,94,1351,1196
2371,-5147,6217,1322,-588,-1600,-1787
2372,4656,-2268,7853,-1831,-107,-509
2373,7994,-4224,574,397,-105,-291
2374,-6461,-2070,3784,282,-504,-750
2375,-2847,5353,-1687,1118,1307,-495
2376,-1615,-3816,-1653,1278,1709,683
2377,4293,2167,3567,674,-734,-1598
2378,1307,-1985,-3238,1443,707,-1824
2379,7073,7178,-4566,-1838,-746,-1093
2380,-1769,-5365,-3100,-273,360,-1430
2381,-458,1970,-2265,428,1443,-1481
2382,7570,-850,5217,654,-195,1609
2383,-6376,462,-627,-1434,1856,-797
2384,-832,-5302,-7112,1628,52,1844
2385,521,6972,-4629,-322,-649,-1421
2386,-974,-7440,-1268,643,373,325
2387,-3219,-6470,-695,1184,882,-1257
2388,-1377,-5786,623,-1861,-1481,394
2389,7730,2605,-2827,-41,-720,699
2390,-6602,-3248,277,-1027,936,1871
2391,-2030,2107,896,1932,-1343,-721
2392,6193,-1016,2196,1307,-1186,1911
2393,1394,-4964,-6511,-629,913,-505
2394,-4473,-6048,6750,-1994,342,1477
2395,1969,4126,7435,-130,649,1752
2396,7816,-7436,-3313,-480,-1555,363
2397,-1763,-7498,6891,-1898,-1101,-1735
2398,1618,-2320,7878,797,1359,1893
2399,-3590,-2515,-3607,-1426,-2000,-919
2400,3201,3965,1864,617,-1203,1944
2401,3936,5061,3290,811,249,-1091
2402,-2646,428,-3564,-1404,-1484,1621
2403,-3654,-7954,-3493,1868,-1627,-1065
2404,7575,-6841,1277,-1051,-1573,-1406
2405,6167,430,-6051,407,-1376,-1106
2406,2143,4360,5867,-1942,1462,615
2407,-3949,-2695,7293,-376,-427,1087
2408,2649,-5822,-7065,-1025,-1369,1720
2409,6080,7285,-459,-591,-888,1365
2410,45,-6906,-5368,356,-201,733
2411,-7245,-5798,3237,177,-1092,944
2412,-4930,-3937,1103,1606,-999,-792
2413,-23,-7870,-2732,-569,-1026,301
2414,4887,4628,-6091,1624,-13,-146
2415,4741,4103,-4572,1838,-1989,489
2416,-4885,2380,3149,1853,1188,921
2417,-6021,-4691,-1915,730,624,33
2418,3499,2719,-7535,1391,-173,1461
2419,-6570,6600,-6832,-44,602,-154
2420,-4394,6343,7243,1885,-1293,647
2421,4633,-3853,-3668,556,1093,-227
2422,6638,4375,3443,1553,785,1811
2423,-627,-1422,-4824,-25,-733,137
2424,-1309,896,4347,-1604,-913,1509
2425,3148,3862,-3240,-1325,267,-1783
2426,-2177,7297,-4923,1984,958,1231
2427,7848,6228,-6551,1455,652,-1917
2428,3675,-6592,-147,1651,787,-1519
2429,-4004,-1209,-1005,502,106,-1268
2430,-1180,7763,1771,1980,-333,677
2431,-1253,-5607,-5136,-1,715,-234
2432,-1216,-1558,3701,1385,-152,-624
2433,4444,7981,-839,-1461,-1890,-266
2434,-3959,3454,7962,1244,1311,1629
2435,5856,208,2930,977,-1738,-739
2436,-2574,2508,6924,-64,1286,-745
2437,-6792,6100,-5739,761,-1664,1281
2438,3293,2591,-1920,36,1827,-1771
2439,6493,-6143,3371,248,-418,920
2440,6078,4994,-1786,1624,1210,-446
2441,-7472,7141,-4358,-1109,-554,-661
2442,-1397,-5710,-673,-1344,1041,-1202
2443,486,-522,5681,-666,1723,994
2444,6850,-5145,-1855,68,1768,1726
2445,-4062,7045,-5819,-475,1608,1820
2446,3173,-2743,3465,1386,-912,974
2447,-6523,7139,-4822,-168,-246,1638
2448,5819,-1876,3971,410,835,1929
2449,2172,-3058,5762,307,1229,-538
2450,689,-4996,-3084,-1622,-259,-1666
2451,6087,-7562,-4948,1384,535,-1862
2452,-1192,-6666,339,697,-1650,824
2453,7097,5966,3438,571,1933,-967
2454,-2350,-2469,970,136,1162,-953
2455,6791,5052,-7978,1229,404,161
2456,-3806,-1877,3977,-439,-1535,1381
2457,3946,-3507,7526,-466,-985,-1217
2458,-5961,-6449,3772,668,717,311
2459,4631,6680,-2585,1859,-581,1842
2460,-2628,7194,-6301,-1538,1014,-1205
2461,4981,3688,-2020,1131,1218,522
2462,-4022,-6630,1393,-1852,240,102
2463,6777,5875,7090,1097,1741,-604
2464,-80,-5108,-5604,-348,-1630,-810
2465,-7863,-3414,-3638,-52,-1012,299
2466,-7156,4294,5457,-1786,-1450,-1036
2467,4052,2094,6232,-1089,-1861,1364
2468,3963,-5682,1135,1707,1340,-1987
2469,-2596,-2824,3979,672,610,-1304
2470,-6050,759,-2970,307,113,-1075
2471,-3686,6234,7291,1043,-1715,510
2472,4991,7690,-5304,53,-1626,-902
2473,2455,-1591,7844,-199,-1370,-358
2474,3725,2406,2532,1796,1865,-1366
2475,-2558,2344,2257,-301,1104,-1788
2476,-4892,7509,-1748,719,-1529,405
2477,-6693,3941,-3993,1928,-292,877
2478,-4185,6861,7250,302,-1147,1149
2479,-7089,4528,4783,-1612,1906,272
2480,-6929,-6492,4816,822,1344,-1294
2481,-6969,-4249,-5638,-1732,-131,-110
2482,-6808,-7020,-1874,1671,-1190,402
2483,-6391,-3829,-3445,-1615,-605,-1894
2484,1570,3628,-7650,1637,-766,862
2485,971,3226,-3540,1472,-144,-1521
2486,5659,-3578,-360,1834,557,-52
2487,-664,7427,-1623,420,911,1867
2488,-697,4161,-5266,-964,770,-77
2489,-7674,-386,-2615,272,1950,746
2490,-7426,6240,6818,-1000,373,-754
2491,-2832,-7570,5883,1192,1092,1639
2492,-1153,4566,-7105,1637,1767,-1875
2493,-2515,2961,4028,710,114,33
2494,-7310,5681,-1134,-1263,900,-1919
2495,6911,4019,-3340,1934,-289,-1389
2496,40,5737,797,-941,-448,827
2497,-4101,625,4036,-1298,1284,966
2498,-5317,3547,-4406,-386,-299,1365
2499,5055,-4080,-1449,101,-442,767
2500,-348,7365,-7006,1264,-1417,-857
2501,-1010,2194,5841,1350,-275,127
2502,5265,3218,4628,695,-1264,661
2503,3205,-2971,2406,953,-1724,-1495
2504,412,2390,3204,-1617,-1782,205
2505,-2609,6998,-3942,-468,-442,-949
2506,-1518,1877,-5843,508,-1075,-827
2507,3076,7723,-6951,-833,-1052,1182
2508,-4282,-7693,3715,-799,-528,-860
2509,232,7105,-3360,997,446,-346
2510,4572,2675,-5936,-1126,1694,1403
2511,3063,-7995,-5531,-1949,1302,1185
2512,7486,1528,-387,1990,533,-1110
2513,-6185,2930,-2851,244,864,1397
2514,5919,6476,3619,1140,-248,1489
2515,-5100,7154,1493,85,-657,-1366
2516,-1301,-6768,5214,30,1587,-198
2517,-6493,-4359,1118,-625,-1328,-1054
2518,-2909,-2782,2673,1100,592,-383
2519,6466,-7487,-440,-611,1573,-1638
2520,5382,3476,7105,-1566,-1826,-1076
2521,-2352,758,4981,1840,1097,827
2522,-2094,144,-3242,-2000,-1286,585
2523,3202,-2390,3446,1364,-1143,793
2524,5774,2212,987,-520,-112,-761
2525,-3627,-898,-2116,-1514,-1271,778
2526,3110,-3779,-2932,-1954,-236,1444
2527,-7601,-5022,-3700,1983,-639,248
2528,-4404,84,5171,1925,-71,-358
2529,-1244,-7425,-7553,1378,225,-929
2530,5365,-5370,-4404,-731,274,1744
2531,-7997,2672,6857,-1194,1888,-508
2532,1413,-6684,-6328,1295,-541,1525
2533,-7508,-2697,-6517,-1184,-244,-632
2534,605,3182,6800,-478,1734,434
2535,-1252,-1792,-7758,960,-385,-142
2536,-615,-5907,6672,171,-1256,1156
2537,-7495,-233,-5282,359,1525,-1316
2538,-3444,4983,6918,-996,1443,-1330
2539,-6287,4979,2472,553,1760,-1841
2540,-5419,-1185,481,679,545,-111
2541,-4639,-368,1380,-544,180,1539
2542,-5563,5348,7777,-1721,1403,47
2543,2801,-913,7149,1987,1108,1221
2544,-5201,-3072,-1276,1437,-1850,1915
2545,6053,-2272,1958,-1229,-304,423
2546,-7995,4062,5443,-854,-412,-1072
2547,2505,-3869,-4221,1108,42,-651
2548,5494,7726,3619,1823,310,763
2549,7319,-2456,-2535,1560,670,1159
2550,-5633,-7020,-6391,-442,1309,1499
2551,4995,6150,-404,-1854,1095,-1316
2552,-6944,2674,2539,349,-1002,-384
2553,4743,-6916,3852,-1966,1206,-1155
2554,-784,1229,-4047,1997,1637,964
2555,-4810,666,2486,-837,-289,165
2556,-7678,-1803,-4396,-1802,1595,-625
2557,-987,-3776,831,1424,-1441,-1449
2558,-1088,-4166,2102,-1702,1604,-1392
2559,-3698,6358,-3063,-116,995,650
2560,4775,5497,-5719,1491,1671,-1284
2561,-2544,-1697,-1516,1885,1218,1399
2562,-4575,1235,3010,-898,-1643,-939
2563,7610,-741,-6796,683,1031,1456
2564,7533,7622,753,1429,722,1040
2565,-5225,-6031,5989,764,171,-718
2566,-942,-3356,-516,1084,-1773,-1851
2567,5327,-3882,784,303,-1311,1755
2568,-2191,-4935,1627,1368,-1953,451
2569,-3360,1795,-3835,-867,-238,-279
2570,2620,-1256,2281,298,-1564,-446
2571,3874,-4515,-219,1047,1223,1632
2572,6304,5958,1530,992,761,-685
2573,-7219,4276,-7454,1309,-86,-1595
2574,-7824,6,7322,38,1436,-246
2575,4012,-669,5070,1786,-918,1431
2576,-1073,-1973,7999,910,-1092,-949
2577,-2469,5101,-6758,135,341,-1924
2578,1181,-6707,-5773,-477,-632,1371
2579,-3987,-342,2838,69,-1817,-676
2580,-1672,748,-4802,457,1367,-722
2581,-5747,-7939,3522,239,1279,-1680
2582,-7452,-1174,7792,1675,1046,-337
2583,-4622,-5,-6089,-1156,1993,-1199
2584,6909,-5540,-1972,-1052,-1918,-1605
2585,-3586,6532,-7837,441,-1786,-549
2586,4112,3900,485,452,-1328,-220
2587,6810,230,-4275,-1080,1824,589
2588,7356,-6884,1592,443,1817,1322
2589,6727,-1551,-883,-795,-248,-1284
2590,-3272,6469,-405,-1824,-1520,-598
2591,7943,-4392,5821,-1967,-1986,1465
2592,3926,-216,-2241,1476,491,-826
2593,7674,2684,-2622,512,-504,-1277
2594,542,-3633,-1665,391,629,1953
2595,1256,-5244,3492,-1443,-1366,1030
2596,4476,-6268,6129,-1631,-1074,-36
2597,1123,6950,1973,-1047,1922,475
2598,1269,-3941,5925,-1069,-174,1461
2599,7696,-5355,-6956,-1622,-993,751
2600,-1598,188,7455,125,1430,-1510
2601,5767,-3082,1175,1274,-791,940
2602,-5212,839,-46,-1602,231,1464
2603,6328,2355,-2345,1648,-604,455
2604,6112,7567,-6680,669,261,1312
2605,-5539,-7070,-544,-760,-681,826
2606,4899,5474,4948,-1551,-880,65
2607,-772,-934,-3676,1822,-1649,1175
2608,7425,7352,5181,-1722,-586,-1644
2609,3335,4939,192,-1606,-330,129
2610,4663,-748,3823,1722,-492,642
2611,4340,-1804,-160,-746,1931,-713
2612,-4362,5505,-3286,-1641,1008,-1938
2613,7349,6088,7831,1458,-1304,1601
2614,7643,-3270,-7139,-22,-1288,1505
2615,1927,5354,-6928,-1571,-84,-787
2616,6420,5186,-6968,-1077,-360,1975
2617,-7999,4530,3861,103,-551,-1848
2618,-3207,3799,-3075,1049,-862,1496
2619,2703,7575,-5535,-888,930,-1657
2620,5369,-1979,4249,-1605,280,-768
2621,-2772,7612,6227,1457,1123,1803
2622,2311,3477,-5323,-1055,651,170
2623,7563,-2970,-7902,-762,426,1813
2624,4699,-4566,-3943,1015,-396,-37
2625,1629,-944,5896,-1946,-1234,647
2626,2897,1734,-5342,-257,-1165,-383
2627,-2946,-4890,-2341,383,-358,1051
2628,4719,-3116,7948,-1377,-358,-757
2629,4975,-865,-3804,901,335,259
2630,-6125,1985,7479,982,1347,-1273
2631,-2955,5482,-2908,653,-1327,-834
2632,5318,-678,-430,-352,1206,1719
2633,1143,-3323,7677,737,-249,1637
2634,6801,-5650,-4732,1470,247,1668
2635,5892,2169,5734,-1511,1909,571
2636,-1471,3656,-7793,-968,1999,1030
2637,5006,3130,-2291,1540,-1660,322
2638,-5567,-4397,-3562,1907,1014,-1559
2639,7833,-3493,-7883,34,921,1174
2640,6592,-6911,-4695,330,1939,1691
2641,-6875,-2032,-5398,-255,-975,-107
2642,-6215,7101,-4226,467,1517,400
2643,-2640,1724,-5422,509,-1971,-116
2644,5230,-7290,-6307,1666,-1641,1539
2645,-6895,2969,-5077,1204,1502,-8
2646,-5426,485,-7280,403,-1266,211
2647,4074,-2935,-1204,-1121,-1945,-845
2648,-2318,3222,5114,-1638,1418,610
2649,1801,7624,1429,-1914,-1088,27
2650,-6609,497,3265,-1276,-1202,-1792
2651,1355,7911,6645,1052,-1045,1508
2652,7383,-1949,3550,927,126,-1583
2653,3465,2097,4614,324,572,-681
2654,-6185,7467,-5697,242,213,-726
2655,1675,7437,-1595,1886,-1530,-1468
2656,1228,-6151,-2264,-1475,461,865
2657,-682,3013,-1982,1428,1759,-1307
2658,5133,6546,6380,-946,1330,-1296
2659,-7384,-5587,1442,-1438,-1526,701
2660,-4409,7620,-1748,395,-1575,-5
2661,-939,7559,2585,1697,-1369,320
2662,-933,-3618,3119,-279,85,1534
2663,-1198,-722,-440,1450,1916,-1539
2664,-7322,171,5629,-1613,-1246,-1313
2665,6002,-5302,5829,-402,641,1170
2666,3462,-3623,-1232,897,1532,315
2667,5320,-5022,6640,-503,-546,273
2668,2697,-5260,-3634,-762,-235,1781
2669,2425,2726,2420,-18,-410,-300
2670,3257,4123,4390,-1855,-1763,1671
2671,2264,7950,-811,-72,524,1162
2672,-3827,6536,654,1507,1630,985
2673,-2768,-6808,-5227,1518,908,-1665
2674,-2580,3307,-6602,94,-1206,1029
2675,-639,1982,-7405,1620,-1962,-1351
2676,5630,-4467,-5057,-1681,1487,486
2677,-4319,-6129,3918,-332,1388,854
2678,2000,-6542,4905,1148,-8,-547
2679,4119,3251,-7779,1299,-468,1206
2680,5469,2611,-1184,973,3,434
2681,4805,2790,-955,257,1219,-1762
2682,-2103,5495,3983,-1437,1960,-519
2683,5076,4471,-7467,-1293,-221,723
2684,1027,-69,-7836,36,-855,942
2685,-5359,-5813,-5177,1515,110,1674
2686,-5023,4772,-522,1237,1142,-399
2687,-6733,2767,7189,1435,-706,435
2688,-6769,986,3836,-872,-2,387
2689,7235,7427,-2426,95,1730,669
2690,-6297,-4155,-2655,883,-1904,-178
2691,-3217,-2024,-5582,-1065,-1264,1990
2692,-6439,-1495,3465,1145,-1449,-1024
2693,3410,3383,-6991,-521,1343,1242
2694,2444,149,231,470,-1216,1599
2695,82,-4366,-1103,-547,-1860,-1284
2696,3940,-3586,6687,-1251,-1076,206
2697,2075,-2455,-2693,-161,1240,921
2698,1467,4039,2526,-1220,-1650,787
2699,3287,6265,-7161,-378,-636,-1085
2700,578,2196,6539,1515,-348,892
2701,-5310,3498,-1396,229,448,-347
2702,6160,-3964,-430,1207,-1823,1640
2703,4658,-471,1808,31,127,-1318
2704,3313,-504,7702,892,1884,279
2705,-6288,1842,7030,-1132,-1928,-325
2706,-2403,-3360,54,-539,991,1177
2707,-6210,-1173,-7617,1081,-566,-936
2708,6767,-1603,5526,538,-695,1162
2709,5294,2109,2050,-1183,-244,51
2710,6145,2339,2842,-596,1639,540
2711,-4801,7470,-2720,55,-1519,-182
2712,6294,686,-571,-15,1741,1372
2713,-6924,908,-2727,-1162,1538,-1679
2714,258,1382,1055,-720,1777,1984
2715,4582,-1549,-4539,151,-24,-823
2716,4659,-2980,-1736,-1134,-354,-1707
2717,-257,7439,-225,-365,-184,683
2718,346,2462,7420,1473,-1405,-313
2719,2723,-143,-7628,-1323,-281,1238
2720,-1357,-1246,-3438,1369,-431,-137
2721,-2363,-1166,2129,-1641,1709,-1988
2722,6554,-3029,2197,-574,-800,-1120
2723,5852,-985,209,1558,1802,-318
2724,-5322,1635,-168,-475,-1826,557
2725,7757,-3223,-228,873,1986,804
2726,-5158,-4011,-7456,490,1869,-757
2727,-479,490,4760,547,-1719,1184
2728,-7560,4795,-4023,-634,1882,-794
2729,5253,3216,-2865,-875,1272,-701
2730,-816,2802,-848,1199,285,-850
2731,5977,2110,1570,-471,-1372,1431
2732,-2389,7137,103,510,-778,-77
2733,-6516,4645,-1983,1841,1018,854
2734,-2165,-3384,5237,1894,-1523,79
2735,5326,466,5335,-903,-548,1154
2736,2499,3911,-6024,906,1522,1105
2737,-795,7511,400,-1673,-1736,557
2738,-2812,719,3433,-1446,432,1858
2739,-3105,-2864,7984,9,-1929,1832
2740,-7719,-1321,-1800,1351,1422,1595
2741,-1603,408,4718,1606,-1542,1887
2742,-651,-7986,-1134,1274,-911,-961
2743,-57,-1650,6143,148,681,888
2744,537,-2752,-2615,596,624,-913
2745,-6361,-7613,-4391,645,1571,1822
2746,-6788,6001,6086,-839,-409,-439
2747,6601,6655,-1248,1984,1653,-761
2748,3899,-5117,6634,-963,-1284,-1299
2749,-2455,6191,1643,468,-852,-330
2750,-2883,-2157,-859,182,-1897,-102
2751,3506,7718,-3346,1540,1983,453
2752,7804,-3853,-3418,518,-1612,-1779
2753,479,7077,-7558,1874,-1559,-1547
2754,-1167,2741,1253,1603,-1153,-866
2755,-5308,-6540,3019,-1169,-487,105
2756,-503,-1841,5463,-1703,-1334,-1610
2757,-6924,-6786,-4316,1254,1035,120
2758,4390,-5058,6110,-547,-508,-1528
2759,-4082,-6289,6175,-1287,-628,414
2760,5559,-6580,4847,-1518,1561,-368
2761,4382,6286,-1548,1862,-99,-324
2762,-1333,-6557,-6111,961,336,-147
2763,1094,246,7862,-1404,-1863,775
2764,6865,-893,-3015,847,1380,-1197
2765,-4880,11,-6232,1398,-1373,-1178
2766,-2328,418,1455,-1521,-572,-594
2767,5524,1861,6596,-1716,-699,601
2768,-4776,142,-6058,909,-1960,138
2769,7624,-6100,2673,-360,-1404,1324
2770,3252,-7818,-6167,1327,-1261,-116
2771,-7972,-7923,-6168,1132,796,-1629
2772,-2883,774,5493,1193,1066,5
2773,-7696,-29,-3467,1019,730,1380
2774,6052,-5979,4780,-1884,1442,68
2775,5374,867,6207,-1442,1760,697
2776,2937,7748,-4418,1133,1984,-649
2777,5430,1356,756,-1011,-171,-314
2778,-5669,-5242,-5648,891,1598,145
2779,-2572,-7142,-5240,-188,465,1883
2780,5194,-1009,-732,-1324,-681,-1659
2781,7668,4285,7325,310,-849,1148
2782,5269,-592,-2487,-285,-539,1019
2783,-7977,-4614,-3867,597,136,-353
2784,4774,-4649,3347,766,-905,-1155
2785,7927,-1351,-7188,1784,-1237,1725
2786,7372,6561,-5975,-811,74,782
2787,5717,3882,-6316,872,1715,22
2788,945,6758,-4239,886,-413,792
2789,-947,-6203,-3981,1668,469,-192
2790,-4905,1906,3880,296,-1967,-1517
2791,-5888,92,4310,880,-336,-491
2792,-5534,-2057,3655,753,-490,1241
2793,3430,6053,2138,-1456,1,612
2794,1468,-6752,11,957,1495,-661
2795,3402,1619,2640,723,-242,-984
2796,-331,3130,-2329,569,-1473,178
2797,7,-6432,-6501,-772,1363,1845
2798,7946,-4851,3294,1371,-580,-1261
2799,6741,-6651,-1537,227,1781,11
2800,-4391,-1369,-423,412,399,880
2801,-1361,1368,1520,1300,1326,-1377
2802,-6153,-6925,-3936,-883,85,258
2803,-7955,6827,5267,486,678,1175
2804,-4495,-4617,1733,1466,675,1599
2805,-6918,-3243,3718,214,-1787,966
2806,1222,6566,-6843,969,795,63
2807,-2559,5292,-3594,1655,-1819,-1406
2808,6079,2702,-5735,348,-1362,1941
2809,-6554,-7187,2562,1918,-1324,1301
2810,653,-3920,439,-146,-782,357
2811,-5421,-5808,-5666,1122,-1425,-1067
2812,-2007,7496,-2390,1105,1539,-1745
2813,3516,-1980,410,934,452,1110
2814,-2012,2010,837,366,1977,1455
2815,-748,-6873,-5023,1312,-99,-75
2816,1740,-7768,-574,-757,1770,974
2817,3247,1745,486,-1705,-1223,-177
2818,-7615,-5867,-4918,1917,1102,152
2819,-2378,1057,-5262,270,-183,-308
2820,2801,-1104,-7645,-1109,-160,1564
2821,-3488,-6088,5919,-1517,-845,-1982
2822,-7957,-6870,4281,1282,1985,1201
2823,2484,1930,4769,790,-954,205
2824,382,-5562,-6568,1849,665,-179
2825,5997,5348,-3858,-639,989,-444
2826,-4280,3081,4351,1883,1674,-1589
2827,-2414,-3803,7011,776,-348,1041
2828,3110,-5346,1093,-164,-993,-266
2829,2428,6730,-2271,-1047,660,-39
2830,4048,-4442,-4596,-1636,660,867
2831,4516,3896,406,-1232,-892,-1026
2832,-7249,4815,1699,-663,1286,-748
2833,5494,1373,7494,310,-1624,-557
2834,839,-7414,434,-765,1843,251
2835,5761,-7990,2530,-367,-1709,1735
2836,-1576,6786,2458,84,-826,163
2837,-488,984,-4754,1,-1693,1240
2838,621,6308,-3203,-1291,467,1694
2839,-5430,6747,-504,-1246,1785,-1305
2840,-6066,2636,-2783,-1664,-402,-1537
2841,775,-255,6262,689,-311,1618
2842,3323,-3331,-5545,-379,-807,1659
2843,6217,-5426,6942,-1233,937,1522
2844,3523,-7448,-45,-656,-1074,-1443
2845,1270,-3518,703,-1279,1223,-1894
2846,-4536,6601,-1227,-1521,1046,-106
2847,-1197,-7437,3918,1537,-26,1602
2848,-6243,6607,7625,-237,-1995,493
2849,-881,888,-482,-1320,-734,-1057
2850,-2711,31,5915,264,-822,1778
2851,4615,1104,-6612,-1390,1362,-63
2852,1143,248,2582,-1892,-62,-1483
2853,-6114,-2185,-6203,426,1971,-1589
2854,-6157,-7599,-4954,898,-1682,165
2855,2700,-3228,-3620,998,1644,1366
2856,4483,5785,-6779,43,-261,1348
2857,-7862,-901,-5164,324,-776,-1312
2858,7703,-969,2471,-1726,-92,1566
2859,329,6750,-3634,-1349,-1558,-1244
2860,-24,-7478,-4350,370,333,-1479
2861,4227,4909,5750,-471,1113,-1582
2862,-5650,-3667,531,-910,-331,-172
2863,-827,1284,5910,1244,49,977
2864,-1402,-3709,2003,1202,1917,368
2865,-7581,1217,-6056,-1397,-137,124
2866,-4818,-2460,-1444,-1308,-300,1181
2867,7279,1675,3851,1334,1679,1597
2868,5705,1246,-7532,-368,73,-1701
2869,3638,-1841,-828,-589,1672,-587
2870,-5252,-1170,4777,788,1413,55
2871,7458,-1194,-4140,-105,-1517,-1173
2872,1691,617,421,878,-1642,-419
2873,-6469,5692,5264,316,-1338,-1590
2874,-7962,-814,-2917,217,160,1911
2875,1928,-7571,6853,1515,464,-1926
2876,-96,-2228,-5987,-388,1744,544
2877,-288,2051,5167,425,-259,347
2878,-5997,5743,3688,1076,630,-1107
2879,1764,5376,-718,1171,-1451,-1065
2880,-4248,7370,-839,-681,1346,1641
2881,5644,2815,1242,-955,-1914,-147
2882,3654,-7566,4269,917,-804,-1387
2883,-4485,4735,-4604,933,774,-1211
2884,-1264,-2166,-109,415,265,1685
2885,-3345,-342,-2753,1107,-1772,-1736
2886,7076,-4982,2252,-224,-207,-1392
2887,-3158,3346,-4026,-1352,-70,-135
2888,-7126,4996,7385,-1363,-639,882
2889,-7606,-6873,1917,-1761,-1486,220
2890,1205,-7003,6882,-449,1407,-51
2891,-3458,-782,-4171,-1691,-1421,909
2892,5614,7040,-3656,1841,-94,1380
2893,-1341,1872,2143,1516,-1438,566
2894,-392,-7367,4051,-1220,1662,-1411
2895,5402,-2499,7190,264,-1263,1905
2896,-958,-5696,3903,-1694,238,-283
2897,7543,485,2459,1185,-1264,-648
2898,-7389,323,1877,280,386,1981
2899,3024,-574,-6796,-810,110,1151
2900,-3463,-3236,-2680,538,-117,-1224
2901,-5738,5497,-3896,-1374,-1976,1945
2902,2523,-700,4095,-1509,-1231,-1342
2903,3891,-4958,6951,-42,826,103
2904,4026,-1893,6014,1839,-71,-1344
2905,-4578,-7697,1621,930,-273,640
2906,6107,936,534,534,-459,-1514
2907,7323,1012,4187,1300,732,1414
2908,-1177,5602,1666,-1865,233,453
2909,5605,4308,4025,1289,1772,1134
2910,-788,-1594,-6322,-905,1660,-450
2911,-6569,-3711,4229,-1044,389,-578
2912,-131,-3944,-67,112,-904,-137
2913,5786,-4231,2203,-785,-1670,-105
2914,6173,-2879,6833,1157,-112,1135
2915,-300,4213,-6303,1694,-1095,-791
2916,-3226,-1358,5911,-1311,-945,-1289
2917,-6897,411,6662,-711,-1506,1990
2918,7543,5112,123,-1558,357,-627
2919,1964,-2784,5607,-325,1979,718
2920,2580,-7740,-2325,-468,1201,1463
2921,700,6588,2532,899,-1340,-172
2922,737,-1943,6058,875,89,899
2923,-6207,-7138,-2939,-887,1186,-1682
2924,3046,262,3673,777,1919,-1454
2925,-3670,-5300,-6817,543,909,-341
2926,1272,-7043,-3996,-775,393,-1650
2927,-5874,-5496,-2876,-1028,-758,-89
2928,-2794,-5704,-701,-1189,-187,-301
2929,925,1379,6635,593,-667,632
2930,5046,5820,7485,-1156,-1364,563
2931,1972,5776,-5811,288,-559,-1306
2932,-163,-4188,7043,228,-677,235
2933,5172,3329,-80,907,1028,1616
2934,1404,3533,4110,-1292,-1455,-1659
2935,-3648,1991,-843,-1019,-1081,385
2936,-4643,-2640,-2182,1913,-1561,1853
2937,-7351,3305,6161,1694,345,73
2938,4666,-3179,-4521,357,1992,367
2939,4595,851,-2620,450,-1049,496
2940,2663,-1861,-5305,-201,-1629,1449
2941,-2266,-7138,1988,-632,-252,-614
2942,743,-2973,-886,-1774,-615,-1925
2943,-4174,3550,7462,-555,1614,-519
2944,7212,6104,-7800,1503,-1041,-612
2945,1769,-4278,5911,-1336,1380,-1792
2946,-7860,2059,7562,-1684,1044,-1816
2947,-5829,1650,-788,1063,-654,200
2948,-7447,-5707,5519,714,-137,-118
2949,2949,-4948,-3807,1402,-878,-1579
2950,-2025,-1442,1733,-1159,1585,-579
2951,3971,6985,437,326,-1528,1605
2952,695,-5447,7863,-1809,-333,-1026
2953,1477,-4173,-7454,-383,568,843
2954,-2332,-1309,-5467,-1873,-1314,-1030
2955,-5410,-1744,7520,1363,125,1228
2956,-2246,-7468,6346,-461,1499,-878
2957,1011,-4378,-5425,1644,756,-59
2958,4072,-3984,-7837,413,-592,1779
2959,6979,579,-2891,1350,164,-460
2960,5143,-3550,3930,-441,-1545,-299
2961,1635,4599,-4266,87,233,128
2962,-5230,-2364,6228,1605,910,995
2963,3219,3859,1986,-789,-643,-1054
2964,1318,-3877,-2984,1621,614,436
2965,-6736,1376,-4771,-1132,384,1246
2966,-6695,669,-3499,-325,-296,-266
2967,7698,-4491,3809,848,-523,277
2968,-6506,-7551,-5060,170,-1145,-1977
2969,6199,7510,3194,-518,1788,1341
2970,5457,7497,-3473,1188,99,284
2971,62,7244,6025,-691,-420,-1392
2972,-5453,-5,-2141,1435,689,-1130
2973,469,-4795,4732,-673,-904,4
2974,-2537,-5387,7419,813,174,-489
2975,5532,1320,983,-530,1079,1769
2976,4924,-5362,-3849,1530,222,-1081
2977,-6474,5622,2441,1652,1904,997
2978,6367,-6743,5673,1448,-861,-1859
2979,693,6530,-5861,-309,-1605,1129
2980,7799,-4143,4163,714,-1530,7
2981,5242,3252,-4007,508,-339,-1916
2982,338,1020,3746,-129,166,-1480
2983,422,-7760,-6509,-1754,-590,-1963
2984,-7705,3273,-4953,1413,-573,-675
2985,1048,-7795,-5357,-544,-979,-228
2986,2945,-7924,-5101,-1800,862,-979
2987,5258,5562,-3299,169,1577,-1027
2988,6361,-7018,7622,-1243,636,1605
2989,-2689,7080,4158,504,-820,753
2990,-6365,-5594,7334,-1554,-525,-905
2991,6818,7383,-4080,-1847,321,1974
2992,4959,5305,-6000,1732,613,1795
2993,-840,323,-4494,1895,-1894,1318
2994,-5480,1031,-3157,-1136,-532,864
2995,4673,-7247,7426,1146,-1550,1638
2996,-928,6873,-6483,732,973,-1654
2997,-1002,1254,7653,563,-248,1728
2998,-4482,7676,7138,-1881,1023,1634
2999,-2562,-5248,6739,-1317,-55,1600
3000,3631,-3349,827,1745,1132,1499
3001,7204,5806,-2618,-271,-132,-1032
3002,-4873,-7778,-4594,-1515,720,-513
3003,-3535,5346,-113,-1245,103,-720
3004,5407,-7159,7438,110,-185,-1726
3005,-4291,1246,3455,-900,887,-1391
3006,2616,-3226,-1353,199,473,1216
3007,7262,-5074,6997,1495,651,1660
3008,-2067,6694,5927,411,92,882
3009,2947,162,-5493,-811,-865,-1015
3010,-3578,3234,5303,1109,-1754,372
3011,-5714,-1058,-1195,836,-482,-462
3012,-7058,-373,-4687,-1911,119,-1139
3013,3494,-3861,7240,210,-1873,1230
3014,-4367,1860,-7772,1209,-936,1818
3015,6885,-5541,-4548,-29,-328,849
3016,-6105,-922,4187,1374,1851,-968
3017,-379,450,-1629,-661,-89,-970
3018,-7918,-826,-3498,-1378,180,436
3019,-664,1476,-433,437,645,698
3020,4309,-6110,-5193,-996,1241,-1369
3021,4381,460,2798,-1575,745,-722
3022,-5203,-992,-7974,666,-1617,-1562
3023,3642,-4750,-5469,-176,557,1263
3024,4653,-5150,2853,1760,-594,-1702
3025,3710,7697,-4761,-92,-1890,358
3026,-2069,4375,-6151,180,-739,-1538
3027,-7983,1323,-3012,1211,67,1798
3028,-480,5985,-7615,1320,1268,-1253
3029,-4590,3906,7634,-775,1360,-499
3030,2247,-2414,-940,1239,-1131,1922
3031,519,3475,-5404,1299,1143,174
3032,346,1107,701,218,-1204,1496
3033,-5485,4639,-3658,-1654,32,1293
3034,2448,-5088,-7981,110,-983,700
3035,-2352,-2349,-1944,40,273,41
3036,4116,4361,7730,689,1713,-1164
3037,5345,6313,-7186,560,878,-1265
3038,-206,-1746,2930,411,903,428
3039,-3620,3584,884,753,-1794,-485
3040,6168,-3985,1220,390,-94,-813
3041,-998,4507,5197,-226,-934,-683
3042,7922,-2798,-3983,342,-1672,1454
3043,4260,-7127,4616,-779,1510,989
3044,3718,4976,1533,1459,-536,969
3045,4280,3532,-3510,1440,1416,-1249
3046,88,4163,-2419,-1310,-1844,-881
3047,3089,-6767,1256,1046,-1339,-316
3048,1424,2963,4035,557,428,220
3049,-7037,1037,2784,1561,1552,1703
3050,-7027,-6318,-4396,327,-1815,-278
3051,7994,6211,-7721,955,-670,-1474
3052,-6645,5888,6463,1221,-303,-1066
3053,4092,632,-952,-334,-342,-1295
3054,-6911,-3097,-4840,1852,-1377,-1084
3055,-2072,-4639,-767,-133,-1666,1979
3056,-5801,3737,-1231,-1201,-1928,1488
3057,-6123,7977,2592,-486,-1596,-1486
3058,-1746,6238,-2311,-132,-1051,255
3059,3339,1700,-4839,1792,-557,-1619
3060,1910,-1302,743,-579,208,1794
3061,7983,7524,-5766,-1209,-119,-1512
3062,-2845,-84,-386,665,-1672,268
3063,-4580,-4811,3415,1545,-733,-271
3064,3147,6997,7709,192,153,1724
3065,-2067,586,4689,504,338,-554
3066,-5841,-1009,-7589,-848,-644,270
3067,428,-7875,1911,-1482,260,1123
3068,7074,-1783,-4356,-1806,-424,-873
3069,5067,200,2564,-1193,-437,-1336
3070,-419,4492,-4221,1140,926,-924
3071,-1628,-4081,6224,1796,646,953
3072,4019,-7877,-606,960,295,1568
3073,-1276,-232,7814,-481,1155,-1714
3074,6237,-2918,-6778,-1448,-258,539
3075,-4198,2514,7829,47,1407,898
3076,-7497,-203,6971,865,-1108,-964
3077,4547,4345,2493,247,-289,-641
3078,6672,3762,-4895,-193,1347,-1829
3079,-4136,-386,-3975,-5,-358,-860
3080,3793,-4530,-2787,167,-666,-279
3081,7121,-2133,-4569,1933,-287,-650
3082,-3748,2853,6381,-1285,-582,339
3083,-7924,351,896,-180,-1120,32
3084,-2099,6882,-3144,-685,-829,193
3085,-1841,-42,-3543,-955,-1729,-1515
3086,-624,7794,7221,-1810,-917,-1725
3087,790,5486,4927,200,-702,-533
3088,-7199,2379,6628,299,1768,-1209
3089,-7098,-569,-3972,-1945,1994,1231
3090,7822,-4309,-3028,1949,-1000,872
3091,-1827,6725,-5007,783,191,-929
3092,1083,4498,-199,-1810,1946,375
3093,6383,5360,7254,255,-1779,-1102
3094,-5921,2927,-575,1626,-1807,334
3095,-634,1540,-4066,-1440,-1265,-560
3096,4293,7785,2842,-1832,280,-157
3097,1697,5392,-5183,1632,-116,-478
3098,1874,-4441,2596,713,1335,639
3099,-4934,6184,7219,435,269,-325
3100,-3501,5121,4559,-621,750,-769
3101,-981,7055,-1167,1669,926,-544
3102,-5789,455,7158,-1988,111,559
3103,7165,-2924,-3156,484,-9,-1100
3104,3917,-788,6281,1937,-936,1667
3105,-3245,1896,6656,-1734,-1404,-1125
3106,509,1465,3801,-928,-1910,-1871
3107,3798,-2615,-2606,-738,1024,-1521
3108,-3875,-808,5146,1129,653,-269
3109,-4350,3997,-619,-1033,209,477
3110,3783,-2093,-6211,-289,339,-1934
3111,2015,-6710,5131,1163,818,1914
3112,-5990,-2999,-1273,-1796,-711,778
3113,7346,-4067,1202,645,128,-108
3114,136,-5699,6100,1596,296,-1434
3115,-4990,1684,-6654,961,98,1775
3116,668,1185,-5254,1678,1952,-988
3117,2168,3175,157,1981,462,181
3118,-1653,-5059,2334,1747,-546,1077
3119,1670,-3234,6123,-8,-847,-653
3120,6486,3780,4046,1037,1481,-1820
3121,-3228,-3027,2733,301,-1154,-875
3122,-4919,-5701,7947,-1352,1594,-615
3123,3710,2614,-1465,-598,1836,1011
3124,1486,-1156,-6990,432,936,304
3125,699,-4092,5276,-77,-236,1984
3126,-658,2045,-7070,1603,764,-767
3127,-701,-6670,2067,-17,-623,-1167
3128,-236,6868,4113,144,-332,-1529
3129,-4621,5128,-6454,1774,752,-376
3130,7375,-127,-1698,1778,-750,203
3131,2852,105,6550,-295,677,-62
3132,4836,-4799,7786,-782,1441,1937
3133,6145,-5708,4405,-1305,-1820,352
3134,-3382,3797,-6626,-477,-957,-45
3135,74,-5357,-1542,-1809,1507,635
3136,5576,1897,-919,766,-161,1223
3137,-1178,-423,-5470,1644,-1186,-1411
3138,6498,410,-2127,919,-210,-1260
3139,-7757,-1219,-3641,-855,1218,1388
3140,-6425,-1773,2512,1517,-1560,-494
3141,-4575,1031,-1799,1887,13,-754
3142,-588,4597,-1433,657,13,1084
3143,7420,1725,-6692,-1019,1624,124
3144,-7743,5487,-3832,551,211,1249
3145,-7106,5706,4053,-1409,-1034,-378
3146,2035,6197,-3761,739,1673,-93
3147,-7104,6346,6418,-714,-1518,-1094
3148,-7557,968,5147,-273,38,1781
3149,-113,7939,7794,-1143,-1743,-1160
3150,-1336,7336,1885,-1592,585,-338
3151,7493,-2612,1415,-1751,-156,-960
3152,-1405,4154,6128,-611,1053,-19
3153,6208,7280,7940,-796,1767,1889
3154,6186,7224,-3874,-791,125,1743
3155,-3077,4499,-4343,-152,27,1123
3156,-7204,7578,1301,-433,502,495
3157,4240,-5451,-2761,526,457,1704
3158,4421,-7192,-4584,472,937,-359
3159,4489,-1064,2431,1437,1599,-1091
3160,5715,-6036,-2875,1514,-818,-501
3161,-3016,-5658,2457,760,368,998
3162,-7,795,-399,319,231,-1173
3163,6934,924,5113,-1345,572,-891
3164,-4053,-2140,4969,1640,982,366
3165,-5329,4916,3363,330,-672,1680
3166,473,-4713,3076,-1821,652,413
3167,1632,-1322,4675,-221,245,-1062
3168,-2334,7594,-3791,-1824,1974,491
3169,-6336,-1851,-7561,-339,-183,-1515
3170,5166,7575,4730,-1352,1254,725
3171,1378,4410,-2139,-1144,1140,-1242
3172,3641,-7431,1409,1032,-1366,-1467
3173,3997,3565,-5418,-1076,1144,1663
3174,-5740,-3998,-6384,1458,442,-1074
3175,5311,1107,5682,-145,1200,848
3176,-766,4737,2541,-1862,-715,-1441
3177,-5730,-6916,4825,622,82,1703
3178,488,5850,-3782,-1436,516,-1197
3179,-6779,-4082,-1907,1256,-1975,-181
3180,-4367,5199,-7107,-1027,-1591,-721
3181,-4758,331,5710,-327,-653,1951
3182,4381,-3008,-7948,-700,-127,-1627
3183,-5695,1038,4173,-1215,67,1163
3184,687,-3322,-7170,1594,-227,-1467
3185,-7636,2249,-6226,-88,1032,-1674
3186,-7284,-842,-1227,592,1488,-1612
3187,-1063,3760,7659,-1708,884,-712
3188,-3720,7187,7310,-1367,969,-470
3189,1870,5432,2169,-1716,1686,238
3190,1065,7743,3078,1136,-1504,1547
3191,-2907,5298,1358,783,-1515,-311
3192,3095,-1371,1594,-478,1995,1919
3193,1924,-1892,1392,1844,580,64
3194,-896,796,-3588,-1227,-1884,1397
3195,4037,-1049,1969,-1601,-142,-1292
3196,4301,-5837,1091,-1344,-702,-1985
3197,5736,1123,-983,195,-1491,1491
3198,-5100,-2078,-6080,-151,712,1819
3199,-917,2398,5366,773,-995,-1196
3200,987,-7188,-4723,-1089,962,1378
3201,1053,5490,-7256,1174,-1905,-73
3202,-2092,-6889,6258,1799,37,723
3203,4438,7213,-6364,-913,1534,-1363
3204,-5577,6193,3362,-580,-1352,715
3205,645,-2745,-2826,1181,1104,-96
3206,-4876,-3356,-887,-1411,1099,706
3207,-3915,6230,6550,-1350,1953,787
3208,7777,4160,-4746,-1582,1880,-113
3209,2929,-3880,3222,-1106,-906,-1991
3210,76,4749,-43,-297,-804,1239
3211,2064,396,-2631,-457,-1391,1050
3212,-1245,6622,6598,-392,-1584,-691
3213,6168,4847,6444,-1460,1630,1123
3214,7514,7235,2936,1503,493,-1286
3215,3537,996,6424,-242,30,1632
3216,-3838,-7090,1899,1552,-527,-1299
3217,-6400,-4181,-6366,513,-1695,1185
3218,1490,-3448,4859,-840,-1793,-71
3219,5045,-546,3529,-851,-1349,874
3220,5367,-5902,7915,1113,1403,-1888
3221,-7773,838,5876,697,1873,-1386
3222,-925,-862,-692,1400,-583,-956
3223,3525,-7249,-2261,-114,167,-419
3224,-1998,4995,514,-235,-1625,274
3225,-33,4072,-4511,-1038,-1884,-1664
3226,-1506,2834,3681,-841,1441,1368
3227,-5630,-6033,1596,-909,-1246,1044
3228,-6721,-7731,6564,-92,18,1760
3229,3356,-3305,1044,1877,-659,1290
3230,-2991,-2270,4422,-1736,1809,351
3231,-2611,-7251,-5224,-514,909,1073
3232,4294,2520,1695,504,1857,-1278
3233,-7692,-4253,2137,-377,-558,392
3234,2194,-6789,4069,-1105,-1202,92
3235,6189,4806,7158,-537,-1000,325
3236,-5540,-7813,5917,-1188,1915,-81
3237,2988,99,6688,-1675,550,985
3238,-6286,-7470,-102,-1090,1255,492
3239,4387,-4075,-7164,-381,-1658,-1176
3240,-1367,-866,-2433,-157,-815,-331
3241,1983,-848,-6963,-701,281,726
3242,6410,1763,-5646,184,-225,1270
3243,96,6776,-1876,-6,-668,-1105
3244,-3744,5986,-7625,128,-662,-977
3245,1855,-6284,-322,1582,-87,-1872
3246,-4446,4734,-6671,497,761,-1899
3247,-4160,-4745,2165,172,-1035,-1079
3248,462,7621,4375,101,1774,-1463
3249,-2782,1434,-5175,893,-1737,1258
3250,-6898,2618,2305,-1292,-171,362
3251,5192,-35,1464,1149,295,201
3252,-1030,6290,1938,-1411,-92,-562
3253,6272,-5089,4038,-1020,-1597,-88
3254,-2761,-2158,114,-1890,1722,1753
3255,-353,-6166,-5342,-1189,-1357,-559
3256,6597,-3164,3763,1064,-563,1641
3257,5457,-2961,6961,-1139,599,-1820
3258,1715,5230,4077,743,-1378,-368
3259,3321,4220,199,-1091,1213,1152
3260,5851,-6810,-4712,1341,1714,17
3261,1613,-7700,-2153,-1986,71,-1435
3262,2831,-2592,7440,-538,1298,310
3263,6078,-3483,5984,-856,-1943,1993
3264,-3708,-2315,6762,1923,-1575,-1390
3265,425,-3130,-4337,-643,-1454,662
3266,3479,-345,-3374,606,199,-1223
3267,-6817,-6421,-5264,1991,-1696,-26
3268,1226,-2101,-5104,790,-166,-885
3269,-3247,-2551,-2457,1227,1382,-872
3270,-327,59,-3905,-898,1358,499
3271,7650,-7054,-2589,-185,-461,1824
3272,7462,-7582,4872,1407,959,-910
3273,7613,5397,-5312,712,-1920,1105
3274,-3316,3574,-793,74,156,559
3275,3046,-7301,-2401,-1340,-591,203
3276,-5892,-4821,-2232,1765,1361,-272
3277,-3845,-6099,-7305,-880,1420,-53
3278,4020,6786,-619,-1626,-1081,-358
3279,4459,-239,5640,-1506,1005,710
3280,-4955,751,-2720,1994,49,243
3281,7974,4463,6005,-980,-339,-1749
3282,-1119,6261,7612,1217,-730,-513
3283,824,4607,-5346,1640,-1065,-627
3284,-3711,2012,-5549,-53,1559,1546
3285,7678,-2352,-6903,-968,-524,-172
3286,-7432,-2533,-4966,-1256,-1983,-517
3287,-1403,-1946,5385,-1046,1141,310
3288,995,2439,1050,-1043,641,-804
3289,1253,1154,4396,1280,1298,702
3290,4897,-4797,1859,-181,-1526,1183
3291,-6851,-4362,7195,628,1656,-711
3292,-4258,6168,-3973,268,461,295
3293,3060,-211,2305,-785,-1285,1921
3294,1419,855,7672,1287,1440,542
3295,-1150,-3615,7772,-602,-658,-1083
3296,2175,6424,-3560,-1896,296,864
3297,-7240,-2257,-4713,717,-693,380
3298,-7194,-1841,773,-1652,-1917,-1827
3299,943,-7996,-1943,206,-1483,1077
3300,-757,318,-5941,-710,20,-275
3301,-2045,6189,-7474,275,648,131
3302,-1901,-6090,4446,607,735,1076
3303,3473,381,5125,1974,1651,-553
3304,-2337,-3643,-5183,1945,-49,-270
3305,-3435,-5297,-4240,1743,448,-207
3306,-3039,-2028,3027,998,879,-1027
3307,513,-4399,-3916,-532,-1452,562
3308,6665,-6237,730,1024,-1339,881
3309,-6645,6364,-536,-798,-994,401
3310,5310,2065,1593,-172,-78,600
3311,-5176,-124,-2703,1380,1657,1103
3312,3770,1526,-6878,1721,1759,-132
3313,-2744,-334,2460,714,620,961
3314,-385,-489,-199,1784,1921,-944
3315,-874,6113,-4367,-1167,-385,-539
3316,-2756,-7531,7576,369,1778,-11
3317,4585,-2787,5895,303,-243,723
3318,2451,7152,2810,147,1506,-1693
3319,-581,-3388,2222,-183,1334,464
3320,7156,-4162,5178,-636,-485,-1637
3321,6010,-2744,-3438,1873,-1340,1253
3322,-3558,-3092,-3413,-1023,1901,1697
3323,1735,7090,1563,650,448,-622
3324,-3212,2773,-7615,-730,-1120,918
3325,6565,-6794,-5935,-321,482,-1566
3326,1627,-4017,4823,-330,1674,-1455
3327,5714,-4996,-7139,198,-1468,1776
3328,6937,2108,-4790,-1055,1797,-1545
3329,7712,648,6076,353,-1392,363
3330,3165,5042,338,58,-1232,-648
3331,-5419,3582,-2653,1520,-759,313
3332,-4747,-5084,-3124,-1969,-1884,-4
3333,-5873,4909,2656,1261,-423,-1342
3334,-2463,7423,-2243,-1120,627,274
3335,-5049,6537,-2549,-638,-1384,394
3336,1314,781,3431,592,498,1574
3337,1193,-5420,3988,-610,-1882,625
3338,1505,-2381,1887,-1556,1413,-994
3339,722,-2810,-601,306,1450,-84
3340,-1348,1767,2232,1182,1421,941
3341,-3195,-1381,-4403,1747,-1489,-1730
3342,-677,-5418,3045,645,-1831,1102
3343,-1528,-1156,-1314,86,1028,1369
3344,5998,2898,3642,1435,1167,1783
3345,528,-7644,7636,1539,512,368
3346,7068,-4888,-248,-978,1850,472
3347,-7949,3025,2503,-1572,-1595,1174
3348,5554,2987,233,90,-3,385
3349,-4770,4611,-2108,1650,-1104,206
3350,575,-7988,4287,-486,1535,-1136
3351,1434,6786,1280,-1151,-150,293
3352,4006,-7629,1862,-1854,665,-683
3353,-7920,-7212,-3944,-467,-128,-1697
3354,-2377,1159,251,434,-1870,-1445
3355,-2621,7547,-1595,-135,1562,1
3356,-5431,-496,-308,-213,785,-1325
3357,-6031,758,-1743,1143,-1570,-973
3358,1576,-1980,4851,-1614,846,371
3359,449,-7192,2968,995,157,1828
3360,-7016,-1865,1372,-1642,-1415,-1041
3361,-3230,7059,7911,408,-1227,-464
3362,-5153,5,-1020,524,683,-270
3363,284,2204,3695,678,701,-737
3364,2409,820,-5028,-833,1867,-1708
3365,2426,-7959,2087,737,923,-1629
3366,1003,-1812,-7763,-1912,828,-299
3367,382,7663,-6951,-1547,1846,-288
3368,-6995,1718,-518,1931,1517,-814
3369,-2724,-7392,2790,-1632,891,1206
3370,-5749,-3831,4222,54,-1105,1334
3371,-7662,1816,3980,-1739,539,-1302
