Sample,Ax,Ay,Az,Gx,Gy,Gz
0,6238,-240,1348,400,1591,1519
1,5501,2043,-5581,1031,-1912,-1391
2,-7521,-6393,-4986,1544,56,325
3,-591,1925,-7305,1614,-1302,-1551
4,3404,-369,3949,548,-872,-1874
5,-2585,1890,-7404,-194,1138,-1849
6,3492,-4696,5035,-1976,-896,469
7,-2791,-7477,4722,-208,-1353,-740
8,-5131,7859,1994,-115,1068,1977
9,-3813,127,-4822,-1415,472,228
10,-4285,3987,-2421,1021,160,1880
11,-161,2100,6024,68,-1244,765
12,2411,-1585,3516,499,1969,-1208
13,791,7680,7502,993,-457,570
14,-5079,-1909,-4822,1203,-1364,-103
15,-1154,6395,4247,140,-1339,559
16,-7517,7019,2981,-1332,-1616,1733
17,5213,3300,-7550,-317,-1307,401
18,4903,4243,1799,-1809,-536,507
19,-3420,-3793,-5878,-878,-675,1561
20,-6416,-1076,-799,-1269,-1823,-925
21,3683,-3794,3579,-1062,-580,842
22,-4930,7596,-6362,-1799,-1824,-344
23,3863,562,-1698,-636,446,1073
24,-4571,2081,3465,-130,-390,-1920
25,-6239,95,1985,1914,-980,1102
26,1800,5562,2157,-1654,-1245,564
27,-7685,3903,2840,-1937,-1015,-1547
28,-4478,4106,3496,1569,-166,-140
29,7287,4364,1870,-371,-776,164
30,4159,4957,-2460,-996,-1892,-365
31,4841,-6167,-7824,-1738,-1336,694
32,-1649,-817,-3654,1949,1583,-1542
33,5474,-1360,-6231,-493,978,-933
34,5114,-4014,6125,-1516,-430,-375
35,-6772,-656,3403,54,-841,-715
36,4895,-1347,-7185,-1496,-1494,-1067
37,-2109,-3350,-7936,-124,38,-1277
38,-7505,767,-2353,1242,1152,-1124
39,1189,-1645,-2216,782,503,1219
40,-7348,-5855,4496,-1060,-1423,302
41,-6441,739,-3176,-1081,-1718,226
42,-6693,4180,-4870,1210,-660,190
43,-5484,4275,-1514,1294,577,-1778
44,-4123,4960,2837,113,408,1571
45,-5013,5418,-5564,657,1748,1681
46,2684,2714,4715,742,-1854,19
47,5523,-4647,-279,-497,-1196,-1746
48,-5341,-2982,7651,-1903,-302,-1828
49,4547,5266,4016,-1475,1897,-1600
50,3312,-114,6083,-1330,-1899,-1847
51,4289,1256,5301,1907,-171,-582
52,6536,-7723,4344,650,-313,1334
53,-5118,2021,-5409,-1958,-71,-1638
54,2596,7890,4869,158,1371,370
55,-4559,2668,1641,398,-840,-144
56,-498,-7016,1806,-1781,-98,695
57,4490,2405,-4599,1247,237,-867
58,-3800,7012,-5704,-1887,1599,1846
59,1777,-7586,-1338,-1087,-1783,-701
60,1484,-5041,5494,1512,-1264,-1349
61,-535,-6313,-5532,-882,61,-1275
62,4960,4957,6511,-1194,-222,903
63,-6628,4465,4289,-350,848,-1319
64,5753,-2517,-2154,67,1227,821
65,-3165,5456,-628,809,-1849,-722
66,-3189,-7315,-1705,1773,-1920,-1947
67,-162,-3098,-327,1124,-702,-1326
68,-7428,-117,-7282,1973,-1103,1940
69,2148,2957,5473,-546,-457,152
70,-174,645,6764,-36,1461,-777
71,5711,3781,6954,3,44,871
72,2083,4417,-1062,-720,-613,-1879
73,-7283,-2195,-3792,52,511,1568
74,3987,-745,-416,-1580,895,1522
75,1530,-6685,-2104,-1847,-1167,-377
76,-5892,-2069,-5390,1718,279,-1334
77,4526,-1818,2421,411,-38,-218
78,-4989,1833,-2512,677,1027,-1918
79,-7832,6244,1612,843,852,329
80,5308,1298,6442,389,-1894,566
81,-1826,-1419,57,-503,1479,-641
82,-1823,-6225,6697,1123,1889,424
83,582,2977,502,811,-105,-1956
84,-7847,6713,-7343,163,1424,-413
85,-4106,-1066,-3530,-1506,-1323,-929
86,-6618,746,-4303,-1869,63,-2000
87,-5730,-6508,1117,-1910,83,-584
88,-5445,-6184,1437,-983,1572,560
89,-7626,-2750,3755,-493,-1958,-431
90,-4128,605,2888,236,-488,1541
91,4619,6627,-140,-917,-193,1881
92,-1801,7343,-473,1549,-661,-1473
93,857,-3461,-5235,585,1444,109
94,6317,-1785,-4179,-87,1049,1991
95,2850,7451,5240,631,1163,-542
96,4215,-6919,-6981,-176,-539,-1558
97,3783,997,7684,1200,-804,1617
98,4563,-5815,0,561,23,1787
99,-985,-1842,2010,1715,-390,373
100,691,-3526,-412,-351,-1743,450
101,-7402,-3488,-5444,594,249,-1989
102,-4041,5465,-2899,-1639,963,888
103,3637,2615,2335,465,-1013,-1798
104,-3904,6588,-621,5,514,1741
105,3826,-6514,1630,-1518,-1353,-475
106,-7643,-1916,-4995,-1758,955,-1150
107,1165,590,2718,239,-1071,1704
108,-3494,5624,-2830,523,1539,713
109,-5456,-966,6650,-968,-713,-1524
110,-840,-2744,6421,1865,-421,1164
111,158,5909,860,432,1575,-843
112,3145,1264,-3796,255,1315,-709
113,-6337,-6405,-4876,39,-720,1202
114,6851,-2139,5955,-1269,-1314,-540
115,1840,-3337,1637,-194,-1026,568
116,2331,-1021,-1812,1238,1138,-202
117,-7067,5797,3665,659,-443,-1468
118,595,-6628,-7303,-423,-135,1520
119,-1250,-1857,2444,1041,1934,-180
120,4414,1959,2649,-544,1442,-1204
121,303,576,-710,-1390,-1053,1749
122,-1852,2480,981,267,-772,421
123,-1719,-4832,-650,1974,-1621,469
124,2861,-3766,4814,254,-1350,-1580
125,-7419,-1977,5124,1036,883,616
126,-977,-6033,2169,-1645,993,149
127,4771,-4200,7820,1964,1380,1149
128,-379,-3821,6982,1169,1720,1074
129,2975,-3443,1092,1301,-507,-1293
130,-3198,-2295,-5712,413,-1513,-1475
131,-5907,-5816,-998,-1095,1187,1279
132,-2853,6038,-6961,1481,698,-1884
133,-342,6101,-5651,1677,-1273,-1899
134,1880,3979,2548,-515,-1107,-969
135,5456,7238,-7541,-674,672,1922
136,-4155,6851,7644,-1915,-1453,839
137,-2247,7392,6381,-1162,-1809,-590
138,1525,6278,-6948,1771,-1578,-210
139,-895,1694,-3989,689,229,-641
140,3217,-2155,-3977,1098,-123,-1036
141,1441,-342,-7395,-444,1211,1741
142,3017,-3383,-2174,-1233,-732,11
143,-7562,-169,-4114,-700,119,-193
144,-3296,2423,818,1522,-951,-1445
145,-1039,-4988,7042,1823,1783,1355
146,6768,149,-176,-146,1942,-1128
147,-3811,-6176,-15,267,1954,732
148,6031,3117,1054,-834,401,-1548
149,-4862,1558,-6379,570,-1748,-1319
150,-3794,5851,-5270,382,1222,370
151,-5965,724,-7742,-869,1249,-111
152,378,7431,4972,-1880,-310,1949
153,6538,-2514,-6213,853,1734,-853
154,702,-3093,2659,649,-37,-625
155,5270,-1544,-5340,424,-89,-1026
156,-3790,1230,-6491,600,-540,-1127
157,-4269,-2998,1606,-67,449,1663
158,3794,-3857,-5766,387,1953,1642
159,-6848,1018,4668,763,-1655,1839
160,5228,-2073,7540,-759,1279,1607
161,-2573,-5685,6548,138,-307,1118
162,-469,3385,-1862,388,-484,-1949
163,-2208,1755,149,-932,861,-705
164,5843,7855,-147,-12,1211,747
165,-3000,3952,5910,-1875,-297,1005
166,3917,-7875,-539,760,-944,-746
167,1444,-7353,-6371,1897,-1937,-1384
168,6485,-266,3636,-421,-1254,1605
169,-3039,7648,-5610,-1185,380,350
170,2573,6237,4501,-1004,-483,-209
171,2864,7155,-4674,-85,86,1353
172,-5324,4849,-5589,-891,-824,-1451
173,3650,-4993,4714,-534,-1557,1604
174,6588,-6320,4210,102,60,-1744
175,993,-5458,2099,1094,79,1332
176,-503,-3938,-1042,251,1208,-693
177,-776,-1610,-6343,1717,-884,1443
178,-5094,-7141,-7392,676,785,38
179,1227,7983,5693,212,-507,-912
180,5054,3662,3684,354,807,-504
181,-7421,-3467,3241,-1865,-1188,-931
182,-6772,-440,1439,1363,-267,1903
183,103,275,3531,1389,-326,366
184,-6986,2480,-4087,1630,115,230
185,-5645,5308,5651,-1689,-76,-1530
186,-4482,-3605,-3368,1003,-120,910
187,-818,-5372,-7253,-384,1713,-769
188,5331,7051,-7892,110,-309,-330
189,1702,7884,5972,907,120,-1327
190,2562,4828,-3736,-133,-976,-1255
191,-4791,-3339,-609,-1684,1418,-561
192,-7682,-2550,-4758,167,903,-1522
193,1783,4355,3271,1053,-1270,694
194,-3464,5793,-2011,-1985,-570,-295
195,-4957,4304,6416,-1721,-329,1508
196,-1381,-7947,-7233,-844,76,-1786
197,-6335,-5181,-4830,-1175,-1548,161
198,-7907,4380,-3405,-314,-1563,-678
199,4891,4954,4903,-75,-1468,-344
200,4899,-5372,7057,-1526,-1739,-1175
201,-7489,-3219,-7975,-623,-1449,-1648
202,-1052,-3451,6133,-1099,-483,156
203,-5926,3676,1387,536,-992,468
204,2034,2142,420,-68,-412,-1173
205,-4872,-7758,209,-1983,-1423,810
206,4996,3111,-1453,-37,-1924,1577
207,-4486,-6236,2537,1527,-1168,264
208,2113,2662,-2010,1692,47,1155
209,6824,6194,897,649,-257,-522
210,-74,-1871,-6277,-1339,-1038,-1583
211,6075,-7867,5670,-11,-920,-669
212,4047,794,-4971,-848,-1542,515
213,706,334,498,1732,-416,1512
214,-4340,-1685,-7000,33,1155,-997
215,-4567,1526,-2620,-771,1928,427
216,7835,1788,2578,-1488,-477,776
217,-2646,-808,-7391,1107,-1932,-766
218,6342,4805,3259,1473,-1732,569
219,5704,-4940,-1485,-22,1975,-1759
220,2956,3059,-2236,-107,-503,432
221,-2216,3038,-5534,-1187,-1561,662
222,620,2524,5637,-1615,1658,-1396
223,5422,6427,-6371,-472,-85,-1439
224,-3534,-7881,1989,-1056,-1158,222
225,-2256,7015,-6377,-1979,-208,-1350
226,-2651,-3992,789,-1731,1076,1994
227,603,3689,6145,-1879,1132,-1633
228,-2924,1613,-1085,1314,1328,-275
229,2475,-5408,2390,690,-862,1131
230,4387,1050,5802,1820,-109,746
231,7253,-2801,5901,-799,1951,238
232,5285,-332,3071,-1999,-1563,-172
233,1279,-3257,-2764,1538,1346,616
234,-4043,1517,-5171,-148,173,-1429
235,2107,-1620,-1485,-785,-972,1616
236,5361,442,4916,1359,-958,-780
237,3161,7094,7229,-390,-1340,-1288
238,-4946,-1186,-5661,697,889,1408
239,1712,2160,-5144,1482,-839,-1200
240,7763,2016,6630,-1892,89,867
241,7043,-7543,3952,1327,215,933
242,2888,-2849,-5277,-851,312,-931
243,-3601,-6068,5886,-1226,-498,1968
244,-3420,4855,-4271,-437,38,1093
245,1570,4121,-7070,-1225,1977,-931
246,-4892,4852,1842,-534,-672,1003
247,1999,6027,-1298,132,938,1267
248,-7357,3909,-7631,1510,-749,-1064
249,-3984,-6820,5262,-677,-526,-1419
250,-4568,5617,1121,-430,-1171,1399
251,2172,7067,905,-308,-1630,-1702
252,7782,6929,6622,1222,-71,-685
253,5705,2163,3623,-924,268,1671
254,-3499,3945,-1325,1266,102,1260
255,3738,6429,-4895,61,-727,-1221
256,2985,7405,-527,133,296,-1539
257,-1089,5495,647,-1545,-1826,-1516
258,-2483,5311,6217,309,-738,1166
259,-5792,856,-6540,-898,457,327
260,-5553,-1674,-1463,104,-494,-19
261,7491,1793,-1356,1273,-254,-367
262,-4665,-5368,-6796,565,655,1699
263,2481,-2553,4449,-1381,-441,572
264,6296,-6594,2056,503,514,-1187
265,-6792,-6784,584,1823,-1814,979
266,-3241,2864,-1737,-1950,-1286,-1166
267,-4236,3434,6649,1873,1996,1764
268,-7182,-4484,-7905,-1413,-943,817
269,7110,4311,4644,175,-179,-688
270,-2061,-6805,-5214,108,773,-340
271,1588,6863,3008,-1596,-978,1551
272,1135,-5740,-1483,481,-59,-1686
273,4940,-3067,-3444,-1721,-1093,-431
274,3582,4943,391,739,129,-1597
275,-3611,4164,-2742,1958,1035,315
276,-3236,-3558,-5904,-190,1867,-1543
277,5065,-7418,-6757,708,-1073,-66
278,-4932,721,-5865,-301,1974,-876
279,6469,128,-7265,-1355,-463,-911
280,7089,6982,3339,1271,1217,313
281,-1541,-4317,1546,-1864,432,1014
282,-1855,-2098,-2660,1433,-748,-204
283,2938,-2871,-3125,1949,348,-1657
284,-742,-7117,-4688,1371,458,215
285,3041,-6623,-4466,-871,-597,-1605
286,1913,-6137,-4408,1353,1644,840
287,3840,-6714,7664,-1844,97,573
288,5850,5671,-4723,703,826,1193
289,6927,-277,-7662,973,-1251,-960
290,6186,6308,-99,-506,-599,1672
291,-692,284,7160,627,1629,-766
292,-2703,-2843,-7096,-1037,-1264,1813
293,4447,-7969,-4715,1903,-1095,7
294,2001,416,4871,160,-484,-1512
295,3176,-3613,-3539,1251,870,378
296,-5671,-1434,-1827,1258,1201,-1121
297,5861,440,3689,-1113,-1156,388
298,-1219,5146,-6739,-267,-1653,1649
299,5453,-7502,-7645,-1029,560,-70
300,5235,-5100,5622,1212,-116,-1347
301,-4716,6413,7765,-48,-974,574
302,1683,-192,2990,-1110,575,1259
303,1397,3206,7135,634,45,1016
304,6386,-3253,-5845,-1564,1204,-939
305,-3138,5466,7964,704,-72,-1110
306,7753,-4211,-5940,-1946,-55,-1827
307,2864,-7583,1324,-1983,-1231,-1610
308,2134,6808,4624,-1573,-49,-1656
309,5201,-3158,-4350,-457,-185,802
310,4678,-6301,1205,-382,-1336,1722
311,110,-1186,-4175,-1209,612,670
312,-1159,1321,-1930,1026,232,1846
313,6543,-1908,-6024,1918,944,-84
314,263,3059,1666,1997,-877,1570
315,5384,4375,-3819,-159,-1789,-283
316,3241,-42,-6005,585,-479,533
317,1523,-4651,-7007,844,1498,-141
318,1877,1092,6927,-619,1146,792
319,1508,-844,3038,-452,-1980,525
320,5398,2075,6751,-368,1114,1461
321,3521,1871,-6215,176,1873,-751
322,1950,-2414,-3798,-301,-1326,946
323,-1457,-3298,2971,382,35,1988
324,-2767,3487,-4409,-317,1059,1485
325,-46,-3976,591,-1570,431,1463
326,4700,563,-904,-1721,-1301,-899
327,893,1128,5396,1765,1487,-333
328,1531,3894,3811,-609,608,314
329,-4961,-4375,2615,891,-316,607
330,7902,-2737,-5492,-1797,-1592,96
331,2282,7725,-2550,-1988,-156,-1293
332,-5821,363,7456,1178,1883,-1460
333,-1458,1460,-7986,-1279,124,1226
334,-5710,-7700,-7187,1650,1076,-935
335,-6011,-5064,-1100,192,593,1158
336,-4795,-7876,2014,145,-79,-808
337,-4310,2489,3260,1298,-95,1822
338,-251,-5556,-3678,798,-1054,1109
339,5592,705,5193,-1842,-882,1461
340,-1417,-1072,7183,1078,-226,-647
341,5505,5488,692,282,-789,-1984
342,415,-6688,4132,92,-1202,803
343,7838,5710,-227,-1011,1570,687
344,-4907,5344,1989,607,-1600,-1527
345,4445,4990,-4015,-124,-1730,-1717
346,5610,2400,-1544,-532,1299,163
347,-3273,-5454,547,779,1758,-178
348,1263,-4395,7997,-440,-1827,734
349,1989,-2346,6061,-1103,-1925,-157
350,-7157,-6855,-719,368,1466,-677
351,-785,7874,4572,228,-343,1080
352,3761,3689,6432,182,-1877,844
353,-1189,-417,-3272,833,1468,-1904
354,2077,7962,598,-438,1331,832
355,572,-719,-3610,297,-975,80
356,-4807,-3451,7088,-516,-1297,534
357,-270,-7702,7876,-605,1993,-1614
358,5515,-6311,7814,-527,809,-239
359,-844,-7090,-5457,82,1778,946
360,5946,-2437,7756,982,-552,492
361,1148,-7551,3541,-727,891,196
362,491,-5609,-7028,730,-1495,150
363,143,2834,-740,-482,-1300,-524
364,2571,1254,-4741,-55,591,1324
365,5169,5469,-7448,1559,1129,1966
366,2445,7160,6213,294,903,1662
367,2989,-3875,-757,1910,-179,-1159
368,6618,-1959,-1805,-1158,-717,-952
369,-2335,4194,3609,1502,143,1843
370,704,-7025,6911,-1923,-955,1150
371,4623,1535,-4742,-291,-340,-986
372,-3208,1868,3168,-1226,-1529,1733
373,2830,2809,284,978,1483,1345
374,-4330,-5118,-4055,343,1320,1446
375,3215,4271,7201,1856,-916,447
376,7113,1743,690,-346,323,1128
377,-392,-3056,3570,802,-826,-512
378,2487,870,2665,-279,-1793,125
379,-3955,-7888,-6359,-459,1805,572
380,-5756,6820,-7636,-1179,193,-1840
381,3067,1615,-4739,1191,1089,972
382,-3601,5857,5268,-490,-11,-1326
383,3345,-5168,-4941,1535,1288,-134
384,905,6838,5955,-1605,1016,-745
385,1100,-5009,90,998,-614,107
386,-1564,-3664,-6478,-1807,-837,469
387,6895,3189,-4235,1814,1163,231
388,-2561,-3471,3066,-1943,279,-523
389,-150,-4392,5369,-955,-493,-1442
390,-1647,-1252,-719,-761,1130,-1572
391,2081,-2768,3778,1043,305,269
392,-5618,7377,-2392,-1689,1217,214
393,-4037,1760,-1681,-357,-217,1635
394,6972,-6557,-5250,703,1538,1874
395,5688,3204,-1572,-490,1011,1640
396,2759,2612,3868,-1313,-1040,-1439
397,2068,4824,7648,499,1587,-1354
398,-972,1130,3268,465,886,747
399,4641,-1272,2449,1516,1247,-541
400,-1181,1080,-5237,-1586,219,1326
401,2252,6701,891,499,-1283,1000
402,-6863,7421,-5169,-1808,692,500
403,3872,-2505,3233,-5,-1580,938
404,7646,-2197,-3017,-1581,1140,-386
405,-5835,246,1535,11,1189,1231
406,1328,6059,4555,1899,-1903,1375
407,-2703,-3596,-2873,638,-1226,-29
408,3287,6550,3844,-611,1468,974
409,-4439,-5973,-7256,607,-1918,634
410,-608,1362,3144,1047,-1293,-1490
411,-3695,-6016,6110,-237,1321,-1631
412,-7982,5996,4384,-1590,-1602,990
413,-4143,4125,-5573,-339,-870,-1672
414,7244,2171,-5512,274,-1027,445
415,7558,7063,-4571,1193,-1985,226
416,6652,2824,950,1883,407,-678
417,5416,4333,4598,-1817,-255,-921
418,24,2796,-6132,1906,1976,-8
419,-3171,885,-1407,1368,-518,11
420,3184,-33,1833,481,-758,1930
421,-5292,-534,4269,-1563,-596,-1474
422,-5115,7245,1196,284,965,1719
423,2445,4900,-4823,1460,892,-1393
424,825,2864,6239,1232,-674,-34
425,-3967,5444,4811,-963,-1762,-108
426,6379,1856,5699,152,-126,-1207
427,-4067,-6822,-7821,1360,1586,1442
428,-7473,-149,1073,1583,1705,569
429,2971,-5645,-5539,482,680,-1301
430,-3649,5360,4720,1387,-1686,734
431,1958,-3545,-6949,1856,-772,-774
432,6229,-991,7571,1188,414,1091
433,-5895,4879,2966,-1768,460,-1126
434,7674,1939,2209,-709,921,-501
435,-5950,5693,-326,1401,534,1647
436,2148,7790,2720,-1732,-1172,-1482
437,3709,7032,4926,1108,1169,858
438,-6662,4557,575,1167,-282,-1397
439,-7736,6120,-3362,-1239,-1768,-639
440,4084,-1425,-5809,1110,-855,-1913
441,-2411,-3633,-1281,-1443,578,-1052
442,1746,-1067,6330,-645,-1791,-1434
443,-3324,4594,-176,-1616,-1886,1782
444,3448,1274,-651,210,-1586,-697
445,6896,7234,622,1255,-1144,-915
446,-2698,4894,-5588,917,-8,-241
447,-1116,2005,-5798,-1209,270,-1260
448,-7272,-3231,2684,-407,1511,1571
449,83,5966,-6751,535,1642,-468
450,-1779,5312,5675,658,-1591,1644
451,-5466,-6913,7855,-1054,1351,-886
452,-7308,-5353,3739,-349,-1813,-1113
453,-2492,-4889,5795,1478,-78,278
454,2276,-627,4839,-463,-1823,466
455,834,-2459,6765,1766,-532,-769
456,5087,163,-6303,-780,-530,203
457,2313,-5006,2551,-488,-597,-1159
458,-4534,200,-7141,-1564,1506,-658
459,-5888,-7337,6989,1525,935,148
460,6965,7370,-2459,661,972,-1423
461,-3832,976,4534,1482,1778,441
462,-4866,6590,-2676,1530,-1087,889
463,2173,-2516,5778,-1236,1623,29
464,6786,-1397,552,809,-1772,1491
465,-2539,-3531,-7461,1568,1531,-1277
466,-3780,-818,3782,-848,-969,954
467,-2957,4463,-6539,393,-1240,-1804
468,1410,7162,-887,235,-1935,-1948
469,5592,-2606,-5464,196,1958,-1198
470,-5587,5336,-300,-1643,574,-1784
471,-7605,-4992,-5937,410,-1511,-1017
472,-454,2766,-7995,793,-1077,629
473,7717,2515,-2965,-627,1796,-392
474,-240,-2263,-3103,438,-1046,-1893
475,6307,-4968,1222,-274,76,-1404
476,-6768,3890,578,-953,-568,78
477,1893,-4110,6982,-1870,-1196,-358
478,-2354,4218,6016,-1437,-1783,-951
479,5964,7817,-5673,-265,287,1383
480,3577,6905,2828,-783,1888,-397
481,93,-5746,-1348,1234,-1319,-739
482,-6349,2155,5185,1280,1096,1829
483,7119,-2958,5539,-1214,-1111,1635
484,5518,5998,-7612,-69,1238,454
485,1120,-7763,-6458,-625,-778,1691
486,-5382,1631,-6762,866,1291,698
487,6591,2322,1556,-1,-434,1015
488,7709,1226,976,-715,784,-1588
489,-3716,2046,6398,-1816,1476,-1143
490,-4863,-1168,-588,-1878,353,-1809
491,-2486,-4845,530,1017,-1335,828
492,2474,-3996,-4581,904,-1137,1961
493,-4269,5026,-3051,883,-1722,-1429
494,1047,5242,476,-816,1617,-49
495,3422,1608,-7561,-177,-906,1797
496,-2154,-2897,-4272,254,1556,-1353
497,-7163,2019,3640,1438,1489,-10
498,-7694,-1294,4801,-1982,-409,608
499,4324,-7472,-4265,-544,-854,-1108
500,2265,-728,3944,784,1818,1442
501,1774,-7491,-4969,1054,1272,-964
502,5815,4136,-1983,780,-1607,322
503,-682,791,-1120,-1060,-186,-895
504,-6565,-2554,-5592,-1111,472,-86
505,-7998,-6648,-1405,940,-490,-837
506,-6238,7069,5272,-1032,1508,-482
507,-3347,7469,539,-788,-45,757
508,-2532,992,-7839,-1426,-1254,-894
509,-412,1376,2315,-1711,-1580,-330
510,1893,-3341,-5864,1399,-994,-895
511,4884,593,-4836,-933,-1626,872
512,-7771,7018,-2563,-192,-181,-1756
513,7172,-7464,-7403,1751,-1292,-1495
514,2963,-2058,-1795,-538,-490,-971
515,-5342,-7332,-1710,-356,143,426
516,-3179,3365,-4947,693,935,1282
517,-7668,-4921,-2871,1261,515,-337
518,-1186,2604,2117,-191,-941,1193
519,842,2286,6306,223,-771,-828
520,-5517,-832,7246,-1752,-908,1453
521,253,1153,4508,-752,-1050,1516
522,-1697,-6164,-791,-1073,-505,-1786
523,3854,-2384,6669,1646,1118,895
524,301,261,-1711,-1045,-517,-549
525,-5876,-2040,-4688,1412,125,-1522
526,-6545,3228,-6751,-992,-564,506
527,5109,-5129,-5039,-192,813,-52
528,5209,618,7989,331,214,-1457
529,-2752,-2952,-5774,1060,1823,1985
530,-1824,-1314,-1840,-66,-1598,-1859
531,-6260,-1592,3918,1140,-1967,945
532,-2303,1533,6403,-267,-267,1850
533,4570,713,-1737,433,1953,1936
534,3058,3626,-754,-220,-548,1461
535,7725,-7608,-5057,574,-600,-1043
536,-5002,3509,7176,844,976,-371
537,4744,-932,878,122,-1184,1748
538,-3576,473,-82,-1931,-505,1110
539,141,-3686,-6903,1806,-764,-1700
540,7315,-7968,5558,-1655,-1463,461
541,-7675,2465,-6682,-248,1968,1087
542,-1686,-2303,1390,196,-1988,734
543,-847,6214,-1855,-985,1776,-164
544,7797,-4866,-4163,-1931,-425,-618
545,5961,4091,-7571,736,461,-332
546,-7996,3845,3679,208,280,1704
547,6771,6863,-5648,-873,306,572
548,1042,-7139,4318,-1447,579,-365
549,-3895,-3531,561,1042,-631,-1032
550,-5065,6261,-1553,291,1375,-825
551,3444,2735,5692,10,512,354
552,2546,408,-6015,767,-690,1702
553,394,-6606,3443,1141,1863,-622
554,-143,4711,-5989,-383,1061,-1641
555,-6557,-7601,-5031,-379,1028,-671
556,4827,510,2706,508,-51,-270
557,-3458,6947,-7065,1937,-942,1173
558,6056,3019,396,1800,1924,-1315
559,1544,487,-7595,17,-612,1157
560,1202,-5626,-3636,245,-1065,-1151
561,128,-6707,1110,-14,-1737,-528
562,9,-4149,-7395,-180,-941,-1220
563,-3971,-3442,-872,1925,1531,-1360
564,-3538,5555,-1707,657,6,797
565,2492,5479,-6416,-1602,1610,-191
566,1891,-6981,-4758,1691,293,1267
567,603,7145,3403,525,1258,-1474
568,-3329,5625,4418,1789,938,-994
569,-4199,-7292,2649,-212,-1818,-1377
570,2020,-7738,-3072,1163,-186,515
571,-763,-6186,5814,354,1355,-1870
572,4080,6032,1448,1141,1584,271
573,-4524,-4623,-7287,1485,409,1725
574,-5393,-5420,-125,544,-21,-1167
575,-1809,-5851,7322,1285,-1159,833
576,1483,-4814,-1772,1862,244,1300
577,-2273,-972,2336,-1060,-315,1336
578,5313,-1560,-3175,1108,899,-592
579,-6309,-5066,2498,883,1717,-1704
580,-1059,7427,-393,1050,-408,1847
581,-872,-7402,-6107,-1646,1107,-1510
582,5099,5094,4149,-155,1327,-838
583,7959,4949,-3001,-68,-1458,1535
584,4367,-5160,4000,985,325,1690
585,5084,2292,6529,1403,-305,119
586,461,288,-2051,-1936,-1235,-329
587,-5528,-2080,-6369,-1972,1674,1974
588,-3334,-454,-408,-1624,1127,-1693
589,-5687,-7390,7976,432,1557,-149
590,7868,6656,-5040,1140,33,-1012
591,-5254,-5745,-1567,555,-1424,-272
592,-78,2220,129,-379,-1346,1745
593,6939,-2854,4364,-1466,-1144,1483
594,-1378,2774,-1877,-1683,201,1336
595,2112,-3828,3034,-633,766,-835
596,5874,-6060,4779,1526,1475,1290
597,6292,-7417,-3295,1074,592,-67
598,-5583,-7095,-1268,-729,-1473,1115
599,-5982,-4316,3373,-1611,-1803,-660
600,3837,-2605,-7566,1737,-810,269
601,3258,7582,-3464,-1080,-1119,659
602,-851,-2034,6880,1905,895,1617
603,-7036,-137,-1969,-840,1424,-1776
604,-3922,3123,2595,1122,-1392,-1480
605,1344,-1970,5443,1282,666,662
606,-2813,-2072,-6671,-1487,488,95
607,-3749,6354,-6887,-80,-1175,127
608,1901,-4813,-120,-1956,496,1148
609,-6831,-366,-5312,1407,-310,411
610,-1574,7846,-155,809,1682,104
611,1514,445,7369,-737,-752,198
612,5953,-2108,-3854,868,1063,1373
613,-5421,-3406,-7838,1148,542,-1486
614,1393,3850,6133,976,-1660,-1867
615,292,3497,6313,304,-1051,-1997
616,6982,-2216,3548,-30,-698,1934
617,7488,-802,-3621,599,-464,-1348
618,-2461,6392,-86,-752,650,320
619,7005,1776,161,-705,740,-1337
620,-3280,-1269,-6644,814,-776,-220
621,903,4788,-5723,-1215,422,1350
622,2653,-175,-7819,1703,795,-112
623,-1098,-3609,7933,-1492,-982,-1258
624,5291,-132,-6453,-1336,1339,-558
625,-5241,3644,-1600,-368,696,664
626,-1761,-1542,5294,1454,-821,-1024
627,6967,6013,1004,563,2,-1084
628,4007,5472,-1430,-1953,-1583,1255
629,2006,1098,-629,1406,-500,-955
630,3827,-1569,-2163,-1406,-1010,-768
631,-739,3441,722,-533,-200,-389
632,5843,-1069,4462,-1733,709,-640
633,-3958,-1858,4594,-1521,-1160,-107
634,-4391,-7915,3969,-576,357,-910
635,-6761,4846,-7916,-367,1061,1891
636,4572,-4453,7586,-1864,-1986,1513
637,4710,-1266,-5609,-1070,-1811,-770
638,-628,-5535,-7700,-1485,-1687,1821
639,2934,2392,-4,-74,-421,1064
640,-6376,5216,4275,1221,1653,-1465
641,2236,3105,162,-343,654,1893
642,-4549,-1043,6277,-5,298,-512
643,1202,7875,-1635,-693,1114,1469
644,-5824,960,5523,-877,847,-635
645,-4601,-6230,-1492,1702,-1708,-1573
646,-4407,3417,1745,-1502,1918,-988
647,-7671,-1246,2223,1734,282,-347
648,-1928,-5105,4066,-1601,603,510
649,6602,-2915,2395,-838,1268,516
650,7047,-7271,7077,176,-1217,-976
651,7147,-5690,914,-738,319,1103
652,2320,-3611,-5173,-162,-1862,1085
653,-5272,-6056,-5002,-1276,-1001,1509
654,-3234,-7790,4479,614,-144,1633
655,4366,-2964,-3503,-240,480,-868
656,1633,2723,5874,310,-1374,-1412
657,-4611,6058,-4434,39,-379,526
658,7476,-4807,-2155,786,1189,1131
659,-3046,-7132,3666,1385,-387,1169
660,-2976,7070,-452,-766,-317,87
661,3087,-4587,-5951,-1273,-1926,1366
662,-7742,1221,7831,1320,390,1621
663,-4349,1892,-3054,1861,-857,708
664,-6451,-3326,6126,-232,1502,1345
665,2969,-3909,5823,1021,-666,-1749
666,-37,5730,-6538,-981,1777,1449
667,-1810,870,4218,1790,1089,1936
668,-7238,1560,7195,-41,1885,-1780
669,-5557,5630,-179,-629,1187,-172
670,3892,-7366,5187,-730,1914,-395
671,6254,-1568,6401,1214,-1785,736
672,-2935,-6249,-3137,1,879,-1385
673,-2917,1314,1460,1409,-1146,845
674,-638,-128,-1881,499,-1889,565
675,-4409,1071,-5669,-1643,15,-287
676,-7401,-7018,5045,829,240,-147
677,7131,-7388,-990,-222,-171,133
678,-582,-575,422,1101,1959,-611
679,-3519,-5605,5883,1747,-1772,785
680,-5841,7275,-772,-730,1240,-810
681,-948,-3396,-2987,-1703,-7,-358
682,7277,-3122,6247,1270,1430,-640
683,6902,5286,7372,114,-1737,493
684,2600,-110,-3556,1143,487,276
685,-6865,-4313,2228,1940,930,1158
686,6964,2116,-6711,262,-1286,605
687,-1577,7663,3731,-76,876,650
688,1643,-3466,-3815,749,1008,-895
689,5396,5812,137,1064,1476,1725
690,7547,-2622,3191,-1738,65,-860
691,4614,6431,3488,-1431,1711,114
692,-3059,4766,4029,-423,897,453
693,-4128,3187,-5951,897,1783,1818
694,-6438,7694,1312,-1205,1348,-1062
695,2416,1509,170,-973,1970,769
696,3888,308,6084,-1268,-411,-1520
697,294,5611,-4016,1030,-1825,-1966
698,-4135,-3896,-980,1129,1319,357
699,-2427,1368,-6853,1941,-1685,-123
700,-525,-2312,-240,-1201,-1792,601
701,-1573,1081,7991,760,1454,888
702,3015,5883,7894,-139,503,-725
703,617,6685,-6962,-53,1936,-1477
704,7921,-4186,1094,-1362,316,303
705,-494,-4103,3649,-871,1873,-430
706,-3347,7391,7983,1053,1482,1643
707,3027,-6695,1171,82,-90,-227
708,7601,7929,5946,-786,1251,-138
709,2033,-954,1255,-1816,1341,-712
710,-4775,6193,-3293,-512,-159,-710
711,1694,-4519,1635,-862,1808,-1785
712,2069,1939,5609,1336,-233,1975
713,-2183,-980,-1166,1559,-1987,1209
714,2727,-3778,-3114,916,-1625,-894
715,5350,-6271,-3477,-1471,948,746
716,245,-3507,-4388,941,1820,-285
717,5535,-1700,-1179,1085,425,1348
718,4796,-2366,-4901,-792,1210,-464
719,5582,-5001,-1522,346,-705,1765
720,-2879,-2697,-5485,1200,314,1888
721,-4010,6452,-6775,1521,-89,-721
722,1500,6120,-6380,-1353,-958,1594
723,925,-7263,-7898,1452,-1718,1497
724,-5872,6108,2504,-398,1469,-614
725,-6386,-3450,-4384,-413,1110,-1242
726,-2674,-6065,-4978,-1401,390,-698
727,-3417,5560,-37,1217,1074,-1485
728,5863,-7087,1135,1861,1435,-1762
729,7528,1347,2627,-1578,-829,-476
730,7425,4223,6171,385,839,905
731,-4657,-7934,885,-1267,-1776,197
732,106,3897,5503,-640,1611,237
733,-5171,784,3071,-1588,284,-1713
734,-6031,5589,-7996,-721,1651,-574
735,-1615,-1776,-2574,13,737,1645
736,-5224,1332,-559,640,1212,-1245
737,-6826,-3523,3704,-921,970,-449
738,-2546,5575,-7685,-425,-1984,1288
739,6439,6656,-4968,1667,-1263,254
740,608,6239,-4888,-1834,-336,1680
741,-4661,3447,-415,1426,1518,-1004
742,3876,-1002,-7973,-113,682,-147
743,3874,4224,-1274,-1938,256,213
744,7230,-6783,649,-858,972,-945
745,819,1898,-344,1221,-1175,-84
746,7329,-6786,6477,-969,-1,-287
747,207,-5474,2414,818,247,185
748,-7290,7316,-5986,1262,1239,1600
749,-3479,1313,-1800,-1781,481,1232
750,-3972,-4438,6816,1159,296,1180
751,6625,6675,-2260,-820,795,-1318
752,-5250,4048,-4011,-1171,1080,-1528
753,-2664,-6402,1347,1811,-1558,-1430
754,-5211,4984,3798,-1260,587,812
755,4624,4080,1334,856,455,161
756,5872,5452,-1461,-324,-72,-951
757,6410,5691,-783,-1011,-869,1271
758,-2102,7526,-6090,-1616,962,335
759,-2702,-7442,5571,1056,-1777,-569
760,1200,6774,-856,-899,-1507,-1819
761,-4363,6022,7879,1876,-1371,114
762,-2886,3602,-5375,789,-950,-1502
763,6122,-1675,-6219,1389,-792,-978
764,-1734,6864,4045,1252,1549,-988
765,6509,1643,-6993,1198,-518,-591
766,5091,1714,2804,-374,-497,1170
767,3424,6678,1045,101,18,-1789
768,6421,-1986,-7579,-989,1811,-1695
769,-6376,4160,7463,418,1078,723
770,-5136,597,-3038,402,161,-320
771,-6882,2290,5114,-512,-397,-685
772,632,-2329,7556,1654,37,-1204
773,-4199,-233,-134,-264,-1065,-65
774,5352,-470,3623,-1079,-1217,349
775,-1340,-4231,3915,-1515,-1683,850
776,-5520,-7943,1749,956,584,1827
777,-5551,-2612,-1168,1806,-836,881
778,-6703,-2158,-7626,-57,-1199,-473
779,-4954,-6809,-5793,-1630,1956,-1460
780,-1792,-1958,4714,-684,1531,510
781,-2856,6988,-6470,1435,-1018,421
782,2315,4891,3947,447,1348,-1511
783,-954,7681,-5910,-359,-124,-272
784,-2470,1758,5187,-1941,1938,1058
785,-6257,-4325,-391,1180,400,-1862
786,5348,-5905,6334,69,-131,579
787,-3230,5394,3604,1821,-1312,1286
788,-1792,-2568,283,1624,-1655,1539
789,-2062,-4983,-1340,-302,80,319
790,-2876,2157,-2039,-1724,766,1591
791,4169,-5620,3092,-1317,233,-96
792,3969,-2972,-7214,1298,1228,1049
793,-3410,1114,1776,-1872,1900,1891
794,4214,-4494,-1157,-699,-1434,-1353
795,3557,-3428,-1556,-682,-689,1619
796,-3545,903,-7212,1671,1058,-630
797,476,4106,-812,607,-1412,-240
798,6886,-2957,6856,1121,395,1788
799,-1381,6482,6992,1109,1657,-986
800,-6231,-5120,-1983,-533,937,-18
801,-4479,2640,1635,-376,791,-776
802,-4144,6468,-4771,-846,863,-1556
803,4134,-1504,-7295,1584,1039,-1290
804,2398,-7963,-3609,1383,-542,1540
805,-2107,164,-1323,-1605,1351,-209
806,3338,-6360,7469,373,-670,-35
807,685,1908,-5049,1884,-955,1130
808,-6258,-3232,6496,-305,1458,-823
809,1045,-7174,2551,1766,-348,-1827
810,-411,-7745,-3685,-1724,-1648,1657
811,-5227,3459,391,-1489,-1673,1735
812,-506,-7350,-6823,512,-1231,-1820
813,3323,725,4870,1214,679,-902
814,2349,-4999,6665,109,1238,1473
815,63,7426,-2152,-969,-1762,1774
816,1730,258,3727,-1955,32,-640
817,-20,5529,-6294,-1216,-1936,1464
818,-7574,-2654,6187,1306,945,1213
819,-6474,2746,6091,-842,-37,637
820,7399,-1126,797,-514,-1674,155
821,-2539,-3846,-2566,-1507,-1230,-428
822,-7296,1543,4745,1071,-1376,1620
823,1707,4846,1712,-1416,-1372,-779
824,3767,4578,1005,1834,229,252
825,-5665,-4908,-5684,935,1425,249
826,7408,-2816,-4210,-957,-903,1887
827,3105,-2470,-823,1151,1955,1694
828,-1515,4051,-2345,1622,1830,-1910
829,3008,7631,-1868,1783,1859,464
830,5255,-3793,5861,446,953,-347
831,-3679,520,7961,1818,1989,1297
832,-6222,2597,5079,1452,-163,12
833,-6793,-430,-133,1720,1504,-1222
834,6042,6504,3979,-1076,1647,-137
835,7579,-3555,3384,287,-1125,717
836,2043,-5502,-1004,-1858,-1397,107
837,-2982,2145,-997,1924,-22,1336
838,1593,-4754,168,-1386,-463,-352
839,5246,-6058,384,-155,1543,1151
840,1482,-6131,7985,1033,-1715,-340
841,4615,3219,-2424,364,-433,1032
842,6743,5955,4515,526,-1205,1605
843,67,6964,7924,-1273,1531,35
844,5078,-7339,5904,-533,408,-687
845,-1178,4205,-4480,-1167,586,1573
846,538,-1603,-351,365,-902,1904
847,366,-4493,695,-1023,-128,1796
848,-3162,7678,4536,-1841,-1052,-1409
849,-980,-7808,4495,-1680,1809,-1740
850,-4326,-4314,-91,1016,-1924,1240
851,-7747,453,-141,1096,1472,1411
852,-6665,2160,-3374,982,-119,-1983
853,4400,697,-3004,-1852,314,-827
854,5456,-6818,-2227,546,30,1498
855,2487,3000,-1489,1523,-1931,-904
856,6775,1077,6697,-1521,-1527,1072
857,-2353,31,3070,-1515,352,1540
858,3023,-1651,-980,1453,277,-1925
859,-5974,-5555,-7363,-865,-138,-1116
860,4117,-128,-4716,-68,1257,-197
861,-5314,4840,6790,-135,-1745,-290
862,7491,598,-7006,-1098,-626,-861
863,4050,-2637,835,-1845,197,1788
864,6905,1184,-4755,1160,1326,1349
865,-3631,-4150,1099,-125,284,-244
866,5536,-4414,-3381,-646,-744,-1330
867,-1328,3687,-5483,332,1152,1254
868,-3718,-2099,-7807,398,-151,1138
869,-6405,7499,-3070,1882,113,131
870,2699,2115,6824,749,-871,1136
871,4778,-7396,-7741,1149,1721,-90
872,-3451,-4187,6927,647,-625,-995
873,7864,7189,-5808,829,-92,146
874,-3496,1950,3810,-1732,91,-1646
875,2322,3923,-2238,-1686,-495,408
876,-1115,3204,-4262,1076,-664,860
877,3029,4706,6224,287,755,-1295
878,-7878,-3522,-2618,74,863,1617
879,-6885,-4214,118,722,-192,-1978
880,-6802,414,5503,-1663,566,-144
881,3099,5963,4612,272,802,575
882,7876,-848,7037,-899,1834,1577
883,4092,3524,-214,-1531,722,-1133
884,-4099,-3930,7611,-1264,-1470,-939
885,-3230,-6817,2344,1878,-914,230
886,3855,345,-6098,-678,1550,491
887,398,4231,3534,-598,-482,-26
888,3058,-6162,5081,649,1684,-873
889,-5993,-5634,5747,-1768,-1810,165
890,-7893,2065,-5037,606,-739,544
891,-5165,5214,-1969,-1035,-996,100
892,5716,2710,-2716,447,873,-1961
893,-4547,2976,4212,-1711,-1463,-1385
894,4693,-5786,-4247,1679,1898,-1601
895,2917,182,-2184,-435,-1759,-1379
896,3043,6014,7495,-560,387,515
897,2811,-6374,-1375,-789,-1775,1298
898,-4724,-4677,-4823,1898,-1223,-85
899,-7909,-6374,4172,829,441,1226
900,-3200,-5275,647,1266,1230,884
901,116,4317,-7891,1574,-804,-144
902,-746,1421,-6551,-1845,972,-653
903,-4745,-7256,-2670,-1137,-1403,1041
904,6959,7393,2591,-190,1027,758
905,4174,5690,7697,-530,1099,200
906,-7137,3898,-1429,673,-1314,-2
907,-5863,-3757,7819,684,-976,1169
908,3282,711,7419,516,-93,-1107
909,-81,3770,3846,1009,678,-1868
910,-4249,260,-6984,-492,-548,-816
911,-1131,3023,1339,360,-1862,-1847
912,-678,916,5601,301,1284,997
913,1201,-2889,-1658,648,-248,1561
914,4624,-1435,-6614,1859,-1732,-829
915,-4601,-7103,7072,1522,946,1164
916,5116,3140,7949,-1239,-829,1398
917,-3470,7055,542,-1702,-1016,-693
918,-6782,-1639,2630,973,698,-339
919,-6246,-3560,2519,-1720,-897,-655
920,-7228,-7046,1159,-1419,155,1340
921,5351,4058,-2951,546,-1091,1270
922,1685,-3835,7752,-1912,293,47
923,352,-3590,3774,1373,575,389
924,4348,-5752,-1181,819,1993,-182
925,1806,-2636,3082,-1718,284,-802
926,5126,1609,-3530,1787,1084,-382
927,855,-101,4950,102,-829,749
928,-94,-6735,-7400,-161,-28,-29
929,-1567,-7532,-7527,-270,-1031,1257
930,-2809,6495,-6178,1207,542,1946
931,132,6559,6792,1449,1184,-834
932,213,-1406,-5872,139,526,-1531
933,2279,-39,-5194,203,696,-438
934,-7009,7670,809,1038,854,1758
935,-3592,-647,3592,-1473,57,312
936,-1392,3237,-3897,-1015,-1162,1355
937,-2338,-4242,-2404,609,-279,-455
938,7477,-2647,6821,-1690,-1840,-1005
939,1741,5504,1503,-1591,-1381,-922
940,461,-3471,3733,-714,-490,1476
941,-2529,-4258,3230,503,-1161,-985
942,-734,3594,1108,1975,360,949
943,-6344,-5905,-1108,535,1430,1222
944,1384,599,4184,1009,1922,-405
945,2010,-3740,-7956,1805,-1572,658
946,6370,-1329,1116,-1337,1161,405
947,-5332,-5737,-490,92,-1799,-1558
948,7063,-223,4584,190,-988,1857
949,7242,1015,2843,-758,1145,-1156
950,5997,3294,2155,1076,749,-922
951,6281,-1459,6743,-678,-1941,925
952,-7569,-6528,-3306,1310,1980,658
953,2801,5849,-3430,1477,-753,1434
954,191,355,2754,-1737,596,-533
955,5861,-3621,-266,-1520,827,1747
956,-3242,4323,3440,839,23,221
957,-3678,4841,4566,-511,1633,1661
958,-6487,7637,-6377,1597,-1430,1564
959,7139,-908,-150,577,1561,-761
960,2381,5761,-6597,-1844,-768,-523
961,-4378,-6162,-7505,969,889,1627
962,4670,1259,5422,1676,-1390,601
963,-2154,-5511,927,1944,-12,-393
964,-7626,4958,7267,1057,1563,-3
965,7126,-5910,-3778,494,-1410,-1128
966,6396,-5795,4398,1634,1766,1721
967,-3340,-808,2495,-152,148,-580
968,-7741,1939,7738,-1777,-218,558
969,-1650,-5601,-4320,546,-1098,-88
970,7538,-4596,-5891,-1398,-1474,675
971,-6178,796,2848,1706,118,-308
972,1658,6604,-6524,-1679,1479,10
973,-3529,-7815,-1568,1098,-1962,-444
974,3552,-882,-1324,1559,-431,-438
975,6624,-1441,-5594,1542,-544,302
976,4490,3071,2354,-1459,182,450
977,-4830,3803,-2952,1535,-1384,-1849
978,-4555,-6853,-2067,-1256,176,1261
979,7033,1892,5142,-414,-1857,324
980,-4765,-4093,-6547,21,1456,1030
981,-5049,6954,-5097,371,661,1706
982,5270,-2538,-5791,1457,1236,884
983,5098,4402,-7672,-1777,-154,953
984,6379,6467,-6058,1884,767,1114
985,5591,-3350,-4712,597,-1253,-1033
986,811,3705,-5914,558,1081,1855
987,1151,812,6615,-1307,1660,-1720
988,3230,-6772,6379,1884,319,-1684
989,-5576,4610,-5023,1161,526,-533
990,-4163,6538,4745,730,338,-1344
991,2282,1574,-605,786,-1620,634
992,6614,-7163,7185,-1048,1012,-1971
993,743,3377,-7723,1100,1891,-671
994,-6710,-7215,-3741,1491,-1990,1502
995,2529,4701,-604,519,-560,-418
996,7500,-6828,-541,687,241,1700
997,-3222,-674,-24,1510,-1565,-1839
998,-1652,-2943,3728,1690,-344,-647
999,-1802,-2282,2158,1366,34,-216
1000,4342,-4120,-7791,377,1989,-608
1001,-2421,-653,3113,-1377,-251,-854
1002,192,6702,1247,1353,1001,-1891
1003,-1533,3064,4263,1175,-922,1878
1004,5316,-7367,-6437,-1970,1263,1499
1005,4590,1722,6312,-989,107,36
1006,-3389,590,5493,351,-612,483
1007,-6043,-2461,-6499,1971,-1142,-217
1008,-5463,-7724,5995,-168,-1737,1813
1009,-67,3814,-6671,1381,-1471,641
1010,2286,-6134,-4969,1648,1400,925
1011,2801,-67,3342,1123,-952,886
1012,-4450,-3186,6606,-1153,-1486,-315
1013,-1037,5593,5440,-292,-1943,1517
1014,-3884,3366,4138,-1782,1999,-1153
1015,-4207,1227,-4629,507,522,2
1016,-2176,4975,2591,945,1640,1011
1017,2593,2066,2234,-368,148,-1355
1018,-2828,-2413,-5953,1846,-1437,1494
1019,-4465,2788,6475,1417,-312,888
1020,-5862,3160,-2569,-1840,1692,1005
1021,3350,5714,-4560,1104,1495,935
1022,4116,731,-571,-19,1097,916
1023,221,-1122,4390,1204,1081,1499
1024,-1364,6876,-6202,-909,32,1352
1025,-7577,-5775,-7432,-748,1935,387
1026,-6912,6460,5024,1653,1381,-1180
1027,2395,-2828,2760,952,387,-993
1028,2981,-7190,-3231,1977,1324,-580
1029,1914,7082,6713,-680,760,-1508
1030,-3679,-7128,-6583,-1595,-712,904
1031,-2342,4810,-5901,-1532,-1928,-737
1032,7449,962,-2826,-1579,-1135,-993
1033,-3822,4071,-1501,-682,-844,1175
1034,-3063,5580,-7094,1878,1398,634
1035,-7929,6137,3459,1923,-956,932
1036,3122,2886,-4454,-1623,1180,1117
1037,-1945,-18,169,1897,-89,-536
1038,1606,4507,-4219,210,-363,1540
1039,-2917,6483,-4159,-964,-1448,1215
1040,711,-22,7185,1291,-10,-227
1041,5556,-2213,7748,-239,-1831,-1536
1042,-4238,7393,2034,-1170,-1631,-394
1043,605,6037,-2629,-566,-1126,1627
1044,-79,1681,-2078,-1251,972,331
1045,5403,-2339,2795,1825,1498,1005
1046,-172,138,-7099,-452,1054,1839
1047,5656,7364,3642,-175,1116,447
1048,4979,-1920,-3982,-2,1873,-1966
1049,-3695,-577,5085,1836,-1794,-1316
1050,-7712,399,-3845,-1928,-498,-1184
1051,6083,7498,2981,-992,178,-657
1052,3909,-1164,7177,-1388,916,-584
1053,-7863,-1608,773,680,101,1442
1054,-1528,-2517,5069,-980,-1611,-892
1055,-5648,1369,-6699,-1873,-586,674
1056,-1344,6712,-786,-1974,1746,-1612
1057,6172,3565,-1808,1050,-201,1136
1058,6283,-5564,6679,-664,-1959,1787
1059,745,278,2499,326,-1832,805
1060,2144,-7069,-5826,-82,1204,1742
1061,-3447,6199,-626,-408,1432,-335
1062,104,240,6535,-954,1368,-1253
1063,6964,7739,-7052,1822,-718,-1991
1064,4154,-7581,-4949,1176,1050,-310
1065,-5758,4438,-4916,222,1862,-1743
1066,7223,-6414,5674,1326,-1193,751
1067,5012,6216,1210,-262,1853,1538
1068,1933,4964,7221,-1153,-1402,5
1069,-6448,5380,-4689,-533,-1541,1011
1070,2636,5314,6455,-1493,-530,-957
1071,923,-6576,312,-925,-1801,71
1072,1043,3572,-6625,433,-1564,-1583
1073,4583,-5014,-2663,5,-116,-912
1074,-7752,-2137,-1299,-1201,997,1603
1075,3989,-410,5877,-1914,-826,-1738
1076,6788,914,3994,345,-1378,-1216
1077,7932,6288,-2261,-117,-949,-973
1078,2660,-3063,-1861,1292,-154,-1045
1079,-6480,1159,-5033,-1989,23,516
1080,5861,-2295,7912,-1104,1816,-1736
1081,-3397,-3932,-6584,-812,399,947
1082,480,3674,1204,-975,889,-85
1083,926,-1989,3943,-161,-1132,1476
1084,-4619,7444,3587,889,1409,1159
1085,-5367,-6115,-3437,1726,-1146,-417
1086,556,-2173,-1445,-1155,-1464,339
1087,-3598,7206,4591,-1294,1548,1323
1088,1199,38,6885,-1618,1768,473
1089,-6245,4298,4356,417,1102,1849
1090,-2414,6767,7508,-1665,1934,-720
1091,-5702,6918,-5940,150,-145,1369
1092,-2771,-7416,-1789,-1053,-17,1066
1093,-4252,-3882,-6173,762,1496,1794
1094,-2003,7159,5341,-875,839,622
1095,-766,7453,-920,363,-546,257
1096,4346,-6175,-4057,860,-802,-507
1097,-4155,7720,213,317,805,52
1098,-3659,3086,3487,-55,-64,-152
1099,-1764,-3840,-2914,-1306,-815,-1959
1100,2359,7517,7995,-1008,-340,1067
1101,-2891,-3753,4263,-1606,176,287
1102,3051,4791,6041,-422,931,1077
1103,-2543,4450,7950,-339,532,1236
1104,1237,-468,-530,452,1581,524
1105,2174,-4183,-4485,1153,1947,979
1106,-4075,-2057,4161,-1829,-1009,1426
1107,1945,-3470,-4124,8,-1942,1645
1108,1336,-5182,-7128,-1486,1901,764
1109,-4289,-2147,-3211,-587,-1110,-1445
1110,4717,2,3957,126,312,-702
1111,3612,-1278,7533,-1344,1756,19
1112,-7908,-7419,-6632,-373,-1544,1065
1113,7919,1326,6175,-1195,1311,-131
1114,-4154,-4734,3814,-1575,-1591,491
1115,-5436,-1133,-4071,935,1381,-387
1116,5319,7615,1482,-1099,993,-1560
1117,-6287,4195,-3763,-766,-202,12
1118,2800,-6203,-7452,-1563,-1021,-1856
1119,-2647,2923,5534,-835,-1954,-1483
1120,6950,5244,-7057,-622,-1068,-250
1121,5813,5363,4941,-657,1882,1319
1122,7769,6444,-1962,115,1352,-1667
1123,2206,-3510,-4986,203,-1189,1103
1124,-744,4047,6617,1800,441,1003
1125,6247,5684,-6500,-1885,-1279,1399
1126,-506,1045,1621,-758,-898,1905
1127,-823,2376,4562,-88,231,-1375
1128,-7968,-2874,-4093,1940,-1399,-1225
1129,-6055,2,3317,-508,-1758,-963
1130,3373,-2461,5958,728,-1952,-727
1131,549,-4923,19,-1827,-469,-1919
1132,-1294,6998,-1190,152,1240,1670
1133,6546,-5940,-1358,1571,1475,-988
1134,-2873,4856,799,1024,1165,-385
1135,-4164,3131,-3719,-1296,1010,-1267
1136,-2037,4924,-2581,-490,-883,915
1137,-2988,463,-4289,-1492,-1213,-1704
1138,7140,4369,-5188,-1506,-1317,-1416
1139,-3270,-5734,3174,297,907,-617
1140,612,5982,1691,948,1871,-754
1141,7594,1878,-2498,321,-356,-858
1142,-1202,-1488,3917,-978,-1640,-242
1143,7243,3763,526,1444,1667,-576
1144,-4408,7364,-6168,-978,-1355,-1310
1145,-3296,-4188,7306,-903,-1979,-474
1146,-2057,-3441,6348,-284,-1682,-398
1147,-6512,4756,3665,133,1921,-986
1148,-1984,6824,2451,-694,274,-104
1149,-3460,7322,-6148,-965,-1988,-1979
1150,2809,344,1243,93,362,760
1151,-142,-2773,-1329,-582,709,-817
1152,3749,4894,-4454,-340,1469,-1034
1153,1140,3636,4681,-661,534,1899
1154,-1500,4783,2092,-1934,410,-689
1155,-575,-7748,-6792,-603,1552,-539
1156,-7012,5264,5351,-782,-418,-1134
1157,-2966,-5684,-4508,1178,-1398,-1670
1158,-2442,3353,-6970,-1053,-1126,1951
1159,3232,4586,-4486,547,-1674,-389
1160,-3004,-7546,-507,-1793,-1432,990
1161,-4467,-1187,791,156,963,1206
1162,-5982,5538,418,-1230,-1553,1945
1163,3940,5968,-3820,1194,-833,-1519
1164,6206,3230,3090,-1871,-1417,-933
1165,4957,-5610,2156,-1623,-834,831
1166,865,3884,6733,-1903,-638,-1545
1167,-6547,6613,-4364,-1582,-1415,-1457
1168,2815,3879,1684,1121,-1950,-1941
1169,-7372,3223,3460,1179,663,1924
1170,6421,-7058,871,-1208,-386,407
1171,-7655,-2658,-7765,-1120,-903,1729
1172,-6509,1649,-5562,1320,-1488,1121
1173,4622,3350,-2906,-427,-604,601
1174,2650,2956,-2197,-800,1434,1177
1175,5007,7162,1122,785,241,1062
1176,3112,5135,-6155,515,1873,-1371
1177,4430,6020,2168,817,1562,123
1178,2579,-6117,-830,-1837,1766,-1027
1179,-2440,6893,1138,858,-1171,1215
1180,5017,-7953,5771,-609,531,-1121
1181,2180,1605,4228,-1186,-1164,-546
1182,3335,-2937,-1305,-1013,-481,869
1183,-3225,-4539,-155,1821,1054,52
1184,2401,2320,-7650,-1184,-1079,-1425
1185,-6513,7384,507,175,-1738,-307
1186,-3649,647,5041,-1216,1051,-1242
1187,-5201,-1092,-2478,-1223,-189,-1938
1188,-5851,1544,1231,-1924,4,1091
1189,1222,-209,6079,371,-604,-1562
1190,3210,6573,2808,-1413,-1766,1308
1191,-2831,-6891,3815,1385,-1610,-369
1192,2651,-5043,-4072,-324,138,-1707
1193,2423,7822,2645,159,96,1034
1194,481,-1242,-5332,-77,-1114,1745
1195,2313,3169,-7341,502,593,-1860
1196,-7726,3835,3806,-941,-1245,-1492
1197,-3500,1835,-4559,-1820,1609,1311
1198,-7692,1196,-895,1001,-193,-1756
1199,6480,1271,-1740,-1284,1476,1639
1200,6240,-256,-1698,1517,-1445,-995
1201,4910,6226,-6779,693,1170,-1944
1202,-4118,-5666,-4786,1407,1809,-1705
1203,4143,3619,3322,1152,-1761,-30
1204,1780,-7081,-7603,-1254,490,-1658
1205,38,-5584,-7617,843,-1456,-798
1206,3164,-5516,-5768,-1846,1221,-733
1207,-7214,-5909,4141,760,198,339
1208,5934,-1639,-6812,-1445,-1717,1247
1209,-4215,-187,-1127,-499,1942,828
1210,1769,5372,-6247,376,1577,-1252
1211,-7914,-5052,-6505,1511,455,1551
1212,2821,2689,-4651,-415,-1813,107
1213,-1891,2976,4747,-1402,1926,-442
1214,-4856,2539,-3246,265,-537,1610
1215,-4566,5267,-7489,1495,-421,-1792
1216,1468,-3715,2279,130,70,944
1217,-4455,-1024,-2831,792,-1914,1048
1218,2144,7988,-2080,-1775,651,903
1219,5656,2121,-2740,-1118,-1919,959
1220,-1303,-6657,5439,-341,1637,-1704
1221,-892,-6424,5569,1679,-434,-1593
1222,-4515,3936,-1650,677,589,-1149
1223,-6691,5439,-4251,1721,-573,-1223
1224,-5239,1703,-5358,-772,1009,-931
1225,-2051,5233,7906,272,118,-1807
1226,-155,-3167,6237,-1354,-1936,1339
1227,734,-4834,3406,1291,-749,1855
1228,-918,-7052,3949,-1365,-791,1546
1229,-7251,2549,-2340,-1667,-382,-1723
1230,909,-2752,-3226,-913,1788,470
1231,-1829,-5953,3396,447,-660,-248
1232,708,-7642,-474,-98,-1958,267
1233,3571,-6367,44,1137,-1826,307
1234,7215,2640,5621,1535,932,859
1235,-877,-6166,-5082,353,-1421,-694
1236,-1727,-1069,6824,388,587,-419
1237,-4477,-2259,-2273,-1555,-1126,-306
1238,1467,-3170,-7897,1545,-1327,1489
1239,-2759,-2451,2830,-1440,-1155,-68
1240,1413,-232,1051,-442,840,1216
1241,-5133,2386,-4777,964,-1766,66
1242,-2848,-2428,-7069,-312,-68,-1671
1243,4634,3210,-810,-1993,-1731,764
1244,-1861,5067,2501,1986,20,939
1245,7269,-4078,-4494,697,-870,1976
1246,4715,-4618,2357,-1228,11,-1104
1247,1624,-1060,5227,-582,80,840
1248,7713,-1774,-3558,-642,-576,1489
1249,-3814,2950,6208,45,1885,-1592
1250,6164,2853,2787,-1148,-401,-205
1251,-2782,7999,-6064,-313,1033,1520
1252,6809,4490,-1476,140,1536,-671
1253,-1354,6424,-1150,1087,-923,-986
1254,2641,-7242,-271,791,-1242,-1356
1255,6972,2111,-6639,1740,1805,-1240
1256,7885,-5881,-1386,560,1471,858
1257,231,-3919,2423,379,1645,-380
1258,-666,2265,-7513,293,1068,1685
1259,-4960,-5826,-6977,1446,361,521
1260,6685,374,-2088,-480,417,-866
1261,5157,3121,-4166,-363,1496,-689
1262,-7300,4079,4364,-1694,946,-1254
1263,6685,-7827,-1128,-1584,1795,-897
1264,-51,-5513,-5727,1247,-247,-803
1265,-534,-6487,7025,1262,-141,757
1266,2474,-2402,293,-1629,1932,-1932
1267,5296,-2504,7558,701,93,1188
1268,6437,-7048,3012,1793,674,881
1269,6632,4693,2032,-177,-1572,915
1270,-7648,1613,5825,-1140,1745,-964
1271,-5024,6749,7707,-531,1935,-311
1272,-812,-7340,107,478,1613,-568
1273,-1553,-7476,1945,-1115,-537,-1066
1274,-2161,-4715,4604,1794,615,1574
1275,1941,-1787,4451,-125,-212,126
1276,2104,6968,70,542,-1266,-711
1277,-5808,6997,1737,-24,-135,135
1278,7530,6993,6612,-1232,-1100,-1419
1279,1666,7412,7406,-146,-1451,-1333
1280,1981,-2570,7924,523,-1163,1316
1281,-4656,-5890,7751,-130,-28,-273
1282,-3207,3928,-1208,-389,-758,-1383
1283,-6062,-1552,3758,-56,1262,-1221
1284,2214,6278,-323,920,-1459,188
1285,158,-1004,-631,1633,1188,251
1286,-3932,1933,3726,-258,-1400,-1782
1287,4173,-6415,2918,1034,1515,1063
1288,4711,7324,-5721,1579,1666,-1555
1289,-326,-6834,2529,-879,1266,-1421
1290,-4645,2732,7463,1233,55,1288
1291,3218,1894,3239,1351,1907,-786
1292,6596,-2036,5786,1253,736,-264
1293,-3764,3092,-3483,1118,1117,-1125
1294,-3657,311,-3208,1771,1094,465
1295,-2612,-7929,-4565,-846,-1264,-1435
1296,280,4159,-5877,-1655,555,710
1297,625,-1434,2202,807,1049,-1546
1298,-2259,6705,6820,1280,1106,1968
1299,-1371,3974,-7382,215,-116,1895
1300,-5776,168,1109,-1207,230,462
1301,-2031,-4550,-3242,1961,194,1045
1302,-7056,7556,2257,-579,374,495
1303,-6270,-2924,-240,-1850,1946,1708
1304,3517,7282,-7482,-333,-134,716
1305,5142,1832,-7873,670,1540,-1492
1306,-2678,-6430,-5325,-222,1921,581
1307,-1539,255,-6913,1306,-1139,295
1308,5408,-7702,5247,705,-108,-225
1309,-6582,3968,4120,-79,1964,-864
1310,2993,6940,-6871,657,-1228,-1239
1311,5519,3580,-5098,561,-1386,1434
1312,1075,4192,5524,856,1472,-842
1313,-4296,-4246,-6950,-641,-1693,-33
1314,3314,6263,4955,-1054,394,1402
1315,6738,-2066,7784,818,-1960,-1259
1316,2864,-2944,-7122,-917,682,1659
1317,5455,6527,1074,-1031,-738,1849
1318,-6091,7628,2073,28,-1246,465
1319,5203,6525,6188,-232,415,-654
1320,-5008,-7259,-7199,420,897,1066
1321,3436,-5861,-6880,1424,1645,-769
1322,-6727,-2131,7929,1843,247,452
1323,3457,-330,2596,1417,-255,-567
1324,-7726,-3162,-3767,728,-201,1669
1325,-7838,3497,-3294,-1450,-1833,662
1326,5727,4722,5562,1752,1974,-209
1327,4117,-1794,-58,-1914,-1378,-954
1328,1734,-2549,1790,-1431,-230,962
1329,5515,-7653,1114,1000,1201,-333
1330,4061,-6061,-7103,-1219,1736,-1874
1331,7498,7751,-2398,216,-161,1974
1332,-4210,-6728,5228,1462,1486,-1923
1333,6261,4186,397,699,1611,-1837
1334,-2839,3852,-2381,1056,1850,285
1335,4209,-2,-7488,18,-1675,756
1336,-3994,-4784,6670,1787,1628,-728
1337,4719,-5441,2595,-593,-1756,412
1338,819,-2616,32,207,242,1135
1339,-7147,5583,2006,-1573,-1442,-1267
1340,5354,-7508,7401,233,1059,1927
1341,4316,786,1961,-1286,-981,-1145
1342,-79,2011,3864,-324,-656,538
1343,4528,-7092,-2543,-152,1337,-55
1344,-194,4201,4287,661,1450,-1713
1345,3665,-2668,7156,1516,841,1748
1346,-2224,7825,2335,1117,1031,997
1347,-6357,1449,1268,1665,1219,-1355
1348,-1441,571,-742,-1779,-211,-137
1349,-4069,-5487,6890,1547,72,473
1350,-6316,7408,-93,1062,1593,-160
1351,-1414,5031,41,794,1976,-871
1352,-1996,-4247,-3526,-413,364,-550
1353,-6339,-1445,-5373,-1035,775,997
1354,642,-2448,-7837,123,770,1273
1355,440,-3635,-2220,-1291,-195,-807
1356,-4626,5471,7475,144,1671,353
1357,3909,-1698,1214,-1921,1041,1929
1358,-959,7961,1513,-358,19,784
1359,6501,-3810,-2313,1823,279,-756
1360,-3821,4277,-1305,561,586,-358
1361,3999,5968,462,517,-819,-717
1362,-5945,7116,173,-729,-1529,929
1363,-6443,-6839,-1447,738,668,1669
1364,-7450,4362,5036,-864,1342,304
1365,3577,-1599,-3902,784,-1956,-1301
1366,5805,1193,-916,-1427,910,1118
1367,-1835,7741,6785,1456,-145,-1839
1368,-4703,3915,6823,-1762,50,-1487
1369,-6572,7176,-3685,1711,1267,963
1370,4408,7913,3594,-1859,-329,197
1371,3731,-3045,-434,1065,639,849
1372,-3620,-999,4037,-453,1139,-1336
1373,510,-6503,-7112,-1533,-1963,969
1374,7754,-1291,-1164,551,1453,-668
1375,3673,705,-2603,488,309,-439
1376,5026,820,6969,685,6,159
1377,6556,1175,5413,1636,-1374,1837
1378,-2966,-1317,-3635,331,188,1904
1379,-5816,5479,-5370,-515,1220,738
1380,5990,128,7461,-1965,1741,771
1381,-5610,6107,2519,-374,984,644
1382,-495,735,-1631,-1361,-1868,-1757
1383,3252,-1480,-6238,-937,-463,-222
1384,3000,-1242,4568,1353,-1286,526
1385,-2535,-7239,-1210,-131,152,1819
1386,3932,7358,58,1954,1448,1332
1387,-5239,3820,-4999,1841,979,461
1388,5789,-5431,965,-1473,264,51
1389,765,-1478,-2270,1613,-1696,-935
1390,6162,7385,-7359,-8,-1126,1333
1391,3252,1448,-6089,1439,-1979,1318
1392,440,1194,1324,-428,-389,1882
1393,-1460,4724,-3129,1997,770,1656
1394,-5434,5887,5023,-823,-1355,148
1395,-3281,-314,-3334,-345,99,578
1396,1512,6747,-4390,35,-348,1356
1397,-17,5485,-3566,-1160,-559,14
1398,6011,2755,-4449,449,195,217
1399,-2346,-3957,4147,-93,-743,354
1400,-3944,3696,2767,889,297,-178
1401,23,-1465,-1374,-133,-1366,-752
1402,5578,6059,4947,-42,727,-737
1403,-2238,-2087,3552,1349,270,-15
1404,-2612,5709,2698,-376,-1405,692
1405,-7352,4219,3830,-1726,984,-426
1406,-1764,4464,-7623,921,-1493,-34
1407,6522,-4513,4545,-939,520,1372
1408,-5602,3878,-691,1685,114,1023
1409,-4234,1674,-2603,-434,-249,970
1410,5563,1001,5022,1754,1458,-1740
1411,7489,5964,3148,-619,-1781,1002
1412,4303,5937,-6363,72,1735,-675
1413,-480,-7486,-6003,406,-335,981
1414,7115,1408,-1801,805,-1575,-1562
1415,4509,6019,2790,426,-1667,1116
1416,5348,5464,-32,905,-1879,-1959
1417,5438,1548,-3262,-655,775,-1825
1418,6431,4844,-4340,1121,272,-1736
1419,1181,4446,5430,591,901,-127
1420,2765,-5516,-4826,-1286,-1571,-1393
1421,3326,1217,6101,-1932,1946,-1907
1422,2685,-698,5398,1759,1112,1300
1423,2017,4988,5275,1929,1009,690
1424,-2634,-3157,-2502,1469,-1894,-1134
1425,4136,-5207,5201,-1129,-676,-1752
1426,5439,-3995,-2474,-309,1038,1945
1427,7070,6765,1448,-1511,11,-888
1428,7812,5191,5590,-742,1450,1127
1429,5802,-95,949,1070,1812,296
1430,2604,4267,6808,672,1580,1395
1431,-6194,4166,3162,504,-1382,-1819
1432,543,-1056,-2939,1098,1031,-741
1433,4538,-80,-301,-1168,-1708,-113
1434,4276,7038,-589,1841,-1277,565
1435,-122,5076,-4290,-1842,-735,23
1436,-5265,204,1554,1056,-735,111
1437,415,1937,7625,1325,1044,-1330
1438,-4525,2444,-6021,-616,620,-196
1439,-5037,735,1836,1726,1814,1601
1440,5806,3740,-7346,859,-1187,-1236
1441,4450,4253,-6346,-1082,489,1811
1442,7086,2834,2156,-1773,1642,-36
1443,2282,6841,-3691,-1562,-1963,982
1444,-3258,-3994,2692,445,-1194,-1771
1445,-852,837,2515,1416,1203,-319
1446,-296,-2016,-144,40,1512,969
1447,5072,-7171,-1959,1329,1441,443
1448,-2930,6308,-869,162,-750,1951
1449,5621,588,-1893,1698,-1742,830
1450,-3491,-3104,2467,728,1722,1791
1451,-3697,-6735,3461,1771,1847,-1571
1452,3439,421,2606,1772,-523,148
1453,4587,7194,7222,1215,969,340
1454,-1936,3779,-3595,1274,-575,1781
1455,-1374,5971,-4440,-1487,89,-107
1456,-616,5042,-1560,1746,1729,1129
1457,572,3008,-7395,737,-922,-258
1458,5780,-5150,-4791,-873,-188,-495
1459,1097,1886,1619,1589,1223,-379
1460,4415,6979,1560,-1455,-1297,-1986
1461,-4306,-3051,5365,733,464,1146
1462,341,6716,7377,-524,-902,830
1463,3352,-7247,4531,-430,-1306,1763
1464,3992,6931,-2045,1510,154,-1156
1465,886,-1800,-1797,1683,18,782
1466,-4108,3145,4945,-612,1632,1579
1467,-2080,-6605,6141,1584,821,-1766
1468,-4861,-3172,-2185,-1060,1342,710
1469,-4559,6079,1278,-1063,-186,1275
1470,-7126,2532,482,-1352,256,-1532
1471,-3705,3806,3676,1111,1549,369
1472,2989,3110,-7472,-1438,-10,-1706
1473,-7474,6410,2750,-1180,1499,-1371
1474,-1408,843,3837,179,213,-1002
1475,2840,-1538,1026,-1842,1746,1669
1476,5832,-5323,-7690,71,1810,1983
1477,516,-7214,-2937,-197,835,-598
1478,1624,3717,6438,502,270,1924
1479,4802,-2488,-4456,-79,1196,-1865
1480,-7773,-2501,2081,-366,-1075,-69
1481,-3853,7213,-2932,63,1675,1425
1482,3584,-6313,-6350,-425,-1285,-595
1483,3503,-4111,7981,-46,-1958,529
1484,2116,1822,1448,361,-265,-446
1485,4570,1280,-6576,711,1758,-1545
1486,4157,-5067,-6282,-1310,-497,-1961
1487,-4138,6322,-2314,644,-1928,-532
1488,4110,2105,2015,-1594,1406,-1226
1489,-2667,3847,-2686,1630,-479,1734
1490,-3544,-1450,-695,671,-1499,-663
1491,-626,-7531,-113,-370,1889,-1066
1492,2500,6413,3657,1382,1420,-725
1493,-6669,-6590,-4736,-807,1605,781
1494,-57,6899,2712,-1799,1091,-278
1495,-5473,4744,2735,-1093,-449,1027
1496,739,-7680,-2785,-996,1492,-1962
1497,-7102,4507,-1006,-561,-1186,1308
1498,2181,-1764,-2552,-899,1687,-41
1499,685,-3085,1603,-1243,-169,1268
1500,7330,234,3919,-1791,223,1749
1501,1789,1635,-7223,-770,-1759,-210
1502,-7726,7878,-7706,-1461,1049,223
1503,7412,6681,4012,556,1629,1499
1504,7733,-7398,-7295,-1951,998,-1021
1505,7491,-613,7270,-1448,922,1457
1506,1015,-6252,2531,1025,961,-720
1507,724,7497,976,-580,1286,-771
1508,-3009,-5525,-1712,-1371,1454,414
1509,2663,-5005,3184,-1302,768,911
1510,-5450,3279,-3596,-1869,234,1813
1511,-5036,-6387,330,-1654,1441,-1914
1512,1550,-3742,4120,-318,-28,-1198
1513,5441,-7306,-1122,744,431,-1634
1514,-7590,-2844,604,-1941,-1317,624
1515,5910,5693,1325,-607,1803,1341
1516,6633,-4436,-7843,560,538,1543
1517,-3993,677,-7206,-1818,-1532,1262
1518,-3234,-7903,7228,1592,1835,-1359
1519,3622,-861,2090,-64,-673,-654
1520,-4460,-4737,817,1399,-1816,834
1521,1419,7751,2793,854,-868,1885
1522,425,-5443,-1158,38,-130,-1982
1523,2872,1680,-3296,-248,414,1122
1524,-552,-1723,906,-962,1965,-1650
1525,-7594,-5687,2410,-694,-531,518
1526,-1264,-6818,-2580,195,-212,-495
1527,-4408,1811,3293,61,-1185,-103
1528,630,4656,-5652,-662,-1863,-1357
1529,5982,-828,-3586,-1963,-497,-865
1530,3666,2583,7455,-318,-1842,-616
1531,-455,-366,4518,59,-1054,867
1532,7663,6949,-2428,-320,440,724
1533,-7805,-5018,3768,-691,1403,-1572
1534,7929,4165,-2737,721,-1481,-1468
1535,-639,436,-1591,-653,-1869,1571
1536,6928,-3277,2591,1251,-1251,-1311
1537,-5450,5984,7169,-1509,309,-109
1538,-4402,-3448,-4518,1310,1604,1858
1539,7107,-5444,-2082,-1343,-693,-1469
1540,4061,2933,-5623,906,-1354,1500
1541,4035,3470,3378,1914,-1879,1998
1542,-7594,-4517,1722,437,1065,-1396
1543,5654,4158,4955,-922,852,-13
1544,-6384,1540,-7457,-1396,840,426
1545,-90,-4733,-7099,275,-1748,1481
1546,-1165,-7001,-6729,-139,-641,-1505
1547,1101,-4055,-2519,-1542,667,959
1548,-2395,-641,7714,828,1142,1528
1549,-2651,4834,-793,-185,727,1366
1550,1380,931,5345,-642,1964,-388
1551,3030,4576,7002,-422,-1480,-1079
1552,5686,-5131,1789,-643,-858,-766
1553,1489,-6732,4055,-757,1851,26
1554,-6548,6179,2524,-27,332,-7
1555,-1798,-4696,7586,-1189,1761,1836
1556,7488,4464,-2722,261,-185,-894
1557,4525,-6366,-751,-1591,767,1736
1558,2253,7882,7891,-589,1759,1602
1559,-5182,-481,-1005,-1042,-925,1490
1560,-357,-609,-3623,423,-1707,-684
1561,-6779,2174,5320,1908,31,-1229
1562,1691,-7378,3485,-1810,-298,-872
1563,4994,-3063,3001,-1727,-762,1755
1564,-4849,-3322,2742,678,-1500,1419
1565,1774,-2773,-4421,-819,-1201,-639
1566,4370,-6533,-1639,-1236,-143,-441
1567,-3689,7983,-3506,-593,-1806,827
1568,5135,1038,5862,-423,-234,874
1569,3631,2539,5772,1098,-381,928
1570,2119,6904,-6898,1555,-1765,1471
1571,2871,5846,-6408,-575,1975,1641
1572,-6618,7992,-1706,-613,38,-821
1573,-3332,-3483,7279,-1204,43,352
1574,-1267,6685,-3478,657,-1250,1342
1575,-1158,-3714,4597,966,-60,-1557
1576,7503,-659,5262,1201,1352,1845
1577,-5345,7518,2937,-136,1954,-1249
1578,-4950,3890,4847,612,-1560,398
1579,6491,-4541,-1668,1073,-1785,931
1580,-3505,-3485,-1118,19,1962,400
1581,1667,-5439,5171,721,1937,1447
1582,-6151,-4307,5263,-1218,1031,997
1583,-3899,-6090,-7257,1367,1743,-493
1584,4743,1914,-1059,-212,403,869
1585,3365,1008,-389,1305,1530,-632
1586,-557,-2349,-6616,1991,1257,-1755
1587,1287,6470,-1625,1484,-24,1735
1588,1818,3575,-6994,-241,1803,-1848
1589,-5899,1001,2228,220,867,-560
1590,6426,-1213,-7504,-1010,1157,1003
1591,-7903,-4702,3349,-246,-343,-664
1592,3476,-3730,627,576,1339,1785
1593,-1010,-7639,1256,-121,-1788,704
1594,640,-4679,-7196,-1330,-1638,-484
1595,-2052,-6417,5971,-1707,427,-1347
1596,-1651,2797,-1232,-1089,-1600,986
1597,7010,7513,3043,-1586,247,298
1598,850,632,7683,726,-1185,234
1599,-2843,-6566,-1649,308,-709,-359
1600,4364,-4559,-2062,-978,-1051,1658
1601,6398,-6603,-7209,-1615,-1013,961
1602,-6673,-2309,7737,-343,1680,-1369
1603,4861,7331,-3876,-1244,1466,1104
1604,5945,-1083,7942,-1283,1169,499
1605,-4074,-6150,2782,794,-1503,1164
1606,-7125,2751,5429,-689,1027,-807
1607,-185,7831,7054,1359,-555,1764
1608,3173,-2619,4834,-928,593,451
1609,1748,1767,3454,1585,1112,-1839
1610,-4463,697,-6617,1571,474,-1806
1611,6892,-4985,620,1188,-1885,-1198
1612,-4821,-1651,-131,-1119,451,-300
1613,1724,3674,-4338,-403,1175,-1893
1614,-7726,-2278,6689,118,1639,1581
1615,-4587,1939,5671,-961,206,-1853
1616,-2129,-1821,4259,-1390,929,1608
1617,-4865,772,-6938,129,920,534
1618,-6671,-3263,-7467,-1928,1964,596
1619,-5764,3897,-4747,1735,-898,-644
1620,4932,2788,-5035,656,1958,-184
1621,-4669,395,3315,-76,-1719,1796
1622,7403,-3144,6997,1575,143,1044
1623,3631,-6275,1964,1237,167,-1474
1624,-4654,13,-7782,-1624,1841,311
1625,-388,6948,-3591,-115,1919,650
1626,-6210,-4214,3898,-1484,-1821,481
1627,-4053,4577,-1731,61,-228,-1364
1628,3043,-4662,-1413,-17,132,197
1629,1356,2962,-7138,-1367,-1212,1619
1630,1924,1299,1986,-1940,265,1715
1631,5874,6370,3702,-922,-222,791
1632,-3889,7431,5630,17,-711,-1905
1633,-3827,-3845,5149,-233,1735,-1860
1634,4402,-3550,-2743,1598,-1026,-1139
1635,3687,4975,3680,1487,-660,1705
1636,-6985,5798,3777,-840,-1468,-1614
1637,5509,6790,-2651,1218,1331,-205
1638,2901,6625,518,1600,1019,1466
1639,-6824,-71,2899,-1259,-122,-573
1640,-3974,-3390,-3807,1766,-1346,-718
1641,941,377,3873,-381,-1001,-1036
1642,-2725,-2025,2810,-545,-639,1954
1643,-92,-225,7785,-609,-589,232
1644,-3888,2078,-1332,-1573,1810,1478
1645,2161,2376,7720,-1260,1983,878
1646,6880,-3102,1124,1393,563,922
1647,404,-5729,-1683,1397,-921,1351
1648,7768,-4680,4933,-952,70,-543
1649,-2993,405,3426,-1637,1988,-304
1650,-7077,-601,3255,-601,-1577,269
1651,763,-7266,-6160,1436,-443,841
1652,-3066,6863,-5409,1910,1171,1084
1653,-5537,505,7815,620,803,-1090
1654,4953,-2345,-121,74,-1860,675
1655,-4419,6398,7008,1829,-1140,-1354
1656,-6090,5128,6697,-364,94,-1120
1657,-6615,2640,-7928,1944,-1805,158
1658,1271,-3753,1094,-1414,-1950,1834
1659,4212,2767,-1512,-1717,-159,175
1660,-2265,-7989,-6207,1912,740,335
1661,-6457,-658,5110,-812,428,-1232
1662,1031,-4393,5368,-1951,1438,1068
1663,130,5892,-3924,-1167,-681,-1918
1664,6057,7111,-467,-1047,-1385,-1433
1665,106,-190,4649,-925,1711,-418
1666,34,734,6941,-480,1122,-1046
1667,-6925,6530,-7447,-103,1783,-111
1668,1093,4125,-7957,-503,-148,-1849
1669,-3179,-550,6373,-776,1183,593
1670,7226,3445,2004,666,1659,-1416
1671,-5461,-3640,-194,-1373,-62,1786
1672,1028,3658,3793,1598,1999,-173
1673,-1655,-3464,5462,619,1239,1425
1674,540,5270,-7704,277,-1560,366
1675,-6536,4844,-1899,244,-1320,1040
1676,-7538,-1542,3238,-1770,1901,536
1677,1968,5642,-6285,1569,864,-1947
1678,2989,-5188,-4332,560,626,-304
1679,-4647,5500,3210,-180,1893,894
1680,-5686,-4768,-6996,1222,-21,-1458
1681,-5541,-4797,7368,-1826,1316,-1299
1682,4569,6427,791,-749,-186,1672
1683,1777,7037,-5060,-182,114,-1003
1684,5308,6663,5280,-136,1656,-97
1685,1875,1907,-6814,1560,-762,-1896
1686,-7158,-1829,-5484,-920,1875,267
1687,-2513,7148,4112,910,1042,-377
1688,-6631,-4753,-4657,831,1464,980
1689,5346,-6174,319,721,-1216,-1846
1690,-5582,-125,7815,-1858,-293,235
1691,397,-159,1477,-907,1680,347
1692,2218,6208,-2109,135,-1776,1574
1693,-7535,4360,-7297,-598,-308,358
1694,5405,745,3601,1686,-589,-1895
1695,4895,-5604,-5938,-989,-212,-1687
1696,-1420,-507,7388,-1960,-1172,-462
1697,3307,-5270,-4968,-721,-1204,561
1698,-4082,-3038,-7034,-1765,-1246,1020
1699,6348,-3972,7334,1838,1913,-1350
1700,6204,6294,-6450,-923,-902,508
1701,3243,2376,1237,-604,1242,978
1702,6247,-4404,1719,1106,-997,-851
1703,-4409,-3210,-6555,-844,-363,1304
1704,-3109,-6071,-6424,-1418,-1549,-614
1705,601,64,5668,1967,-1835,558
1706,-709,-340,6615,925,869,1491
1707,-7994,4015,5958,1465,-100,-224
1708,7336,5185,-7072,-1197,888,-1385
1709,1505,1653,-6431,370,1488,-1060
1710,5555,4096,-1830,-689,-631,1932
1711,4841,6193,-3811,763,-298,-1863
1712,3756,-2047,-5383,585,1849,1321
1713,-4133,5798,-1139,-163,308,890
1714,-2026,-546,7819,-878,-872,-1741
1715,-1317,-1653,4733,-1332,1239,-976
1716,-7011,-2454,-4952,1094,-1130,-146
1717,7154,6961,-5740,-1065,-421,-11
1718,2519,4707,-5822,-636,-1411,-1646
1719,-6785,4517,167,983,1009,-1985
1720,2287,2992,5842,1880,-1536,-190
1721,1516,6907,980,-1019,51,-1841
1722,-1691,-3248,3040,1926,205,-1317
1723,-6618,2617,893,1837,-965,-195
1724,-5061,5007,7294,-1652,1677,-1993
1725,-5563,5955,2077,863,357,-288
1726,5647,-5102,5920,-1462,476,-1628
1727,2991,4380,6880,-303,-499,-1525
1728,381,1215,-1448,1343,-339,-446
1729,-3691,-1713,-713,-795,-1266,563
1730,-1454,4790,5509,1965,-519,1099
1731,3843,6316,-56,486,-708,-237
1732,2970,5763,5600,943,-580,1061
1733,6759,-4166,1615,581,1664,1621
1734,5169,-7630,-305,-767,-1718,1301
1735,5223,4291,-2488,1433,311,-368
1736,-586,7338,226,-647,482,-1901
1737,-3136,-5387,-5410,-1211,211,-943
1738,-6881,-5080,-1190,1673,987,1987
1739,5082,1746,5721,211,1785,106
1740,-6402,-7706,1218,559,-1649,572
1741,6385,5467,2785,-1484,-1104,-846
1742,5089,237,-3811,-1442,-721,391
1743,1370,-551,-4339,-1968,-657,675
1744,-6065,-7702,-6323,1624,1149,-912
1745,3206,-7899,-5300,-66,-1503,-59
1746,5223,5748,-635,-1703,-1064,1720
1747,-1581,4305,635,-624,1040,1322
1748,-2853,14,4246,647,-1818,-1463
1749,-2146,2754,-2084,893,-707,468
1750,-2260,2633,-5659,-1255,-1270,1442
1751,5023,-6925,2460,-1371,-937,1955
1752,5770,-5528,4153,540,520,-220
1753,-2563,-797,4069,1486,1846,-380
1754,2710,2380,3203,-768,-995,-584
1755,2852,6758,-6993,1675,-112,1302
1756,3316,-2328,-1914,-838,180,1834
1757,-4790,4827,6129,456,766,1945
1758,-4446,7876,-3165,1622,1500,1256
1759,3233,3750,2444,1535,751,448
1760,-6705,-6284,6489,83,1754,70
1761,6484,6179,-7816,-174,76,-663
1762,-3719,6664,-7995,1338,1085,1185
1763,2667,-602,3380,835,1162,-1078
1764,7383,5867,6481,36,86,1236
1765,-6075,722,-6568,1530,1968,-201
1766,3331,4470,243,-708,-347,-1990
1767,-7067,5762,5916,-1703,140,-1135
1768,-4885,5201,1955,25,1750,1562
1769,-4587,6678,-6338,-1403,-1872,-1736
1770,6117,5412,7706,-1896,-1239,-755
1771,4677,6891,176,1173,1241,994
1772,3290,3809,3634,-800,582,551
1773,-1911,-1922,-249,1729,1147,-1613
1774,5081,-5999,2077,-376,-1361,-1265
1775,-5006,3545,-3254,-1255,-560,-10
1776,-3016,7789,4313,693,-1821,442
1777,4799,7287,4756,-581,859,1321
1778,-4224,-6671,730,-692,-379,1947
1779,-617,4390,5812,-18,-1900,-1070
1780,-1088,310,1748,-1757,1735,-1072
1781,-2730,-3253,-6170,-1318,1829,928
1782,5212,-4779,-5054,587,-583,769
1783,5378,-35,7108,1568,-1174,1127
1784,-1076,583,3822,-285,1393,752
1785,-2207,-6019,-7760,-1347,596,-1182
1786,-1929,7237,-5061,-975,319,-940
1787,4972,-7107,5638,1206,157,-1308
1788,2096,6774,4480,-1155,-1326,-1017
1789,4979,1119,-77,1937,724,1895
1790,4111,-1460,4391,-1440,1662,-943
1791,7725,5244,-4379,194,-1607,-496
1792,-3457,-1596,5983,875,1669,-627
1793,-282,-5123,6246,-1408,-795,-1265
1794,-1271,-3611,-7473,-400,1010,-720
1795,3309,-1530,7316,1551,722,-1441
1796,-5485,2365,6558,916,-211,1082
1797,851,-2617,6879,-258,-1056,-635
1798,-923,6509,3964,1513,-999,27
1799,-7895,-7108,-2463,-1145,-849,-1621
1800,4058,6181,6499,-1385,-490,-1458
1801,3909,2696,-7274,-956,-844,1391
1802,3475,-4853,-3424,171,1782,-1199
1803,2901,3150,4892,-325,828,1739
1804,-2259,-3647,5027,1589,-1028,1672
1805,3499,5344,1523,-1782,-1426,-740
1806,-922,1333,-6502,786,381,1758
1807,3074,-7319,327,-1714,-1471,-809
1808,5519,-7444,3677,12,809,1864
1809,4756,4683,5714,-1908,1788,1964
1810,1899,6165,-5333,1750,588,-1210
1811,5866,-2874,3290,1461,1605,123
1812,-6840,7175,1664,-806,-6,-1569
1813,-3298,6518,7110,-457,-1619,-64
1814,3198,3322,-4872,-1178,-1541,910
1815,-1996,-6352,6705,462,-1482,-150
1816,5063,-7700,3980,43,-1986,654
1817,-6550,4910,-5383,722,1404,-350
1818,6972,2286,5298,1439,1533,1180
1819,7763,5148,-274,221,-30,-589
1820,1859,6791,-3383,1284,1010,541
1821,7947,-643,-6677,-1554,-1029,-580
1822,2255,-4107,-7271,-321,-335,-920
1823,6011,-6715,6183,-152,-1949,1276
1824,-7576,-7762,-6636,1816,-1638,1898
1825,-3896,-800,-5209,1649,-1325,1382
1826,-3944,-3660,-6645,-391,290,772
1827,537,-2196,3931,-4,1746,-1873
1828,7457,-4018,-5092,259,-1836,73
1829,5371,-4728,2955,-1138,95,-858
1830,-7590,-7205,4918,1021,-201,-17
1831,-3847,7819,-7911,-1391,-1391,1142
1832,-3133,-6525,2178,-1596,-1413,-774
1833,7487,4886,1194,154,-999,1582
1834,1249,-4138,1671,1258,1147,1684
1835,-4574,232,-1761,-136,1132,-1244
1836,3844,4943,4485,-1916,-776,-288
1837,-7517,5286,-1214,67,22,-910
1838,-4479,6912,-6029,-766,-1819,1661
1839,558,3666,-2372,-1803,917,-799
1840,3032,5980,-6955,327,-1597,-871
1841,2684,1118,2698,-499,-625,1377
1842,3998,1141,2987,-1509,-1042,-1588
1843,6487,7886,7852,-159,-1297,405
1844,2064,2672,5179,-1265,-1053,124
1845,-37,1445,4775,530,584,334
1846,5782,5191,-6277,124,-585,1897
1847,-665,-5462,3527,459,-813,-967
1848,-729,-7619,790,-1678,1674,-1943
1849,-339,7919,-4882,968,-762,1328
1850,239,3031,5685,-734,-407,-185
1851,-6374,3218,-6099,1027,-509,489
1852,-340,4871,3073,-467,-794,1073
1853,3102,-2610,7609,-419,-844,1540
1854,4911,6913,7635,517,1687,-228
1855,-1963,2755,665,589,-1254,-1711
1856,-1593,-2687,2922,782,-1358,-1385
1857,5799,-7401,-4507,1991,-465,-807
1858,1941,4678,2479,146,-1561,476
1859,673,-6042,6913,1520,179,-921
1860,-7228,23,-4723,1382,-275,1402
1861,-815,-3529,6842,1022,-1517,1975
1862,1862,-5883,1314,1660,1184,340
1863,3652,2838,7963,1706,1795,1255
1864,5967,-5199,-5953,1800,921,-1398
1865,-5627,-5174,4222,1882,-1137,-1918
1866,-4871,5262,6202,-11,1649,-253
1867,-7223,1215,7324,-4,341,945
1868,-1048,-7148,1512,1202,1408,994
1869,2128,-3318,-3369,-784,-328,1959
1870,2996,3872,3304,234,1816,682
1871,-7081,52,2642,1587,317,-1939
1872,711,-332,3050,781,-33,-484
1873,5549,2103,6731,-818,575,1579
1874,5510,7507,212,1543,-1034,218
1875,-3248,2969,7993,468,316,1171
1876,-2073,-823,-6371,-1402,-1910,1406
1877,7432,-7610,6182,-790,-1529,-1674
1878,1638,-1594,2376,-1139,-1957,1674
1879,5864,6989,-297,-214,-223,-1137
1880,-6706,5240,-2156,241,1856,1835
1881,111,7115,-7296,-910,-1490,1044
1882,-990,6868,-1373,1182,448,1788
1883,5038,5532,6269,910,14,-652
1884,7698,491,5885,1404,-615,-1060
1885,1831,-4675,4019,-466,659,597
1886,-545,-5131,1145,-1534,-1626,-1990
1887,6256,-1045,2418,-86,-150,-1305
1888,4746,7661,-3217,236,873,82
1889,-876,-6627,1785,-1882,1716,-115
1890,-7274,-3576,7166,556,-581,-585
1891,-7984,927,-7986,-84,-1364,-1025
1892,-6705,-4196,835,-1954,-1997,-84
1893,-5958,4767,-3624,-286,-1821,1507
1894,-7697,5091,-5102,618,-1847,-126
1895,-2938,-791,-7901,-1473,-918,1316
1896,4826,-2113,-5013,1670,269,671
1897,3803,-6649,3521,1186,-1787,-1080
1898,3767,3700,-55,-1464,1916,1872
1899,-2294,3681,3380,742,634,-550
1900,-6331,-4359,-988,-1422,1337,1297
1901,-1272,-2450,-4895,-320,-694,-1792
1902,7187,2536,668,-753,1981,-1445
1903,-7631,4831,-6274,-1120,1699,1472
1904,3350,5027,-7563,-217,609,1320
1905,-2278,3333,505,-560,-942,568
1906,-1402,6958,-6169,-445,520,631
1907,-6765,4483,-3826,1012,-313,527
1908,1088,6757,1831,-606,700,-500
1909,4843,-2123,5584,1722,338,78
1910,4668,-6872,1375,-1818,-1230,724
1911,-4696,-525,-979,-1790,1912,-112
1912,2892,3739,7429,797,115,-1155
1913,4266,-5452,4524,-1938,1566,1117
1914,7590,2799,7894,1618,-273,171
1915,-616,1088,-274,1651,735,-1023
1916,-4245,-2193,845,573,-310,-1617
1917,-6456,7638,-6701,-1752,285,-718
1918,7509,-2413,-6818,-1347,-1030,380
1919,-6373,7157,3939,1259,1590,953
1920,858,5656,-1630,1586,73,-1559
1921,-5556,-7825,4213,334,-324,-1650
1922,1064,-7528,3721,-1131,227,-1316
1923,-7860,6029,-2777,-100,1664,-992
1924,6425,3193,2206,-1508,762,121
1925,-2540,3940,-7933,-564,-1490,-1856
1926,-2051,-7946,878,996,-557,-196
1927,-2700,1546,-695,302,261,-582
1928,3190,-5575,-3706,663,1551,560
1929,-2489,7911,-2785,-401,-1881,-884
1930,3391,-3018,-5000,-1416,1463,-1610
1931,5964,-782,-265,1205,-728,-315
1932,6282,-6468,-2464,1978,604,189
1933,476,-7595,-6023,1204,50,-155
1934,4413,-4627,-1612,1714,-1348,-752
1935,7014,1193,-7222,40,1627,1161
1936,-7610,4357,566,-150,1017,-953
1937,5471,-3215,1997,592,1486,-1212
1938,-6516,-5473,884,216,1280,-1515
1939,-2308,3433,-1846,1885,197,388
1940,-4563,143,-5261,254,1761,1687
1941,1014,-3241,5927,1447,-1758,1939
1942,3664,-7635,-1878,-1209,544,-747
1943,-7115,2604,-1428,1823,665,1607
1944,5145,3123,-1876,-1769,710,663
1945,4319,1893,-6511,-951,1862,-579
1946,265,-156,-1064,984,-590,-752
1947,7854,6285,-5556,161,673,-453
1948,-1459,184,-6161,-1051,1911,1299
1949,4735,5500,712,1074,-848,667
1950,-1469,-4695,1102,513,-1263,1015
1951,523,-504,-7962,1638,-347,-1125
1952,-4842,-3421,5748,514,-117,200
1953,1813,1511,-4970,1473,-162,1179
1954,-1675,707,-1202,1408,-1305,-1942
1955,1234,1650,2799,-964,-1056,-1965
1956,7996,5289,5608,-637,-151,371
1957,-6232,-4061,1992,-1784,977,643
1958,4031,6663,7031,22,-756,-661
1959,4801,-1008,662,-807,-179,-140
1960,685,-1255,4304,1643,-1380,1892
1961,3746,6355,-6101,-1779,763,1472
1962,3602,6531,3814,969,-4,-960
1963,3689,6237,99,-745,254,-210
1964,-3484,-4705,6642,-1553,398,-231
1965,6332,6308,6007,154,-1575,-748
1966,-2815,-1348,-931,-578,173,228
1967,-3352,5808,-1247,1440,1649,1758
1968,7791,6892,-3902,-1233,-1832,-999
1969,-960,-1789,-5096,1923,571,729
1970,4959,-4374,6575,1774,-1033,1896
1971,-1931,-4522,6,859,-1674,-1965
1972,-7685,6433,646,1172,-168,-122
1973,-2858,2961,7474,1390,-878,393
1974,-3902,4882,-1169,-719,-1830,-1217
1975,7381,-4465,-1263,-226,-1372,1854
1976,6890,-2552,-7759,1495,-1836,-904
1977,7224,-730,7256,-368,-1296,710
1978,-7609,-6703,4796,373,1877,955
1979,6116,955,-6885,1609,1727,-532
1980,500,4322,-6347,466,-1346,-1535
1981,4076,-7051,-6695,1310,-513,1164
1982,-2170,-5249,5900,-559,1825,124
1983,6934,928,4470,-944,4,1433
1984,4886,-1772,1383,679,1367,-625
1985,4528,7269,5264,-1305,1836,-765
1986,-3506,6410,-964,1177,-1636,-1754
1987,-6387,4438,-6340,-1980,1425,-1947
1988,7098,-7055,-157,-1436,58,-465
1989,6724,-5228,3988,-1124,14,-1141
1990,-341,-6555,6723,1737,636,406
1991,4944,3063,-6575,-179,-276,-1028
1992,2690,-4688,-7319,634,-1794,1412
1993,6411,1923,-1188,1260,-1693,-1351
1994,5108,-6418,-281,-844,-137,-386
1995,4765,2885,4087,-551,-615,-62
1996,-4196,7372,-3563,182,-407,68
1997,6972,3549,2369,866,-459,-1082
1998,115,5500,-3574,-149,-1703,-247
1999,4859,5428,-4914,-1942,-1979,412
2000,2196,2999,-2108,-1325,317,626
2001,1168,-2239,-350,-1058,-934,1325
2002,-6144,-839,2442,-1172,1917,-346
2003,-7723,-6774,3358,1121,1755,1750
2004,426,-2142,-2765,1115,950,728
2005,-7407,7319,4563,439,696,-1755
2006,-33,5222,-2994,-511,959,-213
2007,3950,-5555,-3665,-888,-697,556
2008,-1151,-7230,7096,1071,-810,164
2009,250,5574,-2630,-859,-1710,-1918
2010,-579,6640,-6611,718,-1320,278
2011,-5341,5369,-3030,237,-1112,-1603
2012,5867,1523,-1392,-544,-647,-1224
2013,-3204,1083,-3180,-337,-888,-117
2014,6905,7723,-170,-1899,-894,1731
2015,-5256,4436,3258,1447,-48,-1765
2016,4011,-1767,-3744,541,-101,-585
2017,-992,-4128,831,1282,-131,967
2018,-419,4312,-5586,-776,1434,-1252
2019,-3272,-2382,-3733,-1247,-1226,-600
2020,-7639,-7633,-1259,-1612,1533,1969
2021,6720,2410,-7151,-1743,-1472,693
2022,-2237,539,1195,68,-559,-531
2023,-338,3399,3622,900,-1746,1868
2024,1491,1463,-455,1682,-1837,890
2025,-1908,-6421,-7627,1949,193,808
2026,-1225,714,-2767,1187,-905,-797
2027,1766,-91,-5567,463,-538,14
2028,-5566,-2397,6251,327,1912,-1284
2029,3062,6458,855,1054,41,608
2030,4930,5513,-2970,494,-579,-1067
2031,-5730,-5380,-7961,647,-1267,-913
2032,-3787,5198,1037,-1682,-160,164
2033,-1283,7734,6831,-480,-491,-1802
2034,-6725,-7709,-5159,-1957,886,-1956
2035,3955,-3662,7021,760,-349,691
2036,2435,-5378,4759,-964,-463,-1917
2037,1482,4283,624,714,-1102,150
2038,-6151,-3367,2887,1591,1218,902
2039,-1415,-4373,7153,134,-1412,-1346
2040,-4824,1569,-7431,56,1049,-200
2041,2329,-1659,-3687,102,1314,-1986
2042,5210,4149,-7081,356,-1980,-510
2043,-7152,-3312,5209,-1421,1209,1265
2044,-4448,494,-1690,1815,-918,18
2045,-2099,376,4125,60,1078,-613
2046,-6285,-5536,-1873,1903,944,1862
2047,-2502,-1730,-4928,927,559,1645
2048,-3585,1849,-214,1522,1954,-992
2049,2479,-5248,2899,-1257,-397,1014
2050,6339,2699,-1431,797,126,-3
2051,2264,7642,2664,613,698,-1619
2052,-3671,-5471,6445,-1315,-1590,-1874
2053,-5501,-5115,656,-1205,-1541,1831
2054,-7122,2920,3564,-1886,1071,-530
2055,6091,2980,6583,685,1581,-1098
2056,89,105,6726,-1268,-885,1316
2057,3714,1320,-2424,-1541,1453,-457
2058,4062,1094,-2406,-471,1512,1007
2059,7220,5287,-5765,-1989,-679,172
2060,-3352,-2543,-6281,-605,805,1072
2061,6182,-2638,-3952,63,-1968,175
2062,-57,-6097,6301,-1993,86,413
2063,1178,1815,-2665,1143,1548,-1706
2064,-5916,6544,-6708,1597,99,-975
2065,3473,-3853,-5104,-32,1042,1753
2066,7348,5652,-446,1534,-504,90
2067,-1967,5902,3692,1011,-328,-351
2068,7038,-7170,-758,-1421,1731,111
2069,-5938,-2563,7394,1754,-832,-1615
2070,7256,-6318,4011,165,-602,-1613
2071,-2268,-6566,1685,264,214,1338
2072,3149,-3247,-2076,797,76,127
2073,-7250,-2878,-5032,-1680,-1300,952
2074,-1049,6474,-2075,1103,-1019,-1222
2075,-2228,-5602,-7368,1807,462,420
2076,-7608,879,6063,935,-1043,-1850
2077,-2607,19,4730,-962,448,-496
2078,5076,-3336,7611,-436,-1912,1751
2079,-7438,5174,-4666,-1842,-1037,-703
2080,-6678,-3405,467,1806,1710,791
2081,-7663,-4692,3680,-137,-1704,-265
2082,7549,7588,-4308,155,-228,-1349
2083,-317,6647,-6558,1188,1964,77
2084,1207,-2542,1070,-1004,967,850
2085,-3771,-6965,-1425,1301,-36,58
2086,4256,-4630,5871,895,669,-610
2087,4452,3144,-4493,-384,-1894,-1046
2088,5175,4179,5351,1253,-1773,-436
2089,-2750,-4076,-1373,1750,242,77
2090,-711,-2290,-3962,-1560,531,1531
2091,-3428,-7145,7008,-727,-287,-959
2092,1538,4470,2318,-174,580,-179
2093,-1958,-6497,-4128,-1483,246,273
2094,-3092,6285,1416,1590,-1400,366
2095,181,-126,-1505,-1258,-919,-818
2096,-3870,-2408,-2316,-923,-1639,544
2097,6897,-5100,-5509,727,1289,1743
2098,6524,-7940,5322,185,-453,-871
2099,-6010,-5285,3267,1480,-1826,-1969
2100,-7239,6334,4736,1882,1048,-8
2101,-1798,7688,5734,-1500,1809,-1489
2102,-4969,1320,2303,-926,-1356,174
2103,-5194,7885,-464,435,339,175
2104,-7412,2363,6331,1363,-369,-594
2105,6856,-6002,-448,1249,-1904,-839
2106,2426,6867,7447,72,-433,1390
2107,-904,4193,2478,402,552,1539
2108,-5999,-2347,7278,-540,1773,-969
2109,-2974,-6099,-4337,-1360,-708,1938
2110,901,3667,3931,152,-844,316
2111,-4403,-3394,-6143,-287,945,845
2112,-2554,-7339,-3755,1735,519,397
2113,1545,-7232,5176,734,482,1748
2114,2537,4291,2654,1423,-1692,-1683
2115,-5531,-7717,-5409,971,-1553,837
2116,-5225,3627,-5400,-611,1203,-800
2117,616,2968,-667,-1003,-1224,-798
2118,-7919,6936,-5050,-1742,-1176,-1554
2119,-6405,-5469,-6900,-1047,626,-958
2120,-2854,-4264,-5919,1256,1521,-708
2121,-2602,-1220,7392,456,948,-1289
2122,-5090,-6046,-431,323,-1784,258
2123,7577,-1213,-3987,55,-1874,1585
2124,-2865,-4206,6079,945,1399,948
2125,-3186,3385,7485,1695,909,1899
2126,4172,-2849,7725,-393,-1936,-638
2127,-5255,776,1041,-516,-327,550
2128,-1569,-417,7546,299,-555,-1987
2129,2959,2463,-7317,1369,1079,1737
2130,-5112,-1715,4298,-1135,-1647,-962
2131,2426,-5850,-5271,-1367,-526,-939
2132,3093,-2053,-2528,720,1667,1293
2133,1989,-6236,-5723,-318,-1618,301
2134,2861,-6621,-2471,-860,-790,555
2135,-1436,6543,-6027,803,1186,1023
2136,1060,-7258,5002,1261,9,-215
2137,-1220,1576,494,487,-608,-1775
2138,110,-3261,-3193,-1311,857,-810
2139,-7806,6340,6004,-1449,-472,139
2140,6752,-4073,-4725,1413,-679,658
2141,-7985,1491,1860,-267,1191,1701
2142,7114,-3757,-2594,1213,511,535
2143,1992,-4481,7448,-1477,-1355,492
2144,-2806,-3892,-7718,-1685,274,1728
2145,-4875,4969,1307,443,726,1982
2146,7401,-2919,2091,-1045,1608,-1266
2147,1970,-492,1277,-271,1929,-686
2148,6379,-7805,-2722,609,-1131,-1405
2149,-5502,6601,-7966,1123,-1330,-317
2150,4430,4952,5488,-659,1879,95
2151,-5865,-426,-844,1040,1222,1873
2152,1386,1244,-269,-1606,-705,843
2153,847,-4933,-5099,-564,402,1224
2154,1696,-7024,-5571,-1786,-1336,-1653
2155,6153,-4184,1365,-1011,-418,1096
2156,5061,-7634,4935,1481,429,-577
2157,-7971,5790,-1132,-1508,912,1485
2158,2959,-1004,-5193,-1914,-150,-1967
2159,-6310,6268,3068,-55,266,-38
2160,-735,6387,5095,-1757,1644,1725
2161,5481,-688,1470,-1074,334,1898
2162,-5599,2262,-6344,-1137,-1858,1162
2163,2485,-561,-7114,-1239,1424,428
2164,3743,-5261,-5627,-114,1852,883
2165,-3247,3092,6969,-470,1062,1373
2166,4005,-3230,-4079,347,326,-945
2167,-1851,-387,272,45,1563,-601
2168,-6263,3684,-102,-179,-788,967
2169,-6053,4776,6881,-97,-700,-1873
2170,6382,-2421,-6499,1660,402,1882
2171,5018,686,-4493,626,-122,-408
2172,-7812,-4800,-783,-73,13,-1756
2173,4921,2116,4049,-971,-1550,-1002
2174,-5488,1333,3838,781,-1124,856
2175,7304,6765,6172,-587,-13,-853
2176,399,-38,920,1424,952,1515
2177,1479,3426,-6692,37,-987,1335
2178,3204,-4797,5379,-389,1452,-566
2179,-1998,-3878,-7999,-1389,-1391,-236
2180,-401,-6574,-5550,768,-1919,-171
2181,5378,4914,-3170,-978,-1062,-1027
2182,-618,-7916,7586,267,1480,534
2183,1220,-7768,4123,-612,884,-1264
2184,-6274,-606,4733,-626,-467,198
2185,2780,7092,4469,280,-1487,466
2186,-1968,-95,-4776,-1664,1931,1323
2187,2311,842,-1957,-51,1992,787
2188,558,-2213,-3428,1756,322,-365
2189,6169,5471,-3601,-182,1035,479
2190,-6573,-6930,5951,885,1523,872
2191,7407,5291,-6142,681,-172,-576
2192,-2509,6108,-5486,-1055,1269,1831
2193,-89,-3706,1740,1016,-922,879
2194,-1170,6112,3390,1400,-1629,-1967
2195,-3957,-1515,-696,-99,-200,-807
2196,4807,-4334,-6185,1484,178,-1011
2197,4133,6503,-6884,469,-1867,-487
2198,-1021,4732,1926,1938,-1375,-1632
2199,-204,7166,5225,-447,-801,-1121
2200,-6530,7920,-7250,575,514,1736
2201,-1418,5863,-7229,8,-1811,908
2202,6466,-3496,3127,-911,680,-1693
2203,3178,-4844,-7998,535,405,-1911
2204,-3209,-4476,-4676,1636,-1608,-1253
2205,-6205,5364,3620,1539,-1789,438
2206,6525,-4110,5351,-175,-529,-1078
2207,7368,-2727,2562,-514,679,-603
2208,813,-3793,-1857,1920,1625,-1616
2209,5767,-2387,7263,756,-1379,-1670
2210,-5590,-5766,-1370,-1701,1777,-1996
2211,-3504,-1684,-7904,1527,1760,1358
2212,-7508,1651,3312,1874,1671,-81
2213,-1924,4830,-4266,677,1739,-1358
2214,5925,-724,1770,-1703,-124,-224
2215,3786,-3609,-4843,1427,-882,-1266
2216,2757,-3607,1569,94,916,1692
2217,182,-5027,6021,356,-1736,1102
2218,7357,1245,1654,-32,-1442,-1811
2219,3203,7665,-4021,1703,1868,-1833
2220,4330,-7012,-5426,1033,1260,1560
2221,6476,-380,2057,-3,-255,1584
2222,-2882,5499,448,868,-221,-1388
2223,2040,-2891,-260,817,1476,1914
2224,-1395,3671,-5185,-1336,1017,-1658
2225,-3231,-4220,-1821,-355,1084,-220
2226,-1747,5210,4190,208,1825,537
2227,5710,-1179,-6937,1701,-824,767
2228,-6524,-6412,5229,-1945,-1988,-1057
2229,-5873,-6217,7884,-1895,-29,1840
2230,6639,-6277,5437,-926,1676,1382
2231,-6128,3921,4097,-971,-448,1110
2232,-5122,3637,2958,781,229,910
2233,-7522,5313,-1714,1953,-971,197
2234,-3696,-5026,-5606,-237,-1561,-421
2235,-6050,-928,-4492,-875,1701,-1107
2236,2574,-443,6011,-1611,-692,-783
2237,-6609,6871,-4044,1327,1127,-349
2238,-3220,3155,-7295,-1886,-869,1877
2239,-6417,6383,-4621,-1090,284,-649
2240,4250,-4895,7751,-1583,766,-1180
2241,-408,2177,5519,451,-729,888
2242,-2782,-7623,-4134,-204,643,1424
2243,5604,-4854,-5016,-1575,-1341,-856
2244,5169,5395,6835,-1707,-1599,333
2245,730,6974,3272,944,1842,-776
2246,-3717,281,-669,77,585,1841
2247,-5359,7221,-489,-865,-125,-673
2248,4802,248,4417,-1504,1787,-1836
2249,1570,7319,4216,1872,-1122,348
2250,-3609,6903,6959,-675,-1086,1239
2251,3814,-7028,1201,-1167,-1906,214
2252,7507,-6573,5451,-1362,-584,1246
2253,2798,2636,-5335,1406,-960,-172
2254,392,5955,-2862,-350,1628,1997
2255,-213,-396,3172,-67,-190,1890
2256,1554,-5942,7418,-398,-1298,112
2257,-6321,-5468,-3164,-1302,1860,-156
2258,-2917,-5343,-5844,448,1025,252
2259,-4369,-7352,-4729,-1554,1146,-655
2260,-3511,-2697,-1952,891,340,1758
2261,2123,5102,-2774,-64,-1673,-519
2262,-4420,-3772,-396,-1674,1128,974
2263,2534,4447,-3482,1286,252,210
2264,-716,2439,-1778,-9,-1114,808
2265,-1385,810,-4209,-554,642,1636
2266,-3694,-4259,1364,-1414,160,1733
2267,5027,-6425,3824,855,-346,-1349
2268,-444,5619,-2075,1296,1127,-1292
2269,1749,-7225,7096,-743,887,-1244
2270,2102,275,1893,1046,1968,832
2271,7686,-1280,-6771,-1061,-1865,35
2272,-1047,5754,2741,-1081,-961,1698
2273,1785,-1845,5321,1315,62,1718
2274,4349,-6953,1998,-355,-42,-1037
2275,-7539,-3647,-7247,1967,-1787,-1761
2276,-7961,7237,6473,-617,201,489
2277,3504,-4455,-4567,-1130,-1073,-858
2278,-3874,-1297,4442,-1163,952,1753
2279,4447,3727,-5481,969,249,746
2280,-1531,817,-4950,693,954,1630
2281,1464,-3936,-3756,46,-695,1707
2282,-843,3410,1631,300,1839,1132
2283,-2792,241,-3332,1655,-1096,-6
2284,-5713,4296,-7028,-914,-997,-825
2285,3597,7942,5471,405,18,-83
2286,-7637,1059,-3498,903,460,975
2287,2606,-3965,-35,1818,-324,-1475
2288,998,-6137,-2234,-1364,-595,1056
2289,-2642,937,6874,-745,1148,1877
2290,-6822,-114,-1057,1152,1917,860
2291,7106,-5684,-3402,1557,-37,-366
2292,2406,-3703,-2802,-517,-550,-1662
2293,-5232,-7967,1003,-1188,-1292,-492
2294,-702,4478,7200,-867,367,1535
2295,6428,3190,3668,-1540,1253,83
2296,6451,2228,-3415,-243,-1705,1646
2297,1965,-18,-4410,-1995,-63,762
2298,-5822,3826,-7218,-1147,-1946,-241
2299,-54,6485,2993,1411,884,-835
2300,4186,-3088,4983,1287,115,1746
2301,5666,-1397,7466,-1651,273,-1070
2302,-4699,2501,-3604,-1243,-1056,-102
2303,-362,6033,2863,-774,-647,-504
2304,-5733,-3319,3706,-1727,1039,313
2305,-3706,4591,-3010,-1028,1327,355
2306,-6119,-4807,-4622,111,523,-1416
2307,-1106,-7739,-6134,-193,247,-1067
2308,-4333,-6004,-3038,1363,636,502
2309,-991,3468,4649,-1206,117,-429
2310,-6315,3361,6240,-1137,-719,1317
2311,5480,-6462,-5057,-860,-879,9
2312,2761,2354,698,-192,575,170
2313,-181,-7884,6155,185,362,1082
2314,-2922,-2635,-2493,1255,1387,-1117
2315,2681,3224,-814,300,386,-1845
2316,4511,-7063,2668,128,-1021,-1137
2317,5805,-3314,-1743,1660,-388,-695
2318,199,-6383,3172,-101,-1666,1494
2319,-2025,2476,1926,-1327,-1919,-185
2320,-7363,-179,3240,710,1676,863
2321,-6537,4596,5146,198,-291,-1281
2322,7843,-1924,-831,1783,-1799,1664
2323,1089,6270,7793,-792,43,365
2324,4192,4726,3941,-933,1466,-243
2325,-6337,-6006,6865,-127,-1763,-623
2326,6413,-2398,-4704,-419,-100,1280
2327,6756,-6116,3211,510,151,287
2328,-2007,-2464,-7365,-1541,-1073,-324
2329,7942,1570,-5867,195,1863,-112
2330,-2678,-4826,1877,1217,-1209,1190
2331,-7190,7927,3844,1093,-1630,569
2332,845,-7863,-4178,1972,734,1591
2333,4036,2975,7336,792,-351,518
2334,7707,-5902,-6828,-1250,1998,-758
2335,7759,-867,-3719,1257,44,220
2336,-6380,543,-1897,103,-1964,-312
2337,-7287,1032,-7617,1823,-810,1663
2338,-580,-4654,-2863,-1375,-1929,-1894
2339,4745,384,1387,-433,410,247
2340,-2191,-1147,-5250,-1414,24,992
2341,489,3453,4026,1285,-516,1028
2342,-4247,1169,830,1858,-548,83
2343,-4835,5077,3194,-1338,361,-1666
2344,-6929,-7291,-4046,-1087,-1241,264
2345,5344,2657,-6691,1489,-747,46
2346,1249,-5156,-5472,-892,-1791,1150
2347,3577,1914,2097,1265,-1965,-1819
2348,7066,-2292,2394,-1293,1412,-1263
2349,-3427,-6138,2394,372,1429,468
2350,-6238,4397,3716,-442,-1438,-1966
2351,-8,5636,3498,-769,-1455,-212
2352,3035,5546,-5920,302,-1315,1662
2353,-1195,133,-922,-229,-163,-578
2354,3664,919,-7094,24,511,135
2355,2256,-1909,-7350,1211,570,-728
2356,-4942,2839,4080,-33,-1933,-1827
2357,-7787,-5193,-118,-149,553,280
2358,1097,-4832,-5270,1290,-156,1115
2359,3104,-721,-5113,705,609,-423
2360,2217,4956,-2342,322,-1629,-263
2361,-1627,1072,5078,1086,-1563,845
2362,-4424,1896,4819,1580,-1337,1107
2363,784,-6690,3106,1268,-1788,1253
2364,2760,-5542,14,-983,-1474,1516
2365,-3810,-6114,3061,-693,1869,-625
2366,-4007,-672,4723,-1764,1380,-909
2367,6505,2607,7278,-1422,794,1979
2368,1307,7434,-499,219,-1296,-1579
2369,7790,-6828,381,-1315,-1542,-1870
2370,5637,-131,-7134,1685,-96,-1766
2371,-7104,7480,7248,1404,1670,600
2372,-650,2841,5540,-320,-1083,-1238
2373,7177,768,5782,-1085,130,1985
2374,1736,4376,-737,-238,765,-1833
2375,7844,7897,-7973,-774,-1517,-1069
2376,-4912,-5319,-3536,1915,213,-74
2377,-6980,6465,5157,-555,1292,-411
2378,-5727,4247,-50,-1841,-352,23
2379,2427,-94,5468,293,-564,-1141
2380,-4772,-2611,3055,-1724,1945,1013
2381,-4869,6934,-3113,399,-869,1992
2382,-2480,-373,2147,1633,-1577,-12
2383,-434,5115,-876,-1709,1886,1683
2384,-690,-5071,-4747,734,1065,303
2385,7275,1929,1189,1584,-1928,-940
2386,-6313,1933,-6362,-452,-161,188
2387,-1214,-6863,4052,1537,-772,1527
2388,6184,5569,-7346,-1785,-1502,-406
2389,4647,814,1877,-137,-1775,-1211
2390,-866,2380,-2896,-998,-1274,1636
2391,7261,-618,5565,1162,494,237
2392,-1987,-7478,900,1602,370,290
2393,-3395,1172,-7016,-1657,-1674,942
2394,5399,3968,3130,833,792,688
2395,3389,7197,6064,-322,1214,-1657
2396,-5363,-6847,4547,-1442,661,237
2397,-7113,234,-5650,-1603,153,522
2398,-3620,3476,-7513,-1498,737,-1282
2399,1337,-4028,-1069,-1284,-282,-991
2400,-4212,-7350,4946,181,1208,1287
2401,-2308,-4960,-2529,-529,-1027,896
2402,-3404,878,6901,1865,-1863,-34
2403,-4858,3333,4078,-1515,-1171,1339
2404,-2588,-2930,1453,398,891,1649
2405,-3975,6196,-5878,1094,1728,29
2406,-707,-94,-2311,-319,1354,-1884
2407,6600,3382,6657,1143,-1447,-1617
2408,2562,-4353,-6840,-900,-1993,-1029
2409,-7036,3964,-161,96,-462,1193
2410,3466,4425,-3612,1600,-679,1592
2411,1029,-4171,7812,-1394,-1239,-1199
2412,1654,4373,1077,-1805,1761,1729
2413,7570,261,1446,-657,1535,1274
2414,3790,-5546,-5064,865,-221,-1489
2415,-6068,5046,-2114,-1126,1839,-1058
2416,195,-3140,3338,538,-786,1993
2417,-7352,-4463,-4985,1904,-1127,339
2418,-4474,213,-4582,-457,462,776
2419,3276,-6178,6789,1730,-293,1490
2420,1541,4931,3300,454,733,452
2421,-742,-6418,3558,-75,75,25
2422,7872,3877,-4723,-1663,-1330,-140
2423,-6820,-4209,6827,-1732,1979,1036
2424,4413,4673,4953,-1847,-1584,-1741
2425,-3005,-7130,-3929,71,-641,-577
2426,-4727,3947,-5574,-1161,921,1088
2427,-804,1092,-5475,1415,1796,659
2428,1678,5845,4435,-301,-1352,-1630
2429,4664,-5950,5404,196,-1663,564
2430,2916,3725,4346,1593,1946,-677
2431,-7938,-1492,4953,-683,677,1730
2432,2883,-1352,-7004,684,-1999,834
2433,-1366,117,-7607,1090,-173,-816
2434,-4360,-4063,1959,-427,1793,-821
2435,2822,6223,-1824,-1900,-196,-1451
2436,4172,-6974,-6957,-531,1510,1406
2437,-2317,3333,-2951,-26,-1396,568
2438,-7740,7980,6916,98,378,-1595
2439,2055,-2167,-3641,-87,-155,77
2440,-6798,-5427,4530,402,1731,-587
2441,-3449,-1087,-1153,-1934,1903,825
2442,6422,3248,1469,-1065,-408,-617
2443,1119,2889,4087,-646,-771,787
2444,-5401,2708,6441,1270,-679,-1099
2445,532,3695,6783,-1710,906,1875
2446,-1707,-2099,-3338,1605,-1641,1182
2447,-449,-7913,-1638,-14,-1417,-1209
2448,-7924,1931,-1521,-33,94,-465
2449,403,1756,2417,-1559,309,-1429
2450,-3086,-5196,3813,-289,1271,-1856
2451,436,-7257,3877,-1267,-1316,-1227
2452,2059,-7998,-7340,426,469,1196
2453,3395,1230,5096,910,-1592,1245
2454,-4859,-230,-5624,-1778,168,-1635
2455,2914,-5273,3939,-96,759,-878
2456,-1681,-2741,-3319,1101,-762,316
2457,3391,-5707,4070,623,85,1706
2458,2202,-5820,7207,454,-500,-534
2459,-4992,2539,-3166,-1653,-46,1557
2460,681,3819,4255,1390,930,-1867
2461,-1779,-6803,4800,1091,1026,615
2462,-3376,4509,-1272,1933,-1371,-223
2463,-2638,2789,-6874,1940,544,1008
2464,2739,6410,3369,1995,98,1428
2465,6503,-2465,-5155,1946,-1684,-1066
2466,1423,7425,4262,1675,698,-624
2467,5356,5739,5748,19,-1053,-1940
2468,-7800,1363,5851,266,1383,217
2469,-6325,-4319,709,-1716,-1248,824
2470,-7805,-2661,5202,-110,-435,1579
2471,3061,1536,3668,1599,-914,1595
2472,-192,2760,6017,-383,1240,-813
2473,530,6078,-5248,1857,-242,1168
2474,-3996,3464,-3186,-1854,-926,-1
2475,-6278,-2851,4798,-1510,732,1758
2476,-7952,4094,3610,-1170,1979,1484
2477,6779,-1174,7922,-1421,-1785,-1953
2478,4426,-4492,2514,-1351,1344,1685
2479,2939,1123,-6607,1265,1299,-619
2480,4995,1158,-4771,529,568,1337
2481,-2692,-3544,7169,614,1983,1125
2482,-5251,-7780,7501,1851,1442,811
2483,-2404,5224,-6315,1657,-1807,-293
2484,-3972,5178,6543,905,1654,-1699
2485,735,5404,5894,1656,-1123,-1109
2486,4798,-7547,5169,-563,-1266,1066
2487,349,-7532,5734,-969,-90,652
2488,-3722,7508,407,-404,-732,368
2489,-3029,-3536,-4661,463,-1403,1056
2490,6989,-7129,-74,1795,1329,-770
2491,-5392,5807,1015,1815,73,1465
2492,-4359,-1628,5231,-1727,-1017,1906
2493,5608,-774,666,-1947,482,607
2494,464,7827,-425,-1346,80,70
2495,6060,-7614,5750,571,1801,36
2496,6513,-6773,269,-1679,-1829,921
2497,-2569,-5926,7157,358,1355,766
2498,-7555,-3548,-286,-927,441,-1681
2499,7491,-570,-1664,50,1555,649
2500,-2080,-2166,-2174,-65,-1954,885
2501,-6306,4504,-2378,-1791,-632,-1396
2502,-5478,2751,-3149,427,-136,-1666
2503,-6023,-4369,-4752,161,-146,1911
2504,4722,2888,5298,-145,128,-1642
2505,-7067,6026,7394,-375,-1758,1810
2506,5591,7203,-2278,451,-257,1726
2507,-1598,5036,-6272,-1149,-1674,1361
2508,-2446,-3660,-6451,333,-210,481
2509,-4438,244,7254,468,840,-1333
2510,4627,-1253,-5893,33,1320,-155
2511,-1127,4493,2555,1215,490,-953
2512,-6681,-7422,3435,1055,1994,1295
2513,-7409,6358,4411,-1251,-482,-1505
2514,7979,-3360,4372,-1094,-1493,1706
2515,-6304,4378,5348,-461,186,-1075
2516,-4357,-181,-1285,1803,-504,-1614
2517,-6585,-1425,-5469,-165,-586,1473
2518,-4027,7984,-3530,78,-1806,1758
2519,472,-6709,2855,-526,-1576,-155
2520,-2773,-7493,2664,1044,603,-471
2521,1143,6134,7135,702,-1429,-1360
2522,-7035,1921,1548,-1561,-930,35
2523,454,4441,4667,709,1937,1903
2524,4723,-3226,-4348,1510,-122,1902
2525,6091,-2012,1836,1344,288,-1935
2526,-6275,944,1503,890,-202,-1864
2527,4257,-5420,-4068,-321,1538,711
2528,4843,7617,6485,405,-784,620
2529,-568,-7254,6804,-1310,1826,-651
2530,-5352,-6500,7451,-1510,59,-1885
2531,6784,-816,-3098,-612,688,896
2532,-1503,3114,508,559,1620,543
2533,6774,-1967,-1683,1428,1488,1527
2534,4738,4377,1894,-53,1299,1830
2535,6116,-6838,-6883,800,-824,-1459
2536,-2342,-3727,-4259,-1762,519,-168
2537,1233,-6918,7138,1545,903,1053
2538,4209,7226,1553,-577,-382,-1514
2539,4049,-7553,1686,-1261,54,-49
2540,3243,-953,6401,1403,-1426,951
2541,2548,-3818,-6562,-37,-1505,46
2542,-7600,2865,-6057,881,-1992,-1018
2543,-4368,203,1250,-394,-1840,626
2544,2614,2196,-1851,-1290,-248,-1715
2545,1210,-1408,-2931,1536,1533,-34
2546,5975,-4787,-312,-546,633,-27
2547,-6883,6648,-6352,1526,-1506,-1175
2548,2735,2436,-7788,-1027,1413,-1604
2549,3327,7598,4885,1717,865,432
2550,-6769,7885,-1374,-1346,-67,1906
2551,-6136,6256,-7660,-1749,228,-1073
2552,-2163,1126,-3082,-1349,-1947,1508
2553,5951,6307,-4393,701,413,1356
2554,-2631,-73,-5149,966,-245,1985
2555,4213,-2168,-2540,1156,1496,-1206
2556,-4237,1054,-3197,-1425,-818,-1340
2557,-950,576,-3728,-711,-1335,-1273
2558,-7750,5990,1719,776,973,-172
2559,5923,20,6722,1012,1191,-1869
2560,530,232,-2768,36,-1705,1550
2561,-6291,352,6306,-788,1709,-1842
2562,-7066,2961,-5785,803,-1859,-1150
2563,3555,1349,-6806,144,-1304,-344
2564,1064,1860,7491,-1200,-1378,625
2565,7926,-2397,5518,-340,-181,-568
2566,-1714,2920,6470,-934,573,-1048
2567,3502,-3796,4602,571,-113,-1944
2568,-6741,-5895,-2071,948,1990,-747
2569,859,3216,5220,-1879,-70,928
2570,3338,2056,-2847,-1481,453,1233
2571,6599,44,-4938,-1209,-1421,1558
2572,-7593,5666,-7866,865,-654,-782
2573,2155,-2142,-1784,504,1195,1912
2574,-7128,-2707,-4060,757,229,-557
2575,7714,-3755,3118,1161,1111,-904
2576,-611,-4834,-5703,-317,-929,1434
2577,-6484,3838,4154,263,-1453,366
2578,1564,-4363,624,-135,405,-1983
2579,-4736,-1457,-6348,-22,517,539
2580,-43,-1478,142,1302,-1747,-1524
2581,4197,4990,-1615,380,1892,1523
2582,1421,-29,3281,387,-1842,-1610
2583,-2821,-1280,71,457,-696,375
2584,-3269,-4253,-5278,808,333,894
2585,450,4691,4814,1531,470,1283
2586,-6555,-6165,5250,146,1650,1024
2587,6858,7947,-5474,-1996,1731,399
2588,-1858,-151,-6041,-87,1768,-1555
2589,-6430,-1797,-545,155,-886,1434
2590,5480,-2668,635,1432,-1996,-1362
2591,4291,-6444,-3909,1166,1162,-1718
2592,-1657,-3709,1153,934,-1079,960
2593,-1337,296,-7351,977,-352,-474
2594,2046,7735,-3223,-1742,-551,-1064
2595,514,-1314,-414,-1052,1318,-1713
2596,-1586,4470,-7128,6,-721,-748
2597,7942,-5671,-5490,745,616,-872
2598,-1376,-2432,5719,775,-1808,-1833
2599,-3117,6616,-6881,-428,946,-243
2600,-7491,-2310,-6512,-613,1703,739
2601,-6958,812,3526,-1299,1290,-1476
2602,5268,5903,2926,-1423,-1467,-1088
2603,428,-2239,-3441,1514,112,1056
2604,4878,-1656,-6929,1641,1676,1761
2605,-1936,-2976,-7443,-663,-606,660
2606,-164,3176,-213,-61,1507,-277
2607,6302,6323,7061,488,-291,-593
2608,-2573,3484,3283,-1194,457,997
2609,7641,5098,-7771,193,-1751,-1528
2610,5070,-7357,2507,1736,154,65
2611,-4874,3817,1550,765,-1504,1834
2612,2244,-7268,-38,-1023,-311,400
2613,-4695,-4455,4242,-88,1960,77
2614,-7353,-2408,4867,-466,-308,-907
2615,-5605,2370,-2301,1310,1767,-1095
2616,-571,5188,7333,-326,-1858,338
2617,-1934,-1248,-7870,-1645,-216,-14
2618,5804,974,-1758,-1184,-393,1430
2619,5784,7860,-2145,1792,1271,13
2620,-7169,-103,4917,715,1957,1931
2621,3833,-313,4888,-791,968,-1883
2622,-3586,-1186,-4062,1261,-1743,1889
2623,6300,-2952,3397,-413,1782,-1718
2624,-4356,4472,213,-254,-1609,1527
2625,-7137,-5120,-5836,-748,1922,554
2626,4285,7482,4894,-1054,1035,-1162
2627,1886,-6825,7194,-1336,980,1974
2628,-838,3761,-6742,-651,-2,1992
2629,-5304,-4855,4831,-394,-1442,75
2630,-2491,1502,5149,-206,894,1358
2631,-3287,-4205,-6433,1944,1289,1953
2632,-5753,3838,-2129,488,-440,-616
2633,-1421,-5998,7247,-1337,-1336,281
2634,1328,4044,-1016,-1321,-266,-871
2635,2435,-4982,-2810,-8,-1332,-429
2636,6688,1345,-4611,1889,1243,77
2637,1559,-4494,-2124,-476,759,1999
2638,-5625,-6235,6273,943,765,-228
2639,6641,-2118,6408,1610,-107,-1121
2640,-2823,-1776,-7996,-1715,1056,-1233
2641,6446,-4103,-2461,-1173,-1520,774
2642,1919,979,-5520,-550,596,-1482
2643,6107,7877,-3362,1394,-1710,-1001
2644,-5672,1904,-1952,1666,1668,-1977
2645,2577,1322,-3897,-1477,1568,-1008
2646,-2875,-5913,-3705,929,1110,511
2647,-6441,-2559,5995,853,-688,134
2648,-3690,2848,6595,-255,477,-674
2649,7559,7006,-3253,-969,-302,-1050
2650,1414,6054,3338,-1054,1670,-385
2651,-6108,3864,-1510,1926,-907,-1783
2652,6334,2445,2334,747,-905,-1972
2653,-671,5508,-3819,76,-420,-1168
2654,-4950,-2907,477,448,1457,-1651
2655,2520,-2524,-1784,1977,1683,-242
2656,6715,-6216,-3909,-1671,-1643,-584
2657,4397,-6458,5759,1866,1686,631
2658,2226,-3780,83,569,-1457,-1608
2659,-5325,3193,1060,153,-772,50
2660,5856,2490,5250,-1391,748,1092
2661,152,-3424,4753,-1429,-969,-612
2662,-5707,-3856,-1591,-1491,-1517,506
2663,1289,-333,-4009,-869,952,-1099
2664,145,-723,-5081,-1954,427,-135
2665,-6657,1186,-2322,-1058,606,-1321
2666,-1211,6994,-1869,-430,-1813,-1677
2667,-4004,-7789,7806,-758,1030,954
2668,6188,586,-4298,1134,-383,-1369
2669,241,5834,-2600,1011,855,1430
2670,-586,-5887,1572,802,858,-1022
2671,-6556,4642,2576,-254,492,-14
2672,-2507,-3032,7879,-1992,-1199,-54
2673,-122,-1541,4577,278,140,1844
2674,-2021,-280,1260,-1729,569,-1636
2675,-3825,1771,-3821,551,-1847,523
2676,7516,-7,6875,1256,-716,82
2677,-2426,3965,-1049,-118,-1857,-314
2678,469,-6787,-4669,772,1881,726
2679,2571,42,-427,1731,790,1308
2680,1884,-1418,3246,1624,664,-672
2681,-1573,1071,2227,-217,-1010,-1468
2682,-7618,-5972,7213,1072,-1419,-1283
2683,-7787,6561,4830,-1536,11,227
2684,-4165,840,5041,1013,1565,1034
2685,6023,-5354,-2209,-528,-1493,-1579
2686,6813,2299,-2238,-1207,269,-394
2687,-6496,-4177,-3850,-1561,-1008,-851
2688,-1086,7540,5312,1030,1244,-466
2689,2179,-4536,1788,374,774,170
2690,-2323,2982,-4037,383,-358,-734
2691,-330,-5649,6117,-177,1380,1961
2692,-6099,7920,7514,1819,402,-762
2693,6351,2080,-5255,612,-1572,643
2694,7245,-5621,1837,534,-1055,1206
2695,-2522,-6618,-1777,-142,1983,-1729
2696,2953,5455,-3148,1165,201,-1868
2697,1926,-2481,-6239,-885,-154,44
2698,554,6923,-4919,1705,-1119,751
2699,3308,-4409,7997,-993,-1215,-1260
2700,-3029,-7361,4429,790,1080,-153
2701,1129,4527,2492,888,1308,411
2702,7456,4946,4592,451,1943,-703
2703,-4619,-3522,6213,-1553,-271,143
2704,7601,3447,-3475,580,904,-743
2705,-3366,-3906,4235,-452,214,1397
2706,4253,4818,160,-1,-1830,540
2707,7970,489,1183,-1617,1802,-713
2708,-474,365,3900,1392,297,-328
2709,-4012,-7966,-2451,1017,1399,1137
2710,-7744,-2740,4750,-1265,1875,171
2711,7861,3300,5613,1498,-1133,413
2712,4567,-669,2936,-1020,891,-685
2713,-2090,-690,-1098,-199,-1176,-1792
2714,6160,-714,-6832,657,-1506,-734
2715,-5344,6294,-4864,515,-1335,482
2716,2442,-2806,-420,-1026,-676,919
2717,-7582,-6771,-4683,1641,1243,555
2718,-7848,-6955,-3837,1535,-285,637
2719,6408,-5742,1170,1077,1427,-1535
2720,-1997,7786,3957,324,130,-936
2721,-5737,532,7148,-1966,-1619,1796
2722,2251,-692,-2802,1369,-1763,1882
2723,-5679,-5579,-4551,-164,448,-1182
2724,1903,-2209,-7638,-492,-1419,271
2725,-7271,5844,3447,291,-1103,707
2726,-3075,2428,-1986,-1780,1279,-285
2727,-1361,-6071,-7949,-1756,1489,-1583
2728,7323,-7797,-4560,1203,880,-854
2729,2206,497,7192,450,780,970
2730,-3126,-1818,7092,-1667,-1752,1668
2731,-4529,4983,270,577,-1085,-1342
2732,-5118,-4582,6298,1698,870,-946
2733,2826,1216,893,-1443,-924,1965
2734,3328,6312,273,1839,176,-580
2735,7446,4138,-5637,762,-647,-385
2736,4367,2633,-5250,903,-707,-704
2737,381,5100,-4685,332,-192,-1044
2738,-5079,357,656,627,169,-1011
2739,6472,-2276,-6243,-306,247,940
2740,1917,-1414,-2050,791,-1186,1148
2741,-4189,1569,348,-45,-888,-577
2742,3204,-3668,-6248,1123,-1847,-1916
2743,5442,-965,1220,-1685,-348,-1199
2744,556,-1950,4547,-935,1209,1575
2745,2922,442,-3260,1356,1014,343
2746,-1073,7299,-3617,-441,-1270,-70
2747,-6078,-512,7955,1832,165,-352
2748,-3052,-6082,4693,-1402,-519,1892
2749,835,3071,-5056,1734,-14,-918
2750,3894,126,2806,-1694,783,307
2751,5996,-7825,1913,-193,-366,-590
2752,3841,5106,-7182,-1519,1421,649
2753,-4027,-2314,6046,341,-1652,-1653
2754,-3316,1211,3798,-1841,-650,-1398
2755,1311,865,-4566,274,656,1294
2756,2981,2586,-5875,-1111,-239,840
2757,857,1829,-113,388,-358,1855
2758,4490,-4447,-7036,-831,298,-14
2759,-7065,5677,2188,-1481,-1843,-716
2760,3669,5366,-6386,1966,-1489,466
2761,4223,6286,-871,1328,-1908,303
2762,-7569,-6272,5405,924,-1980,450
2763,2827,2932,-2280,678,493,1791
2764,-4188,-2700,-6697,181,1374,1644
2765,5860,2398,-1476,311,1414,1908
2766,7879,-1624,7627,-1857,-958,949
2767,-4571,-1683,-5022,1312,-1395,-151
2768,6416,5654,1817,-1994,1886,-584
2769,4519,4467,-6751,1859,-928,-1230
2770,-3163,6205,-122,-1702,79,-596
2771,-1755,-186,6065,1263,-1792,-1207
2772,1429,236,2222,205,604,1235
2773,3218,-4095,-3692,1666,411,1695
2774,-2747,-2790,-4429,1201,-979,1509
2775,-4100,6733,-2822,-1586,1627,1912
2776,1445,-3749,2065,-190,100,669
2777,-6791,-880,1527,-730,1306,-1275
2778,6678,4650,3654,968,1960,-1908
2779,712,4112,-4219,1358,-1507,-252
2780,-1762,1506,4434,-287,-1352,-731
2781,-4650,380,6916,524,1176,-995
2782,2984,-3738,1373,-1700,-665,1760
2783,7980,1185,5978,-398,-350,-1946
2784,7856,-6926,-1813,-1953,969,562
2785,486,587,-5351,-1477,687,1784
2786,5699,-7384,-7359,1831,1784,1244
2787,-995,1105,-3850,12,-466,-1958
2788,-6783,2250,7546,84,-1117,-525
2789,4641,-4254,-3402,1771,-1149,541
2790,-7363,7513,-5488,1906,1829,1064
2791,6198,6089,-7155,1947,-1772,1732
2792,-3299,-651,3329,-414,1724,1198
2793,4367,6106,-4792,-701,-1311,-1728
2794,-2092,3714,5669,-811,928,697
2795,1876,-4526,-2997,1613,-498,-1367
2796,1779,-7580,7584,-405,1752,812
2797,-2202,-1323,-885,-1690,290,-1742
2798,363,900,315,-480,-170,1592
2799,-1770,-2674,6559,-109,-1549,589
2800,-6244,-1292,-7033,1374,-1629,-721
2801,7687,-3294,-6431,559,-894,-86
2802,-2605,-7954,7477,1133,978,640
2803,-4800,-943,7926,-786,-355,-753
2804,6263,4826,5894,-1493,1918,156
2805,-5639,3195,7020,-1941,-92,-673
2806,2065,413,3977,-1868,881,-1161
2807,3916,1430,703,414,1847,-908
2808,-7194,-1623,6989,-1254,-78,1375
2809,3740,-6709,4400,1018,1813,-1337
2810,-464,-431,-5828,-1780,1369,-1578
2811,-3087,6957,1501,1038,1086,-477
2812,-6625,465,-5939,1183,-995,1074
2813,-6257,465,5430,1080,152,681
2814,6534,4912,6296,-1041,1967,536
2815,660,-7867,3949,1718,111,611
2816,4971,-7335,-6659,-361,-584,992
2817,-6126,1403,-5728,-1798,1174,-1779
2818,-1805,5448,-4055,-446,-1261,1525
2819,-3410,-5804,-3082,1604,433,240
2820,971,-5332,-4151,1194,1443,-1416
2821,-6846,208,291,1108,1446,-223
2822,-226,1047,-119,634,-1654,-1054
2823,6116,-3333,-6692,-981,-1155,1065
2824,-5932,1137,5781,432,-789,-219
2825,306,-7622,1175,-1543,1723,-668
2826,-5076,692,-7831,-1451,1294,1176
2827,6614,-7401,-2284,-472,1377,1767
2828,3664,-4526,-3595,-512,1436,1185
2829,5545,-7885,-62,-870,414,1942
2830,2851,-3371,3504,1171,1435,1109
2831,703,-6937,-5729,-184,691,-1548
2832,1278,3824,-5141,859,-447,1919
2833,-1928,6398,217,-1028,-1895,-457
2834,-4301,-263,-6101,-540,219,519
2835,666,-2086,-637,565,1598,1573
2836,-6235,-565,-43,-262,1049,1891
2837,-6844,-1809,2294,-917,-1712,1645
2838,6902,-4668,6304,651,-824,-265
2839,-1411,869,-5831,1396,-112,1087
2840,7642,6441,6795,-321,-1644,1310
2841,6666,-2606,5862,-1605,1764,-1648
2842,5556,-4011,4177,-568,-967,-1331
2843,-1058,248,-6315,-2000,-1576,-1617
2844,2779,-5039,-3855,432,-1601,1312
2845,-7937,-3653,-7859,-61,1099,-332
2846,7140,-6164,4861,319,939,-1256
2847,3718,-4888,3955,-967,1559,1025
2848,2032,985,6936,897,-1768,-618
2849,-5338,2471,-625,-1275,1078,668
2850,-7190,1777,-55,-998,-1842,-1952
2851,-2538,-3997,1338,1988,483,-1475
2852,-852,-247,4193,-975,279,-183
2853,1225,1495,-7412,-725,-1251,-1947
2854,2410,-4208,-5323,-352,1123,-1539
2855,-3065,3068,-1033,-1731,681,-500
2856,-4933,7320,2773,48,1793,1834
2857,-1815,-993,7316,764,-1837,-1273
2858,4512,2017,-6196,-1286,-805,1542
2859,6452,-1576,-2743,413,-1749,1266
2860,498,-3641,-765,1404,881,-84
2861,5518,1820,349,-1201,216,-939
2862,2734,263,5810,-1578,467,990
2863,-5502,7836,2227,-985,-1805,1650
2864,-1708,609,-607,-1850,-1573,925
2865,6938,347,-7696,1139,164,269
2866,4005,-6554,-1702,140,1881,425
2867,-5624,-7086,6483,-1729,1873,1975
2868,652,6400,4200,1777,1959,948
2869,2530,-1719,-5921,-603,466,1676
2870,1141,1016,-7569,1804,1535,-1273
2871,-4476,17,1980,-76,-767,-27
2872,-5225,-759,3013,1541,-1179,618
2873,2553,-50,3648,-25,1097,1843
2874,-1241,-1901,3116,-1024,-1096,319
2875,7510,804,7124,-694,1599,1746
2876,6338,-2333,7802,1319,-673,-780
2877,5446,2756,-4552,324,234,-494
2878,-4722,-2442,809,615,1868,1216
2879,5149,4162,6849,1962,-547,-1867
2880,2846,-6309,-1195,986,-364,1232
2881,2824,6623,1356,1406,-486,-54
2882,4811,2867,4862,-1325,-1430,-1072
2883,-3885,9,-5342,1434,-919,-652
2884,134,-7812,-4891,-295,-322,1805
2885,-2527,-596,3900,-1497,1049,715
2886,4936,-1685,-4490,-1291,-346,-532
2887,1910,-717,1253,356,-1246,-1450
2888,-6004,6384,3650,1866,226,-1109
2889,1837,-5566,-7187,1532,-1285,234
2890,355,4724,4468,-363,1263,-1888
2891,-5591,6645,4877,-975,702,-1587
2892,-1991,7516,7642,-426,147,-1739
2893,-744,7260,646,1194,-1870,1176
2894,-7893,6731,4777,978,-991,1318
2895,-4225,6493,6203,-610,1227,-236
2896,-2940,7162,2315,-140,-1515,398
2897,-5094,4486,-7090,1562,-813,-1042
2898,7728,-436,6431,-1907,-1749,1372
2899,3698,-2461,-1577,246,-1909,-1006
2900,3915,-7688,-2541,1985,-1182,162
2901,7343,-146,-1468,1423,-1374,-28
2902,-6397,-3470,1151,-1617,511,441
2903,-992,2026,813,-1658,482,-1977
2904,-4485,-7252,2780,-388,250,-1411
2905,-3372,7436,7398,-1399,1917,889
2906,2734,1727,6495,-1154,-694,-1559
2907,3032,-680,4288,1244,1442,-775
2908,7036,-695,1442,1803,-38,246
2909,6030,-2544,-5714,1930,32,-744
2910,497,-7806,7558,1982,-828,497
2911,3903,-508,-2072,420,1064,-674
2912,6556,2469,-3460,-1274,721,408
2913,-7375,-6942,3877,-1487,-419,-1953
2914,-1903,915,4032,48,-87,-1422
2915,-343,-2437,6091,-1711,-17,1601
2916,1320,-6773,-6168,-520,-1689,-500
2917,6035,4263,4576,1117,-1162,147
2918,-6764,-2467,-6611,1509,-945,1100
2919,4006,5727,1269,132,1165,-6
2920,-3534,-2235,-6354,-205,1466,-182
2921,7666,4261,4168,1641,1591,-176
2922,-183,-2855,3017,-420,1359,1377
2923,5772,-6855,-436,91,-1173,-296
2924,-752,115,-1613,471,-1797,1207
2925,-5196,-5284,4043,-800,284,-1671
2926,-6894,-7244,-6623,1232,253,-1150
2927,4861,-2888,7266,371,-1542,-462
2928,-6979,-7817,4030,-220,1867,1021
2929,1001,-3173,-3333,174,-499,-439
2930,-1934,-1558,7218,-1978,-960,1385
2931,-7399,-7245,-5813,-168,543,143
2932,-5591,3367,3301,-197,890,-287
2933,-2159,-3253,3537,202,1435,1755
2934,7221,5658,-6546,1417,-1067,-784
2935,6607,-7592,3363,-1653,-675,920
2936,-680,6942,1266,751,1155,89
2937,-57,-927,4436,870,1166,-467
2938,-81,-6604,1814,456,-1782,-1078
2939,-1396,-3958,3025,46,775,-715
2940,-5440,-491,-199,158,-1159,-1535
2941,5841,-3587,-3607,1861,-258,-1095
2942,2561,-4851,-2572,-153,-1887,-1225
2943,6421,1380,7493,-1066,1459,82
2944,-7182,5103,-2783,1715,-1774,-315
2945,-5478,-5010,-408,-1111,-375,439
2946,-477,-5400,-7561,-198,829,-300
2947,-7193,-6132,4691,140,1040,1482
2948,6713,714,-925,-1682,224,-1333
2949,5925,5022,7444,328,1187,-734
2950,6490,670,3889,-1208,-450,-1464
2951,-6493,-5984,5223,-427,1574,1363
2952,1361,3097,6960,1212,1794,-522
2953,6995,2623,-4853,-1083,-1524,1075
2954,-7484,125,5068,-540,-1613,-781
2955,6316,4628,36,385,1559,-631
2956,3268,-6947,2943,207,-958,-422
2957,6384,5344,-631,1557,1853,17
2958,6610,6872,526,906,1271,575
2959,-3712,-2399,326,791,-1981,656
2960,721,-2499,4729,-856,118,1914
2961,-726,4848,5136,-1460,941,-1519
2962,4860,-4031,-166,-1891,359,1244
2963,-1751,4658,-5347,-1766,915,1111
2964,-25,24,-3295,-1284,1495,-1719
2965,-2153,7700,-5210,1239,-1083,-1238
2966,-4442,197,-1666,1293,-1644,1427
2967,-3041,6275,4982,1081,-1478,-507
2968,-1204,-6777,1549,-1460,1269,1809
2969,3115,-3822,-7667,-1116,-121,1085
2970,1373,777,564,-1543,1147,-822
2971,-2645,5787,1115,-881,-1531,872
2972,-7334,-2321,7648,811,-46,-975
2973,-2390,5369,1865,-1938,323,1110
2974,-943,1785,1605,-350,834,167
2975,-2681,1848,-3803,726,1500,190
2976,5108,6842,1287,1803,-864,1345
2977,1774,2536,-2343,-19,1144,1463
2978,2315,2586,1254,-1246,66,273
2979,-4832,7281,-633,697,694,-1767
2980,-5191,-24,-6150,-1084,1735,-128
2981,-1975,-2672,-2947,-1744,-694,1715
2982,264,-926,-5516,152,1748,1836
2983,1849,-4935,6255,1041,1591,-1541
2984,1720,1543,-1816,-842,1916,125
2985,7475,-718,-6812,646,-1789,-1426
2986,2790,812,7597,-425,1366,-863
2987,-5641,-1805,7382,-378,1183,1833
2988,853,6319,-3589,463,766,-484
2989,2983,-3078,-4129,-989,-1685,401
2990,-384,409,4389,-394,-1208,1185
2991,7840,-2477,-6178,-24,1330,1285
2992,-6678,3051,-1085,-381,1454,1238
2993,-3620,2889,-6278,-1331,-156,-234
2994,2844,-5629,-1710,-1189,1640,-12
2995,5700,-5536,-3014,-1097,676,1000
2996,-2754,5288,-5684,187,820,1920
2997,203,413,-5782,-1291,-1388,1552
2998,-6782,1539,-7147,-714,1046,1318
2999,6504,6489,2656,-1858,-229,-1218
3000,7859,-6684,1584,-337,1037,1020
3001,6429,-4125,-6617,494,764,-434
3002,779,-7609,-561,-536,-903,1298
3003,2973,1225,5161,1012,1441,1705
3004,3374,2421,-454,-616,-799,-410
3005,713,-4331,-7433,-1880,1234,-1072
3006,-5533,-362,-3852,-1541,1845,578
3007,-4898,-6588,5753,-894,568,1001
3008,122,-4458,-2681,1788,379,1833
3009,-3855,-3909,7830,-1499,692,0
3010,6733,-7947,99,322,-917,-1647
3011,2294,1642,-5854,-1545,-480,1724
3012,843,-929,-4808,-1531,-786,1168
3013,7580,6240,-7427,495,-1096,198
3014,1933,7589,-2521,-574,-382,-1077
3015,4908,-7472,-1347,-1764,-1984,-1942
3016,332,-516,7950,595,-613,1884
3017,6355,4628,-1422,1956,-392,1118
3018,7030,-5167,5428,1017,1153,-914
3019,4542,-7475,2940,1744,1456,-113
3020,1222,961,4835,585,-1926,-1601
3021,5820,-1858,5878,1560,-405,-1301
3022,4554,-3017,3078,94,-1040,-932
3023,3688,-6768,-4356,-765,1170,-1710
3024,-1849,3603,962,1394,-1069,-747
3025,-7879,-5645,2618,-1225,-1500,1504
3026,4247,3276,-7272,1082,-470,-1602
3027,-4410,-2023,5000,412,-1023,-338
3028,-1367,-6715,-6741,-301,153,854
3029,-6453,-4207,62,1843,-1238,890
3030,-2477,-3774,3480,-1102,772,-1425
3031,-4525,4114,-3161,-1340,826,1765
3032,3540,2537,518,-1125,1626,804
3033,6914,2729,-7790,977,1667,-1037
3034,4465,243,2955,-1742,-388,-313
3035,4628,-5121,7760,1076,926,-114
3036,-5714,5884,-1419,1660,-1061,713
3037,-120,-2740,3691,-855,988,-971
3038,6745,7097,6827,975,-501,-1264
3039,-105,1363,3285,-285,379,-1476
3040,6958,2525,-7985,1864,841,-444
3041,-7724,-6633,-4866,-593,-1723,913
3042,-1069,2586,-954,-1685,1378,-1327
3043,5607,-880,-2088,1505,418,879
3044,1480,-4542,3605,-1065,-503,-1089
3045,-4389,1661,3919,1285,1916,-1292
3046,7841,3339,-818,751,-904,503
3047,7684,-6110,5581,-1411,-1705,941
3048,5675,-3033,2140,-435,-1465,-1903
3049,-1163,6746,-4482,-665,-1073,-1710
3050,-811,475,3414,-378,-683,-680
3051,1371,-4928,-787,1848,1665,1511
3052,1256,4746,3128,-183,-1425,-1809
3053,-2950,4267,-1049,-1702,933,-1554
3054,5552,3390,2311,1689,563,-95
3055,-1184,815,1934,-628,329,426
3056,256,-333,-7583,-1799,-1341,-1811
3057,546,536,-6601,-1490,-500,-755
3058,6339,908,257,-1911,-1757,-1486
3059,6610,-7389,5726,-413,1890,928
3060,3797,5729,-5549,-1048,-1948,1453
3061,3143,-4308,-1691,-478,17,940
3062,5346,391,-3449,1179,-1823,-788
3063,-323,-3193,-6305,947,-582,1939
3064,-3550,-2618,-3062,1817,763,-1738
3065,-4030,1912,5263,-459,-1210,-371
3066,-181,-808,-4817,-36,-1735,-1027
3067,6231,-5575,2675,-614,1113,1296
3068,6611,7259,5833,1682,-1421,1744
3069,5878,1236,6841,-1564,-1795,1240
3070,3479,-4278,-4652,164,1886,-30
3071,6215,-2362,-4253,1928,-1757,-821
3072,2372,680,6699,-1872,-125,-621
3073,-4051,-3668,774,-1368,621,-321
3074,-5335,-5533,-3064,-1848,319,1235
3075,2319,1983,569,-1577,-151,636
3076,3169,-4017,-576,22,1826,1727
3077,2512,-1546,5615,-686,194,757
3078,-2219,-462,2121,-1967,-1236,60
3079,936,2690,1575,-995,-1020,1643
3080,6764,517,546,-705,1002,1588
3081,5456,-5264,7522,-944,-483,102
3082,2347,2542,7978,1343,-1071,1042
3083,-4857,1227,-2137,755,-1692,1644
3084,5643,586,2409,-900,1658,1150
3085,-643,3302,5918,-620,-1336,-66
3086,-4606,-5528,2597,-61,1716,1218
3087,7831,4811,2662,1584,944,1534
3088,-238,6235,-504,913,1147,-1864
3089,5307,6445,-3351,324,1551,-415
3090,-1421,-4184,4469,-1556,1731,48
3091,7945,-3228,-2373,-1126,-21,-1620
3092,-6587,6595,6187,-681,-692,608
3093,-4542,7140,3192,-668,264,-628
3094,-3783,-5347,-3020,613,-945,-371
3095,3195,1012,-4651,474,-423,279
3096,4850,-555,-4725,948,-1028,558
3097,4988,6918,-5367,675,1842,-1910
3098,2805,5579,3266,-1888,1541,-1534
3099,-5376,3174,-7082,-1894,1196,724
3100,7169,3007,3293,-1041,-1908,-1949
3101,-5336,-7403,-2984,715,1380,130
3102,-2673,-5068,5546,-959,60,1652
3103,1071,7199,4683,-633,-1025,1996
3104,-4570,-2559,1603,-1865,308,-1751
3105,-3037,7162,-4651,-1298,-1480,787
3106,-7728,5589,-963,-510,-1392,-1193
3107,-904,-1686,-2491,1373,-743,-1645
3108,1411,-5867,2344,1749,-1011,1327
3109,7498,5752,7348,389,-1218,237
3110,3633,-4164,4270,395,-1869,1675
3111,-1760,2348,-4625,-1899,-1374,-1655
3112,-143,-4186,-4694,1267,821,1237
3113,-3490,-5750,-3526,103,-818,-1839
3114,-1413,-4211,4965,1104,-551,-405
3115,-664,274,5631,58,-118,-958
3116,-7182,-4631,676,1653,-1236,-58
3117,2075,-4834,-7725,-1259,-1547,-113
3118,6100,5286,-7116,1790,1243,1713
3119,2216,-3459,5634,1962,-1655,-82
3120,474,-779,-2161,-1204,-316,1890
3121,-2641,-5340,5669,-1769,-1308,1584
3122,6501,-7417,-2628,36,1892,-1042
3123,-2196,7984,-4256,-321,1057,-1730
3124,3276,2647,2473,1331,-781,-901
3125,6660,-7084,-121,636,1335,672
3126,1132,-1372,7667,-1910,509,386
3127,1611,952,6582,624,-179,-874
3128,-4684,-2821,-292,1816,129,-851
3129,55,-31,3,-1471,1258,848
3130,5818,5629,-3614,-669,-1783,1904
3131,4864,-4566,7660,673,-1341,462
3132,-1358,-5488,1048,-1948,-1004,-426
3133,1872,3820,-2140,-663,-1361,-337
3134,-6228,-6773,-6457,1269,740,1668
3135,4545,1717,-7155,-1898,-1686,-275
3136,-7133,7667,-3737,1789,-741,645
3137,-971,-1799,1041,-1218,267,-445
3138,7030,-222,-797,-371,-429,-16
3139,-133,-1335,7718,-1670,261,1332
3140,-7233,-7735,-3532,-1436,-414,-1327
3141,-3248,-2203,6508,1723,326,1023
3142,2467,325,-6715,-1142,-1235,529
3143,5592,-5940,4297,1658,1333,-1002
3144,6626,-7723,-2601,1953,535,511
3145,-117,-6050,1630,-1357,-809,-1345
3146,-6067,-248,-7562,-521,604,-1300
3147,3939,4565,4787,-1955,-793,-254
3148,-42,-7425,3505,90,1971,-1646
3149,-6056,5888,5345,1219,1163,1130
3150,-3863,-2069,-1463,-1523,1881,1204
3151,-7867,-4822,-633,814,622,428
3152,7427,-40,-600,-226,-139,-1904
3153,-3314,4831,459,-353,-923,-914
3154,-4368,-2886,6595,-1344,-876,916
3155,3205,-2176,-6684,1146,1363,-766
3156,-583,4841,4062,1874,-466,709
3157,5609,1140,942,-1778,-1686,-1811
3158,6674,5915,5236,-1090,1495,1119
3159,-5056,4882,-3387,-546,-524,-22
3160,996,1197,-2464,-1087,-207,1920
3161,-202,6923,-2853,1603,-484,605
3162,5813,1860,3121,-621,964,-904
3163,-3822,3473,-1103,-454,1699,1458
3164,6272,-3237,496,-482,1417,-523
3165,7310,-5778,-7003,972,520,453
3166,-3391,6820,-6319,-1525,1394,-247
3167,4559,847,-795,-1736,-760,-264
3168,-3528,-3146,-6265,1227,-435,-1362
3169,-34,6874,-5162,1497,1439,-19
3170,2762,-7381,7870,849,1709,-659
3171,1784,3224,-3520,245,214,-981
3172,-7845,-6593,-339,243,-1046,-1641
3173,-6305,4700,1447,1203,-1424,-1179
3174,-4944,1803,-7933,-565,-1226,-1974
3175,7925,6392,-2567,-613,-1983,-1948
3176,4256,-5542,2117,-4,-1791,-1681
3177,6721,4366,-6367,-629,-697,1266
3178,4680,-270,-7085,-1422,86,1614
3179,4368,-5700,-3859,-609,-1094,-768
3180,5821,-5866,-7198,1048,232,870
3181,-1,978,-2024,329,-1343,902
3182,2319,3790,-1329,-195,-511,-549
3183,-498,-4959,-7328,-896,-1262,433
3184,5313,7479,-7147,-901,1473,1431
3185,4094,-6146,2967,1044,-1569,-192
3186,-2021,-2476,-627,161,-1021,-1289
3187,7876,-5876,-3897,1868,285,-1295
3188,2415,-6175,6319,1393,-1672,-503
3189,7877,4816,7539,-310,411,-333
3190,6569,6110,-5080,-1952,897,1015
3191,-4651,3360,-5109,-355,1334,-1140
3192,4182,7361,4388,119,-1238,1568
3193,7975,-3367,-1708,1657,234,-1258
3194,1873,4829,185,735,-273,721
3195,-3378,1548,-5191,-1146,-344,-592
3196,3783,4406,166,-658,-97,714
3197,2363,-6901,-1323,-681,1932,-1043
3198,-5611,4338,5673,-726,729,947
3199,302,-5335,4036,1711,1387,971
3200,-2776,102,938,-895,1111,-1137
3201,7997,-19,5324,-859,427,-1405
3202,2929,-2799,1877,108,-769,672
3203,4378,1898,5333,-1462,-341,-1432
3204,-4943,-3635,1861,-795,-1581,-1533
3205,-3735,-2278,-5300,-1966,-624,247
3206,-6036,4902,-1654,-1190,1578,1788
3207,-1216,4165,-7420,-986,-1208,1270
3208,-3285,-2817,-2857,-1283,1459,-164
3209,7482,4228,7840,1396,924,244
3210,-6311,356,-3129,533,-1107,1165
3211,-6978,1713,-6407,51,109,684
3212,6042,1770,-2864,-1216,-1176,716
3213,6352,-2334,7838,-1724,-35,-1621
3214,-1039,4986,7333,-1264,-1643,52
3215,198,-1806,-4693,1133,77,-503
3216,-2589,1553,-2605,1053,-1964,-409
3217,3070,-4849,-461,-364,1151,-681
3218,3382,5109,6009,31,1582,-359
3219,4675,-7822,-2379,-1317,-998,-1158
3220,-718,-2666,-2203,-977,1055,1766
3221,-2646,-1711,7823,-598,816,1660
3222,6287,1947,-198,377,594,485
3223,-1791,1510,3895,-142,-598,57
3224,1378,-6622,2012,1219,1862,-1179
3225,-3329,1928,-601,1555,1685,221
3226,869,-7620,5696,-675,-338,72
3227,-7243,2425,-4506,-128,1708,-312
3228,-6343,6185,1500,-888,13,1162
3229,-6106,-5162,6477,1028,623,-421
3230,-2786,1078,-7086,332,1515,1091
3231,2873,-7569,2186,109,-519,-845
3232,-7603,1028,-4477,-264,869,-297
3233,3188,5499,6765,-645,-1539,-1155
3234,6100,6599,2116,-1622,-1892,-947
3235,-5482,-1720,-6855,-1465,-457,-266
3236,4471,-1944,2849,-435,-1566,343
3237,1734,-722,-5665,1275,-1691,-1954
3238,3194,7357,4360,970,-1612,-1499
3239,3274,-7203,-3419,-1712,-436,445
3240,4894,1721,-13,1483,1314,195
3241,5902,1328,2810,-1215,-533,-877
3242,-1353,5955,1042,1211,-669,1673
3243,5150,-7654,-2666,-1321,-1498,-212
3244,1010,885,5017,-1456,-1004,282
3245,-6728,-4646,6736,-384,735,1273
3246,-4466,4504,-1427,-1873,-659,-541
3247,-3164,6878,5427,1524,-1567,-1293
3248,-7134,-2294,-3954,-764,-391,-1416
3249,3586,5009,1133,1666,-1968,1845
3250,-7556,3847,-1306,389,1769,-145
3251,-3142,79,6031,1247,-498,1561
3252,-4335,-6663,-3569,-1598,218,-1436
3253,2418,-4605,-2046,1013,-1394,-1474
3254,4398,4322,-3001,991,-622,-222
3255,-2971,6556,-4150,781,-197,691
3256,-5432,6275,1630,458,-711,1150
3257,-4534,5608,4053,1006,-218,32
3258,-3000,-7525,-4179,1013,-1624,-1230
3259,-3926,-2101,3619,-1397,1106,-1667
3260,-467,966,152,1631,-1678,-1141
3261,-2744,-7906,-3053,-761,199,-1004
3262,1256,-7272,3522,-1530,870,-1055
3263,-1850,2991,-3789,-1091,-957,-601
3264,-6549,2615,7196,-1812,1273,1330
3265,-2174,-6169,3788,-1688,331,1276
3266,3672,3508,2324,-2000,-780,208
3267,-6321,6846,-3356,-175,1505,-1989
3268,4682,-7862,-1538,255,265,-941
3269,3833,-708,-5169,-99,647,-1061
3270,-5090,3947,-4074,-502,1964,-1840
3271,-7311,-5010,-3394,1007,-114,1438
3272,-6467,7899,1070,-195,-888,426
3273,2696,7155,-5933,-1130,1091,1932
3274,-6739,-4940,4235,-917,-1250,1648
3275,-4545,-4661,-4937,34,-1107,-1390
3276,3693,6845,-3006,-320,-329,-1423
3277,-3998,5667,42,329,-1240,-200
3278,-4063,-631,3316,27,-317,-1438
3279,-471,122,6222,-1706,1961,-745
3280,-2768,7286,-304,1424,1560,-1699
3281,-403,3961,7979,25,-847,1456
3282,-2173,6712,-465,-700,1415,-1484
3283,2743,3380,3553,-59,-1322,55
3284,3743,-4147,4927,1326,-1041,785
3285,-5851,6731,-4040,158,-490,-8
3286,993,-3230,6787,423,707,490
3287,87,5014,7217,-1873,1062,110
3288,-5287,-2404,-2691,466,47,-1481
3289,2148,7005,3119,675,92,351
3290,7100,6662,2930,-385,700,1183
3291,-3579,-1450,-2215,-761,893,-1057
3292,-5360,902,6539,-259,1891,-1847
3293,-1223,-3526,1457,-1425,-1029,1336
3294,-7652,-5290,4685,-1828,-1658,-1249
3295,5173,3634,5772,-1393,246,1233
3296,-5496,-6533,-1633,-178,783,-489
3297,3172,7803,-5854,-1551,175,-88
3298,-7141,6757,-4257,-46,905,538
3299,-7612,3376,3106,33,218,-1568
3300,7561,6023,-4716,-1565,-359,-206
3301,-774,-5097,-5529,-140,290,-1145
3302,-6550,-4214,4295,1073,1541,505
3303,848,-6943,6308,-124,248,-1376
3304,4002,6014,1989,1052,-681,813
3305,1438,1341,2902,1707,905,-796
3306,-3675,114,-3349,-123,1997,595
3307,4349,7468,4951,466,-1403,1318
3308,908,6281,-1169,-1312,791,-123
3309,-6340,-2356,-5043,124,651,1141
3310,2157,-1510,1879,1956,1631,783
3311,4774,-6762,874,317,-1275,-131
3312,4532,1369,6083,-1488,827,376
3313,6025,-4498,1140,408,373,-996
3314,-6364,4625,-4552,1746,1456,28
3315,-6259,1296,577,-360,-504,1002
3316,-5019,7770,-3253,-1149,822,-1439
3317,-6147,-1623,4377,33,-1349,655
3318,-2586,6082,4430,1723,-448,1210
3319,6482,674,5812,1634,-1622,-654
3320,-1170,-1537,6077,225,-1188,1085
3321,-6085,-112,1733,746,-1410,-1717
3322,7724,4395,-5922,-1050,-1788,1920
3323,-681,7600,-6833,-339,164,-602
3324,7438,-6464,-1130,1962,153,-1982
3325,1708,-294,-6118,-43,1801,1378
3326,-6571,-5828,-3547,-1174,1297,-263
3327,-2700,-4637,-4425,-1417,-846,-561
3328,-1463,-3647,5432,192,-1361,1294
3329,3821,2604,-7016,-1988,568,818
3330,5985,-1840,-2354,-145,-1662,842
3331,-2648,7474,-6078,1465,-1715,-713
3332,7689,5780,-6139,1793,-716,1859
3333,-6897,-2459,5974,1310,385,712
3334,-629,-7350,-6704,-1781,1990,342
3335,-4181,1746,2939,-707,1453,-1712
3336,-3460,-2749,-3381,754,-879,-158
3337,593,-4917,4068,-1622,1250,1770
3338,2945,-3412,-5311,1005,1130,456
3339,-6435,-3303,3196,-177,1741,1837
3340,-7825,-1117,1142,1535,1383,-870
3341,4072,4643,7023,-1283,-1666,952
3342,4644,4058,-6048,1273,-281,1909
3343,-6924,-6012,-6903,-798,-824,765
3344,-5934,7605,918,-1755,-121,944
3345,-6045,1175,514,-1878,1337,1409
3346,7528,-2838,4199,777,300,1062
3347,-307,196,2183,-1599,-271,-1525
3348,-6,-5056,2841,-913,-591,163
3349,4124,-1967,1740,395,-1265,-1877
3350,-141,-5147,-6510,-1941,-390,1771
3351,-2363,-5768,-3551,-1113,-1061,1953
3352,-5365,3592,-2202,-1031,628,1796
3353,-2560,-2686,6403,319,-1235,-973
3354,-1283,-2920,-2443,1926,-1092,563
3355,-2497,-6342,6835,-611,-69,1880
3356,-7553,5423,-3977,-837,606,-516
3357,4037,-5895,1866,1698,592,1931
3358,-2828,-3614,-1981,1604,-1110,-148
3359,-7166,712,-6399,1123,-837,551
3360,-1842,-1516,5484,59,1109,-1098
3361,2414,1922,4405,1892,1878,-1190
3362,2504,7407,-2557,1556,-957,-1304
3363,-2771,-5981,-3031,1766,-476,792
3364,-5975,-6413,-3027,1191,71,1490
3365,-268,-924,3514,1286,-501,-259
3366,7062,-2405,3927,-1636,587,1432
3367,-1427,-3471,-1762,-1676,-1306,994
3368,-2285,-1379,373,-1154,736,-1833
3369,1545,108,7597,-988,-1102,242
