Sample,Ax,Ay,Az,Gx,Gy,Gz
0,-2349,5774,3250,-1238,-863,893
1,-2105,-6347,6401,-1075,297,-1487
2,-1111,-3016,846,-1576,-422,578
3,4169,-5186,-5738,1586,-1829,857
4,3317,3259,7997,-1824,-497,-1001
5,-2353,-5290,7863,-891,33,-772
6,-5328,-854,-6541,1704,-1758,630
7,-3802,-2885,-3176,283,-1790,1441
8,1817,-2475,6231,1027,1077,-226
9,6087,-3859,2730,1683,-1933,1603
10,-4174,-6483,6065,467,-618,804
11,4737,2696,-7397,1467,-855,-1060
12,-4617,396,-876,734,-887,-247
13,-4443,-205,-5016,636,-504,-841
14,-6252,6113,-3747,415,214,956
15,2334,-6679,1071,1857,-225,-1168
16,-2863,7010,-2652,1331,1535,-606
17,-6046,1664,-4511,943,-57,771
18,-7547,-6994,-2774,-212,-1045,927
19,-825,-6669,-5979,-859,-46,-1618
20,1569,-6833,-4060,851,628,984
21,6181,-6310,-2906,936,1511,1171
22,-2760,3557,-7283,-922,206,-2000
23,-5479,-6524,-5477,-971,-1166,-1073
24,5696,4513,-1307,1129,617,-433
25,6530,-4275,6731,-1521,103,125
26,-3991,-1794,3585,-1560,948,-1786
27,1010,-5677,-3093,821,1059,1310
28,-4926,2579,419,684,-1249,1966
29,1395,2282,-3832,1996,-408,-329
30,5623,7889,2923,-1896,-1459,1079
31,5212,-719,-2008,692,-154,407
32,2313,1163,-6553,209,1534,-1743
33,-5865,2115,5538,1241,-2000,-394
34,1509,7605,240,958,-1546,-916
35,4451,-1711,-6436,-1593,193,-568
36,4414,-3879,-2121,478,-542,1286
37,-2629,7748,-6588,1381,-682,-364
38,-3430,7023,-828,-1595,-1085,67
39,-1470,3455,3032,1220,106,-12
40,6807,2174,3540,286,-1457,-1958
41,911,-1401,-508,321,-368,-631
42,2614,37,1654,1035,-1870,1198
43,-502,7938,-312,1905,-231,1601
44,-4033,-4467,-1884,1342,-914,-1280
45,1436,5484,-6976,858,-1498,-1690
46,4339,5949,5728,-242,14,1175
47,-2436,5405,517,732,1690,-687
48,-373,-3780,3353,1226,1290,1187
49,794,2980,1299,-4,-1682,190
50,5484,-5421,4323,738,259,-1862
51,-7252,-6617,6470,897,1049,-1312
52,-3082,-2694,502,112,-1159,1435
53,1658,6617,1124,-340,-1145,-924
54,7230,3590,-896,-264,-876,1364
55,-7531,-6478,-3785,723,1225,-1136
56,7568,3440,477,771,790,192
57,3007,-7071,-1231,-1673,866,-1257
58,-3992,3215,432,1972,247,-1687
59,1060,7607,2844,1845,656,-1884
60,4326,-7633,-6682,1512,-1955,694
61,6786,2897,7843,1898,-536,322
62,7113,3399,-5280,-1314,771,1250
63,59,2293,-7397,-1951,-663,-299
64,2129,6167,-6007,404,-52,-1327
65,-7487,-4668,-420,1108,1427,1155
66,-2127,-6213,2456,1801,-642,-1465
67,525,4015,-719,1815,-614,-992
68,1365,5106,4605,1868,-1080,1441
69,-5409,-715,-1767,769,1031,107
70,3915,-7126,-1068,350,1492,608
71,-7469,3661,-1681,1456,778,-1459
72,-2058,5937,2714,1778,1458,1245
73,3674,-1650,-4456,739,-836,1604
74,6629,-2424,1455,-269,-1500,-574
75,7703,-6957,-716,-456,-519,-904
76,7730,-2517,701,1514,-1949,-1490
77,4085,-2900,6871,1765,350,84
78,-7828,-3703,-4925,1471,-1965,-583
79,-3498,7293,-1973,-628,-1768,-1900
80,-2748,375,-244,1498,-1035,270
81,1323,-7950,6363,-208,-634,1143
82,973,-3445,-2280,788,1330,1249
83,-1766,-346,-6007,-1705,1597,706
84,4193,-3442,-4843,749,-1220,286
85,-854,767,3472,770,1359,1345
86,4555,731,-5439,-150,939,-1007
87,2713,-4400,5566,-1514,-175,-1387
88,-6021,5867,1419,581,-1672,-903
89,-6218,-7670,4848,1042,1466,-1774
90,7844,-2133,6288,-414,437,-1698
91,-2246,-855,144,1763,639,31
92,-2063,-2275,4548,1802,1352,1782
93,7539,-3409,-6346,288,1596,-808
94,695,-7365,2984,-1199,848,-972
95,-1008,5047,-5274,-1467,1048,809
96,899,-4441,-3362,-1609,1490,-1898
97,3321,-3970,3594,507,1164,1876
98,70,6846,396,-1440,-422,-1794
99,6050,-2602,749,-1139,553,112
100,1805,-3405,-4221,63,-926,1759
101,-4840,2740,4214,351,206,1662
102,-3726,5688,2220,-330,835,-1185
103,-2902,7303,1829,-91,-1678,386
104,6225,-2833,-3471,-1133,680,-106
105,3925,5422,7755,-219,-1112,-1623
106,1782,-2983,-5251,-1318,870,-832
107,-6716,-694,-7143,1753,318,482
108,-1754,4209,7882,-1791,1852,-1266
109,1203,-3342,3576,1367,1432,-1438
110,1463,696,6113,-1696,854,221
111,3867,2955,-4705,1472,-340,1991
112,1294,-7586,4095,-1781,-378,1226
113,-4217,-2805,2702,-1232,-176,-1998
114,-1473,618,6003,-889,1041,769
115,2449,1228,4805,-1161,1414,1535
116,-5205,4316,-4689,148,-749,-244
117,936,-7965,-5558,1443,-949,-1301
118,1447,3243,4220,726,-1140,278
119,6194,-6851,-2509,-1114,-1755,997
120,-6590,3819,-14,-460,-351,589
121,-1360,-1117,-5693,-1268,-491,-523
122,3405,-5571,-5516,1228,-32,-1490
123,-6324,3483,5178,-189,1837,-447
124,972,373,-7347,-1774,164,1241
125,-6171,-5351,5651,-1148,-1458,-870
126,-6941,-5248,-5480,1101,-1655,-12
127,-1068,1323,-410,835,1896,-1068
128,-127,-1748,-6962,1657,177,297
129,-275,-6078,-5031,1886,1083,-307
130,4111,3702,2128,139,-875,-979
131,5511,-7403,5439,-1983,-1037,-366
132,-3425,-7749,7490,1325,-1303,-552
133,-7524,-7319,-1054,-157,-1704,271
134,-7639,-6226,1822,-1750,458,528
135,-4129,5685,-1286,-318,799,891
136,3064,-6510,-245,1869,735,1892
137,-4756,2911,7778,507,1114,1665
138,3738,5343,-4229,-230,-1877,-915
139,-5546,6760,-6142,-1020,1787,-494
140,-3490,-3426,3308,1025,-1372,-1740
141,-5447,5574,671,448,-1768,507
142,-5965,2406,-1251,-153,1120,1643
143,-5465,4441,3570,-1952,-5,1470
144,-6088,-735,-5767,-757,1813,1128
145,-6377,-800,278,749,1418,-1179
146,4499,1615,2002,-1056,155,-541
147,6560,-4613,7483,-224,-747,279
148,-2716,5800,-5993,608,1397,-1998
149,-2008,3581,-886,-693,1328,1078
150,4831,-4458,-1615,406,1759,-1692
151,-4070,2372,1401,-693,-427,-1521
152,5960,2002,-809,1635,1598,-1882
153,-4049,5580,7172,1656,-1901,-1187
154,3198,-1851,7173,501,-1047,1349
155,6641,547,5453,-1362,-1439,-777
156,4249,-687,4182,-111,-496,-1787
157,4437,7835,-7835,1135,-1857,1109
158,6136,7729,-7368,-162,138,480
159,-183,2741,3814,-1463,898,320
160,-3780,-4233,3524,-327,113,-604
161,-1838,-7333,5287,-1336,744,-1074
162,4185,2811,5870,-457,1823,985
163,-2192,2341,-2524,-943,733,-826
164,-5954,6140,-4670,1703,629,-425
165,3603,6232,794,-1631,-85,-1499
166,-6361,2923,7931,1995,1871,1269
167,392,7047,1836,1956,590,894
168,-4747,-1719,-907,-393,1372,538
169,3245,3639,2351,-396,-800,-572
170,7153,-520,-5052,1527,1489,761
171,-4911,2602,-403,1620,1551,1241
172,-4943,-7376,-5491,-68,102,1614
173,-1950,361,3459,40,-406,1192
174,-4393,257,2058,1430,-1767,-491
175,2867,2893,7919,-1720,1756,-1239
176,-6729,-2823,272,-1560,-1337,1441
177,936,-2066,4073,-596,-1378,-1896
178,1569,-6431,-2328,658,-685,171
179,7806,-745,7250,810,813,-195
180,-6308,-6403,-4104,-1002,1417,-1709
181,-641,6556,-3713,-1203,-1732,-109
182,2910,-1797,-2495,-1835,1857,442
183,6085,-4078,-4663,-1782,689,-628
184,3606,-5542,-1896,-734,-985,725
185,5410,-5486,3979,1919,-1377,62
186,-6100,6273,-7531,108,-1845,-1210
187,6478,-6047,-5252,1551,-1438,-1886
188,6035,2848,-7142,353,1547,582
189,-7457,6807,-3044,-1063,223,-113
190,6847,7836,-6397,-308,-1325,-1224
191,-7835,4637,3181,111,1101,1181
192,-3007,-378,7298,309,1379,579
193,-5526,-1669,3337,-1844,-915,-1205
194,-2399,3431,-3220,-723,-391,-315
195,5444,-3893,-5919,1819,-443,-430
196,261,4001,-327,-1024,548,742
197,-7528,3607,-1796,1686,1010,-1729
198,4903,-2409,5155,461,-1399,-658
199,-3405,5307,-1007,-1515,1594,953
200,179,-681,-7537,465,-1264,-554
201,1040,-6226,-1245,613,1751,-665
202,1179,7467,-6087,998,546,795
203,-4810,-2241,5772,-1899,-1683,224
204,1951,-297,6168,651,1493,-1282
205,3433,-4808,2509,20,-1315,-198
206,1528,7946,1495,1489,114,-84
207,3987,5660,1136,1694,1499,1688
208,-1371,-5930,7909,1097,378,1367
209,-5776,-78,7143,1739,340,-1446
210,1182,-541,-7140,744,1726,-1301
211,510,1602,6581,215,838,1592
212,548,-7288,-1903,1277,-1350,-1570
213,6136,6038,4001,-262,-1720,1257
214,3713,-6884,3929,1440,1401,1649
215,-5930,3730,4174,-66,304,-789
216,2003,6685,-5855,862,-1776,1658
217,-2939,1076,3949,-521,-1073,-1800
218,-5962,6637,-5341,76,-1242,538
219,-3567,-4458,-7709,1719,-1278,-284
220,1327,-7843,3864,874,-1264,-881
221,-5293,-748,2025,1261,-1801,-1528
222,1624,-2696,7477,-1198,-1628,362
223,2237,-857,4452,-1815,-1640,13
224,1269,-3896,-3733,1243,132,1656
225,2675,-6265,-947,-7,1525,-1530
226,1188,1065,-5096,1089,-326,1844
227,5223,2453,7813,-1314,-737,1303
228,5505,-776,7305,1091,-579,-1926
229,7269,2774,5585,-14,1042,1670
230,-4233,7108,-6585,-176,646,1561
231,-2397,3023,-6985,-138,415,-145
232,-3486,-5441,3060,-746,-1243,965
233,-2924,-2210,496,-97,-858,1331
234,4306,-6807,-1359,1781,-1643,-1368
235,-2412,768,-1474,-1808,-1754,1966
236,-7979,3387,325,-561,-809,-876
237,7911,-2452,-6081,1751,1127,-1249
238,3677,-2664,2652,-1485,-469,-1864
239,-169,2770,-688,1343,-104,1768
240,-7312,4783,4519,-1051,514,-94
241,2413,-4231,27,431,992,222
242,-7401,-3331,-1757,-191,-1916,918
243,5684,7144,-4607,1232,-252,1482
244,3241,6187,6705,301,-354,357
245,3458,7579,-6582,-1314,640,707
246,-3086,2471,812,-1588,-1986,-1690
247,887,-3111,153,1638,918,-852
248,70,-5545,-7181,-980,1051,-218
249,-6917,388,-3213,760,553,-1274
250,-303,-6878,-3456,592,1362,192
251,-825,-2644,2337,-984,-823,-496
252,-1354,-6349,1603,-292,412,-1908
253,-2997,-7700,4606,-1400,184,1278
254,1488,2999,-3210,946,-1379,786
255,-6800,-5425,3571,-1862,-579,1077
256,-4197,-7383,-7797,1239,386,-1697
257,-3743,4796,-7844,-1781,-1466,1908
258,3228,3693,-812,-1474,85,-178
259,2106,395,-1105,735,1777,728
260,6561,4397,3003,1823,12,-382
261,6601,7758,-4312,1724,1317,304
262,2839,1946,2353,-1240,-613,-655
263,-2785,-6799,204,-1576,807,-1192
264,-3415,2012,4459,-1305,414,-1362
265,-1456,-6365,-2175,1736,1466,-188
266,5657,125,2475,107,792,-188
267,2984,4985,2012,869,1602,1566
268,-1794,-3486,-408,1561,-1389,246
269,3994,-6595,-5161,907,1084,-1021
270,-2025,1328,-6650,1489,-1076,783
271,5731,-2802,-5269,-1507,214,1834
272,4468,-7994,1238,-565,-1271,-714
273,-7783,1223,-6129,419,1169,75
274,-1890,-3848,-3958,1822,-620,-1536
275,2848,7156,2587,-928,1964,-1603
276,1071,4622,-6445,-110,-883,1675
277,-2511,4143,-5666,-240,1883,1754
278,4523,-2299,3748,-1847,42,1195
279,6293,-3365,2942,1899,-693,809
280,2407,-6714,4233,-1058,1376,-1795
281,-7653,5638,-1329,819,1612,1175
282,2911,-2091,3901,1134,949,-687
283,-749,1131,-3272,953,13,162
284,-3930,7269,3951,-1293,-1962,1871
285,2488,-6827,1756,672,654,-1309
286,-3192,-6553,1336,1776,-600,1851
287,-2736,3674,538,1858,813,1370
288,-4850,1059,7596,-624,1085,1185
289,-567,1974,1884,-266,739,-1704
290,5241,1022,-6315,1208,1731,959
291,-1621,6325,-1435,1824,1840,-679
292,2469,-1706,-6299,1680,142,-1544
293,-4656,-5223,4727,-1190,-578,843
294,2441,5683,-1858,992,-1255,-21
295,-3944,-5547,7563,741,-1805,-1170
296,6192,-319,-1523,1496,1344,122
297,-7280,-4830,7949,-1439,-1168,376
298,5147,168,5233,452,-1990,1823
299,807,-7922,-6561,-634,-106,-1968
300,-3641,-5730,5754,1450,71,604
301,1109,-6345,1215,750,741,1828
302,6868,1553,919,666,1403,617
303,-1151,561,-7677,-1237,1125,-251
304,6093,3180,-5702,265,-318,-967
305,1643,2284,609,66,78,-1453
306,3481,-152,7530,-743,646,390
307,-774,7861,-3647,-475,1477,785
308,-3697,7474,387,-1040,-506,1655
309,-4155,1347,-1953,1018,1084,114
310,-5182,319,-1502,-1321,-877,1155
311,5953,-6363,-6760,-1679,1515,3
312,-758,2610,-5541,-259,1458,-732
313,3759,6179,301,-124,-165,1733
314,5465,-2690,2060,-914,-1088,1926
315,379,1158,-4272,-149,1915,-477
316,4309,-4903,4348,340,947,932
317,3325,7262,-3537,-187,654,1993
318,-7803,663,-5559,-1967,560,-406
319,-2925,-6313,2594,-1298,-627,266
320,7883,640,6903,-866,-1847,-284
321,2454,-7540,564,-751,-98,-1481
322,49,-4068,-4630,-1422,-51,1795
323,-190,-3716,5626,5,1647,464
324,827,-958,-457,1783,-1205,1614
325,7518,-2623,-6219,613,-264,-1343
326,1144,-2620,1095,94,1812,-1961
327,7119,2184,-7918,1331,1766,82
328,986,5642,-2770,1150,-1152,1014
329,606,-3611,4163,-1456,181,1957
330,-3964,-1087,-3071,1368,-49,1368
331,2761,-1500,4100,-1611,-1033,-183
332,5002,-2568,6423,618,-581,497
333,7830,7709,-7820,15,1758,1802
334,-5347,3622,6449,-1593,836,161
335,1208,2719,6087,-1742,336,-790
336,1737,357,7442,1682,871,-1964
337,-7117,1151,-1550,-1493,-1811,240
338,4499,-5317,-2242,-27,-327,357
339,5667,2049,6836,-329,1847,1953
340,2796,-7502,857,1948,-1900,1044
341,-1412,1156,-4339,1435,1755,-1426
342,1719,4896,1640,1364,1360,-128
343,6286,-3112,4718,140,1494,584
344,2350,2435,-4424,-1035,-785,1686
345,5753,-7406,-4606,1473,-464,-375
346,942,2868,3692,1413,387,-650
347,-3874,-1981,4251,1432,197,966
348,2933,-4641,-6087,1971,1440,-776
349,-462,-212,-4681,1626,-230,-1659
350,3144,-7629,4373,-1749,683,-155
351,-5173,-1220,4207,1646,-936,-246
352,4820,6037,6520,-1876,-1273,995
353,-1948,-1840,-3713,-824,-1416,-1013
354,-3336,3670,-7645,203,1366,1464
355,-2964,-5289,-4749,-1840,-755,-1506
356,1236,3402,3130,-222,-1292,1360
357,5439,3205,7731,-1393,-1220,210
358,-2159,-3383,7596,799,-261,-991
359,-1407,92,-7296,88,482,992
360,2148,7043,4318,-73,-1667,164
361,-7450,-2571,-910,1008,-1311,1763
362,466,4781,1413,1253,852,-578
363,3744,1904,-2852,1765,1461,-1212
364,2072,1784,-2134,-1928,357,-1697
365,7357,3892,-1223,186,1893,1142
366,1021,2809,-1333,888,634,-1497
367,-3125,-1759,4838,1028,-804,-1299
368,4689,75,1180,951,-1510,-639
369,958,-7806,2458,-513,10,-595
370,-276,3128,-968,165,34,-490
371,-6106,-3627,6025,-1417,173,620
372,5657,7007,2555,876,282,-1124
373,-2774,492,5235,1636,851,970
374,-3207,6084,-5129,1805,1786,-1205
375,-1187,4361,1463,-1868,-349,543
376,-7109,-892,-2873,-1555,1939,833
377,-6081,-3957,-3215,-868,706,962
378,-3364,-3745,7451,206,-845,-1754
379,-6156,2778,-4892,969,1233,1529
380,6142,-145,-5480,-1040,1866,-1125
381,7715,-413,4024,-1871,1565,-1014
382,-2523,1323,-5762,1282,-1727,-1968
383,4045,-3153,743,883,398,-1815
384,-4662,143,-793,46,467,1572
385,-7484,6185,2625,799,-548,-1171
386,-5550,1398,-250,-446,-647,-427
387,4600,-7232,-4236,-343,-9,1762
388,-7521,886,-4431,1853,-754,1133
389,4095,2234,-4240,-1525,-681,-926
390,-3057,-2546,-103,-766,1513,-1679
391,-6524,1976,-3718,914,1181,-762
392,983,4551,1973,1612,824,-1787
393,6605,6792,191,-208,-1754,774
394,-5497,2054,-1837,-865,-675,612
395,596,629,-3902,1675,-321,-1736
396,7937,-6463,-102,-1670,-424,-986
397,-580,3702,6629,1063,894,1377
398,3600,-158,6905,-388,-194,-1690
399,6757,-4690,-5233,255,787,1437
400,-2998,1902,5779,1958,-610,-700
401,545,7453,-540,-1423,277,-222
402,3090,-478,5521,1904,-524,209
403,7086,-4497,-7636,-451,1555,-886
404,-446,-4767,297,216,1496,-1176
405,1836,7531,483,-972,1095,1706
406,1077,366,-7415,-1841,85,1483
407,-4322,-3647,6999,-688,-65,-1161
408,2830,5627,3401,127,849,1843
409,-5282,7917,-7449,-1981,1608,-1336
410,2585,-7895,-4674,-311,1022,-138
411,204,4564,3578,-1352,1784,1126
412,2144,7658,5444,1192,-638,869
413,1804,3366,833,719,432,384
414,-7027,-356,-5225,-436,1678,-191
415,-5432,-3728,-6569,-1418,-904,-1712
416,-2842,-7764,2376,-891,102,1260
417,-4288,-3863,7043,1687,551,-1696
418,-394,-2791,5134,1384,1433,512
419,-3049,4168,5900,1902,452,-1193
420,4762,-2148,4826,379,-1594,859
421,7462,6347,722,781,102,-394
422,-2242,-4143,4647,-701,-1139,1526
423,-359,-6289,176,137,1943,-106
424,7028,781,-7638,332,1598,-595
425,3213,-6077,-7006,-1253,188,-474
426,633,1941,-5148,-394,-274,556
427,-1541,6364,5862,-1424,1464,-1582
428,1742,-7222,5665,1143,-1210,-252
429,-3445,6599,-33,935,-874,535
430,-1042,-6929,-5868,-1922,1173,1951
431,-5503,-2799,-3322,309,1249,-1750
432,2042,5449,526,1742,-887,-1800
433,5650,-2942,-1616,1104,-260,235
434,5481,284,3819,1173,-1450,-1570
435,-1455,-935,-5380,1707,-291,487
436,6031,-7335,-2938,94,6,1843
437,-205,5057,-2384,1984,1209,742
438,1306,-533,3699,1152,-43,-1736
439,-2506,2214,-196,284,384,-1301
440,-670,-1842,-3401,719,-1253,-1367
441,4323,1312,-7443,-1590,-221,-1166
442,1709,5488,1326,-380,1045,-1941
443,3807,-2584,5075,-1328,-1318,-1728
444,-1472,3450,1110,-1125,1798,-1100
445,-564,-914,-631,369,-1267,-1185
446,-7077,-507,3780,-1145,-881,921
447,-4844,-6412,371,-514,1168,-397
448,-5220,-2942,-2590,1275,559,793
449,2542,1853,-1465,-1823,292,318
450,-3859,1118,-2369,1234,887,1357
451,-7227,-1510,-1040,104,65,1378
452,1971,5453,-7967,-1609,-358,-358
453,5968,-2290,-5546,-1307,950,-1507
454,-4113,1177,5329,-485,-398,983
455,5301,-2636,6600,-1384,1844,-747
456,-1424,-1217,-6420,1121,1490,1343
457,-5476,-3685,1063,722,-729,1141
458,7938,4723,1024,53,-77,696
459,3779,4621,-384,179,-1144,733
460,4734,-152,5594,-724,1163,1410
461,6961,-476,5416,474,1159,-1479
462,-1587,-2100,2416,-9,790,-964
463,-3331,3706,-7271,-1134,1748,76
464,2623,-967,397,1349,-1944,1246
465,-4191,-903,2520,-71,1246,-1165
466,-4592,-212,1419,1763,-1204,-524
467,-3506,6049,2615,-1501,401,1921
468,5167,-5054,5862,-1519,-98,-1052
469,2095,6677,1086,-724,1114,-1254
470,4673,-4412,1681,498,-1382,740
471,-7095,2373,232,1273,-1036,1505
472,-5429,4267,1917,-1979,724,651
473,-3516,-3087,-7918,279,1668,1354
474,-5926,-5077,-5168,410,-519,1827
475,3205,-6355,-6681,-77,-429,-1230
476,-7451,-885,6134,-849,-444,-652
477,5665,-4228,5619,-1583,939,-1535
478,19,-2637,-6464,684,-1831,726
479,-7927,-526,-52,-618,243,-1101
480,-365,7512,5624,964,543,-1051
481,-7014,5628,3946,-1347,1393,-395
482,3639,-3286,6146,-1475,212,-1878
483,7685,5522,-1463,-1119,-732,-1537
484,263,4785,7865,221,-1693,-158
485,-3864,-6606,-4672,1976,1648,222
486,-4932,-3316,711,309,-279,996
487,1720,5973,-5014,1313,-934,305
488,-4024,-2832,-3941,1253,1076,268
489,-2887,6869,-7859,-1132,1996,123
490,4364,-7017,-1203,-1296,-1996,1997
491,2775,-6057,-4900,-1401,-1195,1414
492,-7680,-4988,-7397,1363,-1399,-252
493,6185,-4496,-2400,1634,881,342
494,-1979,4995,-2110,632,-1519,-1482
495,-2464,-7810,4639,-1495,1931,1149
496,2722,2405,6732,1981,1227,1714
497,1838,4110,-1197,1247,1912,-1724
498,-146,-616,-3010,197,918,-1868
499,387,-1478,4496,326,1168,1392
500,-3682,-7256,6868,1355,-1445,1980
501,-3354,5598,2753,1407,-1539,1051
502,-5134,-987,4602,421,-564,303
503,2040,1929,7042,1426,-1075,1710
504,-6415,7650,-5196,219,1163,709
505,7237,3515,7132,1546,-1541,-653
506,-4176,-6427,-2658,-1128,1401,1265
507,-2056,-5952,-278,759,859,403
508,-1018,-5126,7335,164,-451,-600
509,4373,-1063,6291,385,1476,1011
510,1167,2223,-677,-112,560,-1351
511,7194,2800,-5695,1812,226,185
512,2918,3978,-2675,958,1296,-888
513,-7275,-6702,-3925,798,-1087,-133
514,-6180,-1180,495,-1979,-1366,-854
515,-1226,2082,4162,-1914,-553,786
516,-3447,-1852,-6226,-321,777,822
517,6001,-4644,-7192,931,-1332,1510
518,-3236,4431,112,272,1932,-1621
519,-4155,1137,-5666,-1014,-35,622
520,-7767,-947,-255,87,-1402,-1257
521,-5044,6698,-821,1958,1819,1305
522,96,2248,-6746,438,1188,-706
523,1568,5438,-6125,-115,-834,490
524,-7773,6315,-798,1233,600,1100
525,-5260,667,3938,-689,-990,278
526,-4793,714,1289,1528,-279,-1003
527,7728,6107,-4700,-1775,-1625,1821
528,-560,-7083,3874,863,548,1777
529,-4966,6240,7580,-451,-484,1907
530,-4682,904,-6913,939,505,1663
531,66,-1175,-7221,1338,1778,727
532,-7669,-3025,-4078,-1373,1593,-881
533,5146,-4335,4555,1702,-914,270
534,-4796,5234,-5036,-80,1580,-1862
535,-3325,2048,-4051,-1042,-410,-256
536,-2126,3433,-1325,-1174,-30,-712
537,177,2035,1509,1694,490,-412
538,-7883,-120,5858,-794,-596,-1121
539,154,-483,5847,-484,1213,507
540,1377,2158,-7808,-802,-1083,-2
541,-59,-1096,-3831,1173,529,-1317
542,-6507,-7101,-5114,-1534,-933,1664
543,-5726,-2650,-1402,1294,891,-1401
544,-2701,-7386,5671,-260,1435,-177
545,3383,-3703,1753,1270,-630,11
546,-2227,6411,802,-141,1764,-463
547,-6520,-2510,-165,-1900,-213,663
548,-5064,-506,1146,1078,-631,852
549,-6884,-4238,1158,-611,430,1771
550,-3945,7125,-5671,-1659,-1686,-48
551,-3988,-759,2277,1983,-1628,-697
552,3063,1869,-3451,-1807,1319,-606
553,-6701,-7006,2835,419,673,-889
554,-4729,-5132,1216,-212,-947,274
555,3744,-6185,3730,-1677,-662,1691
556,-3799,-1413,-4478,-991,580,1868
557,-4088,1563,-1693,-762,-952,-153
558,3001,4080,131,-709,-1594,1248
559,994,2968,7858,988,1896,1420
560,-4591,-257,1209,983,-686,-1685
561,-5483,-5717,-3878,-187,1509,-80
562,263,4398,3229,-1649,1896,-1440
563,5877,-2434,-1820,100,606,-698
564,5566,6862,3577,-580,-933,328
565,2921,-5179,5392,1226,-949,-511
566,1248,-5640,6468,1850,-384,-1001
567,-7309,3640,-4355,-161,1324,-925
568,2832,4859,-2664,1265,-1169,1163
569,-2068,2626,1227,1802,-1541,932
570,-1560,7849,1479,937,493,1347
571,-5583,-1567,-2464,-1984,-1645,-1413
572,918,-7683,-3543,1315,1858,-1068
573,7061,-1457,7298,-1958,1355,-757
574,-7489,5224,3529,-742,1663,428
575,-3897,1964,5912,-1336,298,-300
576,-7115,-424,-3951,-957,-1404,1768
577,-7552,4500,-6872,1024,-1923,565
578,3744,6526,-317,1870,-1484,1217
579,554,184,-2630,81,-1473,1377
580,4742,1670,-1534,-1506,893,1236
581,3400,-234,-7393,-265,1851,-1646
582,2130,-2912,3379,1466,-366,437
583,5943,-6286,4072,281,1674,-1562
584,2435,1462,-3195,646,1608,459
585,6820,4900,7030,1518,945,659
586,-4412,-2797,-1337,-1851,-1292,-1446
587,-3857,-7029,1544,-1279,825,-1009
588,5003,1669,-5551,-265,782,1242
589,-4160,-3780,274,-847,907,1450
590,-2446,-7733,-3195,-1637,1596,-1055
591,6092,7078,1575,1194,473,-1587
592,5266,2317,2230,1828,1690,541
593,3670,3194,2633,-1598,853,469
594,-1361,3814,6541,1346,1343,-397
595,4990,6093,-321,1896,1393,-750
596,-3360,6060,-4088,1246,442,-1490
597,6106,7872,3346,-1063,1225,-277
598,6883,320,3458,-1925,-982,576
599,2170,1172,-4510,-1846,24,833
600,5060,2836,-5971,1032,348,1074
601,3192,547,-1800,-968,-1037,-108
602,-3484,-6352,-2222,-1780,-140,-1723
603,6737,-2323,-2807,-1017,1195,1277
604,-6848,-5135,-2482,1541,-1835,-1575
605,3635,5567,-3201,-1765,-125,-62
606,5507,-1531,3778,1780,-827,-1872
607,3827,-1933,6111,-1230,-1690,1194
608,2902,-7671,7797,1986,-1452,-1782
609,3908,-4355,2943,-448,-272,-1554
610,-7436,4116,4564,-874,-862,-1760
611,-7391,7056,-7543,105,1400,-346
612,-5043,-3986,-3888,-149,829,-1033
613,-5624,7842,-7547,631,-223,-226
614,-2244,7227,-4917,1644,984,-1382
615,-7963,2902,-6834,1403,-476,-1636
616,7283,-1339,-5038,474,-1514,-800
617,-987,5881,6813,-1199,1410,1694
618,6602,2059,3244,37,-1848,-1346
619,1753,-3679,2098,-1625,-1355,1977
620,-3062,3612,929,265,1285,-863
621,-478,-4914,-393,-1454,109,-276
622,1260,1342,1583,965,537,617
623,-1615,-5498,-7248,-628,-1911,-1698
624,-226,-6864,1471,-402,-1861,482
625,5421,4352,2786,-626,1395,-1092
626,-2148,-1777,-3570,405,-838,676
627,7391,4933,-3248,211,102,1479
628,-3170,-2565,-6014,1208,816,-1473
629,6080,-2627,1908,-38,483,-1535
630,-6715,120,-826,-584,-582,-1756
631,4224,-31,4435,-1503,1,1389
632,-7552,2933,-2636,-1666,-387,199
633,-4482,7252,-672,1610,-629,1303
634,5613,-5743,-7031,598,1590,181
635,-6033,-6756,4786,-1645,380,-1326
636,703,2495,-7359,-1199,525,-1037
637,-1041,-3996,3663,14,1674,-1253
638,-6778,-1744,-1518,1141,958,214
639,2530,-5036,5079,-1924,-532,1448
640,1715,-6655,-6458,-1637,-202,-1330
641,-1590,-6837,-225,482,-1029,-1200
642,2591,6713,5385,741,-1635,-920
643,3373,5715,-1035,-1391,-1006,-1300
644,7535,6313,2620,668,113,554
645,-732,-7210,-2953,475,-1228,-1483
646,2212,7747,4507,-1986,-1215,-768
647,-5364,-242,-1238,-247,791,1870
648,1550,1609,-3316,-1872,-836,-869
649,2719,-1178,6625,-1687,1371,-907
650,3915,-5514,-1237,616,-1349,951
651,5317,96,-3661,-312,-632,-1079
652,3684,-4141,-2057,1852,-861,-94
653,-2880,6295,5583,-923,1513,662
654,7410,1636,190,-1285,1588,1638
655,5975,-5320,-3052,-1900,-1996,720
656,1921,6165,-2984,999,52,-129
657,5900,1761,2732,-1944,-1327,-624
658,-4562,-6589,-4498,-1077,1090,-654
659,-3273,4125,6174,25,1809,-1306
660,1271,-3084,6650,340,-1664,1922
661,4339,-3209,-5753,-828,-410,625
662,-3847,6595,-2175,-117,-1937,521
663,3153,1973,-4037,382,1020,308
664,-2658,-1917,7234,1939,1795,1182
665,341,-3493,-6649,-1992,-1332,-937
666,5450,7100,-2241,1438,-1056,-1867
667,-1705,-6124,1276,1147,961,1556
668,1459,7227,-3153,-360,1162,724
669,-706,5952,-2733,-1886,1618,852
670,613,-5022,-6779,-1454,909,-1251
671,3693,-7649,-4492,-1200,-1137,1259
672,-1823,2027,-1161,367,1248,-365
673,2466,-4385,5349,-268,1214,1653
674,-2910,5680,-7636,-1311,-1026,1112
675,3341,-711,-817,1653,-1927,1470
676,-1770,-4769,-3958,1047,-1726,-1395
677,3712,-7606,1582,346,430,-370
678,-621,7825,1962,-531,1424,-1275
679,5909,-4306,4875,751,843,540
680,4039,4990,3651,273,1772,-909
681,-5790,6617,-2102,1659,1859,243
682,7817,-1196,2905,1016,-400,-757
683,-5216,-3627,-5067,1321,332,-1703
684,4905,208,-374,-1197,-272,422
685,575,4708,-7722,175,-735,-1164
686,3061,4190,5396,1801,1232,1041
687,6425,-3365,1743,-1974,1213,1874
688,-5109,-3725,7350,1878,-137,1995
689,-603,-136,-5338,-740,-26,598
690,-3217,-7126,-1973,1719,-1030,1691
691,-7142,-3337,2967,1644,-789,305
692,1496,-6889,-743,1923,-492,-1465
693,3212,-587,5883,663,1723,-674
694,-5670,-1768,-2036,1569,-777,-1352
695,3092,-7751,-2060,289,1455,-430
696,-691,3078,-6351,702,1908,-1969
697,-3860,-3108,-7315,748,-212,-1106
698,6722,-7195,-7402,-1069,-1734,799
699,-1776,-6642,5185,-1349,624,845
700,3297,1504,6898,-1062,-1689,-1636
701,-4734,957,-7240,-1754,-1928,1414
702,1350,5800,-2410,545,1802,-170
703,1858,-3320,1868,-1051,1148,-1435
704,-6934,-2487,825,-1981,1238,-1761
705,-7212,3256,-785,1539,-278,-175
706,-7826,3523,-141,-1145,-118,1987
707,7331,-360,-2251,1265,-642,304
708,4848,-6015,-6765,-743,-1690,-1123
709,-1330,-2309,4194,466,-1434,-681
710,1547,885,75,-190,804,-582
711,-925,-2413,4700,351,912,970
712,-5,400,-4366,-260,827,-808
713,5083,-4601,-3565,1165,219,1661
714,5615,-4766,388,-1040,100,1353
715,3557,3371,4744,-854,-668,-1203
716,5726,-5092,-2651,918,190,1049
717,-2716,6307,7175,-258,-1827,945
718,-3422,-7129,5865,-1759,-1346,1020
719,6701,7469,5615,-653,1352,-956
720,3905,-5687,-2194,263,1364,426
721,5691,-1295,-5188,-1381,88,340
722,-5318,-5869,-4301,1158,373,1310
723,-6762,-3333,4841,-307,1585,1128
724,-830,-4673,-7222,966,-1989,1272
725,-6729,-7765,-280,1950,-1568,954
726,-3081,-6926,5096,-988,-935,432
727,4207,-6703,-2433,1168,467,1466
728,2513,-1524,7511,-851,-251,61
729,4805,3976,-3328,1857,1839,775
730,299,-4145,6780,1074,536,-878
731,3409,2886,7623,407,667,210
732,-6222,5454,-3257,1003,1235,-1829
733,7677,-4694,-5415,1059,-553,-34
734,6983,-3860,6240,-1133,-39,-1535
735,-1761,5277,-2282,48,877,1099
736,-207,-1913,3565,-448,-1394,-1973
737,-2345,2571,-3722,-968,-422,-1128
738,3895,-6120,-2967,464,-1579,211
739,1875,2462,1898,-137,-1651,451
740,-7730,285,508,1312,-517,1790
741,-3332,-315,1959,1363,1458,420
742,-2230,2630,1982,160,-415,-1370
743,-3910,7068,-3667,1670,-445,-507
744,2393,1345,3347,-1932,-761,-266
745,-6798,100,7371,-1531,-1140,-536
746,3737,2682,3382,-1964,-116,30
747,-5945,5294,-4637,-652,-1466,-263
748,-2895,2450,-3863,-785,-15,413
749,-217,5699,-4142,467,56,-824
750,5122,-3502,-4435,1247,-91,1336
751,-6094,-3570,578,1501,-657,-685
752,6243,-1387,7648,473,-1479,-1460
753,-5014,243,-3815,1867,-1622,-1777
754,-5029,5176,6968,1656,-180,201
755,6879,-5460,-7523,20,-913,1664
756,915,-184,3174,-1981,762,1301
757,-3112,4983,-489,-652,-925,-200
758,4085,2767,3619,1805,-352,-1958
759,-4944,4527,2467,-1422,-1365,-1874
760,1839,-7432,1507,-18,1489,-316
761,2367,-4514,3888,1702,407,-245
762,1533,7902,5811,-81,-1229,-1113
763,-5149,-7337,-228,1717,354,-866
764,-3252,5271,3453,-1570,-1015,-1671
765,4465,7571,1999,828,296,-1862
766,4259,762,338,1747,-536,-1554
767,-4823,-1715,7919,404,-1189,1368
768,666,2593,-3139,1941,-1476,1652
769,-7124,1016,2799,555,1707,-1040
770,2740,2155,-4543,-1461,-1855,106
771,2955,-4955,-1789,71,1123,197
772,4653,-363,-6690,887,-506,197
773,3049,-728,4448,-1243,-1901,785
774,-6670,-5721,515,867,-1776,566
775,-5149,4347,1745,698,926,-161
776,-2071,-3386,-966,-1042,731,-1597
777,1094,-3571,-1392,-341,-879,723
778,-7028,3952,7596,723,1249,1356
779,-483,6764,-4564,1218,1810,1403
780,-1727,7622,6282,-1015,-1493,1772
781,3021,-1125,5639,1997,1701,1215
782,-2340,-4900,2122,235,-1877,-108
783,3939,-3865,-2044,1183,1678,860
784,2655,7416,-2848,1973,1871,-213
785,64,-417,-5900,-1755,-44,1215
786,-7568,2603,3522,704,1534,96
787,-239,-6680,-3531,1204,1078,1849
788,2692,499,-6297,-1080,953,1707
789,3196,-7806,3949,1755,243,1706
790,1694,-2762,6126,506,755,-1408
791,4443,-1124,-898,-1011,-1992,-968
792,-5218,-4006,-5174,-305,1836,-1031
793,-6093,2447,4442,-364,575,-1798
794,725,6763,-2702,-653,-1197,230
795,6212,-4347,4959,-1170,624,-722
796,5338,5424,-5140,408,-1676,207
797,6834,7205,2649,-173,1229,-26
798,2018,-2919,-1111,-287,1736,561
799,5310,4261,7002,1640,1839,-1470
800,2091,5739,2958,866,1262,1809
801,3096,-7729,1762,1489,1093,-514
802,-6639,4486,3268,1249,63,-17
803,511,-3808,-6196,-364,1920,1593
804,-7405,-2762,-6297,-867,-1490,-1272
805,2311,7593,6151,-611,134,1116
806,3589,-4673,1191,-879,-866,-609
807,7535,-5403,5668,-1421,897,-180
808,-3596,5693,-3932,-1515,-568,-167
809,-4551,-5227,4941,1781,-216,1148
810,5750,7228,4896,-1392,1535,171
811,-5325,5209,6782,89,1356,292
812,1173,-1547,4326,-841,80,1863
813,6012,5667,-4878,1547,-1929,-3
814,-5590,167,4046,1899,1805,-14
815,-1001,-3901,5824,1090,524,-501
816,1316,-602,-930,-570,-750,1191
817,-3452,7127,-1156,-1837,-504,-901
818,7195,2729,-748,-561,251,266
819,5349,-3020,-355,1692,1710,240
820,5069,1744,5679,-1375,4,899
821,2884,-3528,1221,1785,-1406,-1596
822,4329,2391,4663,1668,453,-1943
823,4637,4854,4632,203,-923,1159
824,1939,2606,-4133,1349,-934,1048
825,-5877,3605,-1066,2,1777,423
826,627,3161,7628,946,-422,670
827,5800,1588,-972,879,1259,-324
828,-5829,-2969,-5488,-634,644,1465
829,1269,-5847,-5084,-884,264,820
830,-5171,4911,7690,-936,-1209,-200
831,7285,7558,7865,777,-929,1087
832,-3496,-2004,4816,-921,1977,663
833,-7278,5236,-6046,262,-1826,1079
834,5748,-4111,6832,1518,320,833
835,1656,-2252,1891,1665,-901,1669
836,-1623,173,-5500,1920,912,-1380
837,3446,-5440,5825,221,-1933,194
838,-1547,-3506,4377,-410,-333,-1495
839,-143,-7752,4032,-250,949,1219
840,4639,973,-944,-1617,490,-1516
841,6402,5435,3847,-1428,-209,1788
842,-4108,-4701,-7653,-705,-589,889
843,-2920,1458,2245,-2,1307,-1592
844,-7162,4760,1291,673,489,-116
845,6001,23,-6410,6,-1397,-1274
846,-3585,1291,-3377,-282,-1710,-652
847,-1945,5292,-2388,1952,-64,-1250
848,-3346,2257,5468,-122,-567,1356
849,2900,4240,4563,187,-1052,-1688
850,4640,-4785,-3628,1910,1805,1989
851,2554,6552,-4818,251,-1885,-538
852,2921,7207,-7107,371,-1486,1508
853,-5668,-4191,-4835,502,-920,320
854,-2218,-7933,1989,-905,-1109,-1212
855,-6352,-1219,-2179,-1538,-1531,1561
856,4224,7074,7557,1368,-1501,1748
857,3749,731,5690,-149,143,-567
858,-4811,-5088,6719,-1153,472,-1468
859,4999,1484,-661,-230,69,-551
860,1087,-642,6946,578,-1299,-1104
861,4151,3640,5337,-51,-1897,-197
862,2394,6909,7611,-362,442,-505
863,7491,-4774,977,1491,-1119,-1404
864,-6359,6031,-3431,-42,606,585
865,5356,478,5415,-690,-810,-389
866,-6429,4874,6394,-227,-1354,188
867,-4666,3704,6340,-988,-1320,-1635
868,6531,-3739,-2907,-1028,321,976
869,-2953,7481,-5077,-540,-1181,-1229
870,991,-5603,6644,1125,-1665,634
871,4943,2979,-1357,-1189,-23,-1785
872,1188,3788,-2343,1294,-221,-1514
873,4515,7029,6193,828,100,-1654
874,2520,-1094,1935,1407,107,500
875,4560,-6286,-5883,-1862,1601,-302
876,7797,6247,-2022,729,372,-1404
877,178,5941,4149,294,-667,1030
878,7982,3092,7639,516,455,-109
879,2916,5351,862,655,-1393,811
880,7799,-2451,6241,111,-1340,179
881,5373,-6485,-1616,416,1526,-944
882,-7117,5947,-5451,-932,1109,1207
883,7509,-5340,-7400,204,-1196,1470
884,-6553,35,3650,-1600,932,-324
885,1212,5125,5340,-1527,-1424,-423
886,-3235,4174,5675,-1101,-1661,-1689
887,6992,-5168,443,-1190,725,-431
888,-232,6498,514,1738,-362,134
889,-6190,-3658,6903,1692,234,1083
890,-1735,-5060,7966,1509,-1970,411
891,5844,-5230,-6890,645,617,-813
892,761,1339,-3709,1216,-1167,-1215
893,-932,-3363,-7986,1491,746,748
894,3704,1813,5020,-1951,-709,1611
895,-438,3681,-986,310,1830,936
896,-3743,-3743,4488,555,1608,-818
897,-102,7314,-3027,-774,495,1277
898,-915,5474,-4575,208,1188,-1898
899,292,7156,-6245,-1769,1471,-1789
900,464,227,-6819,954,-1379,-1353
901,-5940,2924,-1463,-1375,854,13
902,2047,6733,2289,195,-862,-665
903,-3931,-5687,798,1449,893,-1316
904,-491,808,-2307,1369,-1640,-913
905,-2914,-1321,1744,-1873,105,75
906,4101,122,1389,-1977,240,-1999
907,1027,3998,2199,-1604,896,31
908,-5659,7967,-820,1216,-1258,1843
909,-4296,-6567,2854,-1929,-1750,-1847
910,1746,6248,6074,-1722,-1272,991
911,949,4743,-2607,-931,-832,1998
912,1072,854,2624,-62,-1015,771
913,-3754,2382,-4552,-1195,143,888
914,2992,-5063,-1354,-1038,-1660,457
915,5636,2295,-4182,174,666,-1781
916,-7286,-417,-7503,-527,1536,1050
917,7662,-7420,4034,905,-1612,1204
918,1116,-41,-6344,-1821,816,-1321
919,-5000,-5314,1898,430,-906,1890
920,1070,3088,2321,-1964,-946,390
921,-2120,-187,498,1781,629,-1525
922,-1087,3364,6143,-192,1776,-1639
923,4396,-5011,-3276,907,-1525,-1259
924,-1708,4890,7054,658,-1069,128
925,-7132,4653,-4891,1440,278,-1341
926,-7979,3642,-3642,-1186,-956,464
927,-3815,-4772,-5894,1458,-1228,349
928,7257,-6085,-3077,1358,-926,1152
929,-6055,7747,-7008,-232,-1696,-879
930,6285,-5970,2124,-315,-289,-1687
931,3944,7923,-4872,-1203,-750,1004
932,1135,1039,-2322,-1914,1558,-249
933,129,2918,707,-10,7,-388
934,4222,2793,-1486,-1827,-1053,1663
935,-3464,6804,6310,-40,928,-1498
936,-1261,-3563,6382,-1494,1988,1138
937,511,-4679,-1128,1044,-1025,-301
938,-1024,1848,-858,-1829,787,933
939,7078,78,-3131,-927,289,-62
940,934,-7392,-2396,-1385,75,-1052
941,5697,-6552,-1328,-13,609,610
942,-3344,44,-477,1242,777,-944
943,5313,-6869,-6937,1703,1895,1411
944,-1470,-3887,809,1973,1894,-723
945,-3747,-2327,-2351,1349,-1275,749
946,-7938,-4705,946,341,-1997,-914
947,7839,-4305,4217,1906,1526,-1491
948,4733,-202,-5431,519,710,-747
949,3224,3258,3506,516,-126,488
950,7392,-4857,-3726,-192,1702,-1771
951,1833,6961,7912,-1536,-1957,1321
952,-43,-3945,-6120,-1356,825,-270
953,136,-2074,-6521,-79,173,738
954,5657,-67,7030,788,-1106,-588
955,700,6295,-5679,746,652,122
956,3582,886,-7655,108,-1979,462
957,1961,7164,5510,1871,-811,200
958,-1589,904,-7665,1620,-1215,754
959,-3036,-2857,-248,-1101,-395,637
960,5797,-4199,-5084,-333,367,-1716
961,-269,-913,-3940,-1194,-1912,-471
962,-7849,-6405,-2276,1943,-1527,-1571
963,727,-7952,292,1295,-1123,600
964,-3473,4489,-357,1769,-108,-1626
965,-7005,-1424,-2978,1899,1371,1290
966,5989,-787,619,-1867,-1067,-1225
967,3086,7917,6617,-421,-1312,1191
968,-6199,3624,7615,1987,493,-656
969,3409,-2975,4920,-897,-284,497
970,-3294,-409,964,643,1944,-1082
971,1334,6417,-4030,-301,1605,1804
972,-1700,1363,-4108,-1140,-33,1733
973,949,7444,-6388,-811,725,-1353
974,7416,-3101,4018,-1402,798,483
975,-2204,-2812,-4714,-435,140,1133
976,-6363,2197,-1483,-689,-454,-22
977,-859,537,7762,1192,655,581
978,-7219,4446,-4798,11,334,-653
979,-7209,3760,-3152,1182,264,516
980,-1611,-2485,5500,533,1285,868
981,-2325,7652,2799,1772,-370,-313
982,5436,4700,-1645,-577,-318,334
983,-95,-5605,-334,-1484,-1874,1526
984,-6828,1146,839,422,-1262,-1102
985,7599,2143,7928,-226,-1455,1465
986,-2589,2339,-7329,221,691,1907
987,-1521,6061,6216,863,222,135
988,721,6991,2339,433,-831,1789
989,-718,-4022,2116,-1146,431,-1677
990,-337,6689,-6389,1513,-422,1451
991,-5509,4180,2354,1277,995,1130
992,6736,583,7240,-1777,-681,-1684
993,6162,-3767,-3977,1589,-828,1977
994,-3039,1913,498,1429,916,1893
995,-3003,-1202,-5977,-184,-344,-1571
996,2972,-7228,-6949,1791,989,-337
997,-6001,-7084,3782,-196,67,-1032
998,3491,-2065,1078,-1098,1533,726
999,-3209,7830,-1789,-487,257,-849
1000,-4049,4234,-7490,1552,-643,1139
1001,-7179,-5274,2437,-1996,664,-1322
1002,1178,4330,-1297,-1371,-599,-747
1003,-501,462,-7976,-1507,1714,-1321
1004,1219,-114,3341,1774,606,1870
1005,3970,-1342,-3154,58,159,-525
1006,1688,-4414,300,-1316,718,1250
1007,2570,-6618,5148,1559,1048,-635
1008,-1109,-5946,2236,-1511,705,-675
1009,-4688,801,-1054,-1152,-602,1688
1010,-4887,2947,2339,-1529,31,-397
1011,4621,-3493,-5722,387,-1816,347
1012,-3514,6675,5517,-582,882,-1880
1013,-649,-4620,5624,1439,-973,928
1014,-5147,-5226,-6811,1928,-1041,304
1015,1522,-4062,-7497,1483,965,1875
1016,5828,-7280,-6834,550,-1365,1903
1017,-5188,989,4479,1885,215,1953
1018,7156,-4525,4174,988,1132,293
1019,3847,1301,-6181,-1482,-1904,270
1020,-4575,-2899,-7843,371,-1249,874
1021,-2078,6095,-5676,710,35,1992
1022,514,5047,6546,-1079,-1875,-1323
1023,-2537,203,4565,-1783,1234,-1369
1024,2271,-1565,-1489,413,608,-409
1025,47,-7585,1773,-864,-870,253
1026,7814,4805,-3079,1524,1286,-1139
1027,-7214,3742,-2856,1707,1707,-644
1028,4455,-2096,5514,-479,890,-653
1029,6277,1427,-3895,-223,-1338,1894
1030,2937,2452,-5529,-197,-609,-1878
1031,2654,2033,4749,19,1487,1672
1032,-2763,-1370,-122,-240,-345,-673
1033,6627,3484,-2795,-65,-180,241
1034,-3043,-2034,-1148,656,1450,-1287
1035,5765,-3426,-6674,-663,405,469
1036,5619,-1953,-968,-1523,1252,729
1037,142,-7482,-6865,76,-1043,1994
1038,2344,7140,788,-1478,-119,-1470
1039,-4701,-1009,-2047,-614,397,-739
1040,-4886,3392,-490,-1433,1122,133
1041,619,1291,7499,-1663,577,-1368
1042,-4633,1576,5631,-1261,-434,1775
1043,5289,606,-6059,-217,-170,759
1044,5173,-7358,6825,1539,-1886,523
1045,5498,6548,-4147,-1175,427,507
1046,-2865,-1269,-2653,-1200,1748,922
1047,-5688,-5439,-3346,1832,-1370,1851
1048,-4069,7468,-5108,-214,1884,1142
1049,4525,-5054,-2205,-358,-48,992
1050,3071,6943,-2755,-1036,1888,-608
1051,3730,3555,-3368,510,1302,-1819
1052,6763,1570,-3057,35,-1562,-1759
1053,-1216,2654,-7642,-1530,485,508
1054,-5935,2901,4788,1943,301,676
1055,-1386,7998,1808,787,1005,176
1056,-6010,7733,4762,510,-650,-1897
1057,-3738,1587,2643,1415,-1404,-802
1058,-4765,-7270,5951,-1224,507,-449
1059,-7729,-3595,1340,-1409,1095,688
1060,-6241,1681,7116,1876,-337,857
1061,-6974,5630,-3192,1349,341,-1325
1062,-4778,791,6364,-1367,-1773,-1721
1063,2883,791,-2645,-751,-1082,1322
1064,-5616,4730,-92,210,-1387,983
1065,6545,-7455,3628,798,-1752,-1870
1066,-5245,-1434,4125,-1974,1926,1987
1067,-3773,7409,425,-1570,-649,324
1068,-4520,-7098,-6796,675,1940,1016
1069,1895,-4368,6995,-1736,1678,1574
1070,229,-7315,6324,93,549,421
1071,5399,1782,4011,48,218,-1899
1072,-1478,-1507,-7428,927,58,1617
1073,7428,1497,-344,-1538,785,-1596
1074,-3266,3748,5302,-419,-915,183
1075,4730,6482,-6421,-1994,1147,-422
1076,-114,-4852,-7465,1589,441,131
1077,-6726,5536,5664,381,-130,-646
1078,2930,-37,7173,-518,1040,-1291
1079,196,7454,78,1960,-910,-1995
1080,-1701,2513,-1850,1597,1798,-1723
1081,4202,-6608,-6054,335,1587,-1032
1082,-5528,-6369,-5223,-1637,1918,1121
1083,-1782,-6135,3262,-1610,-1558,1436
1084,7357,-6533,-4417,-1866,1609,263
1085,-2935,-1629,1283,792,-739,852
1086,-1761,-1247,2925,-491,-1724,1166
1087,-4318,-853,7895,10,1784,-1392
1088,-1291,-996,7983,-715,-1454,-1056
1089,-2043,1444,-1197,473,242,-550
1090,7823,7647,-4537,-1320,-405,158
1091,-339,187,-1807,-1663,344,245
1092,5062,4671,-2444,-131,1432,-1127
1093,644,3359,5341,-379,1292,1976
1094,-5008,-1528,6607,1853,-62,868
1095,7420,1697,1226,495,-1813,-886
1096,4345,-2214,4843,-949,823,-1108
1097,-7644,1040,-7657,-957,-1483,1269
1098,6899,-5674,4444,-1657,-874,793
1099,3942,2288,-2987,501,-723,-281
1100,-3407,-3455,5138,136,420,32
1101,-2342,-3407,-43,261,1086,123
1102,4346,4747,4732,871,-908,-471
1103,1805,-1938,-4568,-1855,368,-868
1104,5747,6417,-7557,1046,-1549,-737
1105,-4375,-704,4218,-1262,-1423,71
1106,-6421,-3718,-7195,-1693,-1027,-510
1107,7481,-7856,-1532,-674,-82,611
1108,-3265,2096,6282,-95,822,-351
1109,-6127,-4278,7762,-1887,645,1048
1110,6245,-2564,7768,344,850,617
1111,-475,-3936,6779,1030,1940,1103
1112,-3848,-2017,-7537,-410,1842,-4
1113,6073,-3379,-6838,-1435,117,-246
1114,-1703,-6782,7129,438,-1728,-1302
1115,5611,4652,-7193,-57,-581,-1083
1116,5137,1121,4333,272,-1091,653
1117,-449,-547,3975,-60,-1118,1377
1118,-5233,7861,-2295,-1320,-529,148
1119,-7279,7927,5720,-871,-1161,1286
1120,-5329,3694,-2224,-865,-1582,613
1121,6674,5895,859,-952,496,-1121
1122,5078,5211,4564,-1568,1203,1199
1123,7363,6418,-4364,-840,686,-554
1124,-6814,1492,3710,1574,1207,-1116
1125,7166,-6261,1195,1098,1282,-1666
1126,4524,7988,-7077,-1700,-408,707
1127,5329,-5529,4791,-1580,-768,-1315
1128,-6786,-7731,32,-534,-1434,-598
1129,1135,409,-2457,-420,804,854
1130,-2176,-5245,3038,-1799,-1123,-619
1131,-7866,823,4267,1787,-1919,365
1132,-474,1302,2024,-1554,1436,-94
1133,4705,7325,6586,-1642,-1795,971
1134,3646,-4233,90,-855,-1268,1850
1135,-2879,-6930,6032,-29,10,-1728
1136,3039,-7992,5361,987,1502,-526
1137,-659,4721,1744,395,-324,1614
1138,-1186,-4341,1980,1292,1386,-1438
1139,-4527,-4488,2583,179,1065,-716
1140,-6938,763,5885,-736,-1075,1770
1141,-3338,-3477,-4838,-144,369,-280
1142,6889,477,5582,788,-660,1216
1143,-5930,-7971,-6522,-195,-589,488
1144,3332,-3676,1411,21,-1951,-215
1145,7015,2484,6310,1419,678,1233
1146,2821,-3610,-6189,261,1833,-1252
1147,6954,1706,2037,1434,1280,1547
1148,-3272,-7648,-6314,1978,1720,1125
1149,1935,5155,1477,-1812,2,964
1150,2183,-5337,-5562,1881,474,699
1151,-3116,1790,7979,919,-1692,821
1152,-7668,5478,-240,-1900,-1387,17
1153,7533,-6578,-4341,239,-134,-50
1154,6674,1024,7709,1431,-1005,-2
1155,3969,-7101,3662,-1378,1391,-1738
1156,-3220,-6884,5735,-333,1377,-929
1157,-1623,4722,1520,1733,-1532,-1672
1158,-235,-2917,-5240,-216,-858,-1971
1159,6332,-5190,-1443,579,-858,-813
1160,3069,2405,4272,-1674,1714,-1933
1161,-6352,-6755,-489,972,1016,899
1162,-7568,6736,4612,-1428,-1944,-1707
1163,-3310,-7340,-7427,730,-1937,-805
1164,-4793,3563,7887,260,-1050,-791
1165,-7320,-7399,-1712,873,1630,566
1166,4613,5176,2288,1635,-7,-692
1167,1025,-4664,3396,-1625,1058,859
1168,1155,5149,4953,-320,207,1632
1169,-1362,805,-6879,-838,1885,1568
1170,6195,-6475,1816,-127,-598,1171
1171,5474,-4767,6707,216,246,1286
1172,607,1503,3828,1766,618,-1073
1173,-7524,-391,1264,834,1541,1729
1174,-2718,5258,1345,1068,788,-505
1175,-6651,1110,6209,-1141,578,-935
1176,1296,7684,-2866,818,-712,75
1177,5266,5501,5787,252,-864,1990
1178,2806,-7354,3046,-1052,-861,399
1179,1455,906,-4300,-1253,-1058,863
1180,2934,7536,4091,-548,-1460,924
1181,7568,5625,-2131,-1947,-1431,1174
1182,-7015,7545,-7987,1669,-407,-1532
1183,-3856,-6941,6544,1986,430,-733
1184,1457,-5220,-3560,-1543,-130,940
1185,-7310,-7541,-1292,-1736,492,254
1186,290,4459,6265,-689,-658,1939
1187,7085,7516,6709,280,1968,-1009
1188,1110,756,3536,-1216,1882,528
1189,2898,-387,7768,964,1757,-826
1190,5146,4984,7996,-829,879,350
1191,6873,2706,-2151,78,905,1320
1192,2730,6351,-285,-202,582,635
1193,-2145,-2882,5359,1948,-1371,1708
1194,-5301,-3395,3507,1042,1058,1988
1195,3441,-407,1965,-933,-1754,-1129
1196,-1834,5811,-7990,-1896,1042,-1471
1197,3676,1868,-4446,740,-1047,-1163
1198,-1437,-2348,7621,-1180,-296,-909
1199,3447,-7878,-5294,1600,-159,-1435
1200,-2053,-7397,-2049,1930,-200,-1482
1201,5750,-4014,1598,684,-1969,330
1202,7991,-2440,6725,1025,-909,-1469
1203,-3254,3888,4422,21,-541,1346
1204,-4525,-1003,7325,1386,-124,1835
1205,-7936,4524,-4705,1850,294,1630
1206,-7155,7717,-2274,749,981,872
1207,1060,5993,2020,862,1655,772
1208,2224,5666,149,1208,-1652,-94
1209,5330,-4538,-4097,-420,-74,151
1210,6208,2532,7687,-1774,408,517
1211,4342,3666,-4095,-372,-1927,-1795
1212,4685,1486,-4635,1914,1341,-177
1213,-1878,-1738,4736,-1713,1181,-617
1214,-876,-5754,7199,-1211,-1568,-1590
1215,1479,6406,1369,-874,1884,-1253
1216,-4575,1112,-816,-678,-979,497
1217,-4925,3061,-3134,559,281,1251
1218,-685,-7448,2071,1870,114,-1815
1219,-2486,-4955,-6277,-493,700,-380
1220,-7957,7441,2508,-1060,-1184,-1789
1221,4100,-6180,1604,-1746,-1003,1674
1222,7734,7539,6503,-1353,-925,-1825
1223,3724,-4736,956,-1961,-501,162
1224,6798,3076,-307,-1029,508,-1336
1225,-3973,-5643,-1794,886,933,33
1226,3418,953,-5880,755,-545,110
1227,5213,6617,6195,-1758,196,-1694
1228,6027,3739,5262,-1162,1319,194
1229,6633,3100,972,1939,-1609,224
1230,7407,-5230,234,-104,1565,-1896
1231,1335,7031,-3440,935,1344,-1422
1232,5642,-5714,-7905,-1335,-889,-732
1233,1424,-3779,401,360,64,967
1234,-5385,-2951,690,702,269,-1806
1235,-1951,-4962,4896,945,287,742
1236,-5209,2655,3652,-703,-365,1879
1237,873,-7887,5711,1505,660,73
1238,843,5330,-7155,-1380,-176,-1191
1239,-1031,1936,5177,-1335,1932,143
1240,2797,6453,4574,-1123,-24,1045
1241,3931,-1219,7085,-577,-852,1585
1242,-4530,-7152,-43,-1329,-1075,-1487
1243,-666,4545,-3915,-784,346,524
1244,4193,-459,7228,-1452,-1751,-1761
1245,-1478,-1667,-4198,10,-47,159
1246,-2701,-4751,-831,1643,1533,-1505
1247,6619,6579,-813,-1022,-402,1579
1248,6998,2943,6018,1450,1192,-588
1249,2659,-1383,-5324,1925,-1129,-326
1250,5193,-5346,-568,-1947,-1435,-986
1251,-6046,-6844,-1697,757,1021,-344
1252,2155,-634,5186,-1647,1140,496
1253,-1109,-7807,-360,-480,-1588,926
1254,-4012,225,2680,-132,-864,1034
1255,933,7132,-7827,-276,-441,79
1256,-2642,2513,-1056,626,-984,1611
1257,1884,6680,-6117,-270,-368,-191
1258,238,4871,-4692,1934,1439,1420
1259,-7780,-1321,294,-664,-629,26
1260,-349,-5059,-1735,-1783,1041,-267
1261,-3298,7253,5461,1926,-1017,-1312
1262,1455,7955,-3910,-1522,-1162,-1778
1263,5010,1682,4650,1419,857,-1082
1264,1720,2971,-1642,-1982,1544,-747
1265,-1463,-538,1503,1177,1213,-1729
1266,-3348,5425,2490,-757,-202,1107
1267,-3332,-6468,-7600,1318,844,-1146
1268,5280,-5777,-5200,1330,559,936
1269,-7364,5104,1813,588,920,-1800
1270,-3407,-4779,2964,1939,1554,-269
1271,2793,7229,4573,-287,-38,-1060
1272,262,7673,-2499,315,1606,-1088
1273,5971,-3274,-3440,-1359,-213,541
1274,5751,-464,5635,294,128,1337
1275,-3336,913,3315,893,826,-1191
1276,-6308,4216,1320,-695,-355,-1271
1277,-6765,6608,5211,1408,1302,1616
1278,-6022,885,2258,-1121,-1718,1514
1279,-6623,-5354,-19,769,1168,-1693
1280,3990,1030,3401,-1811,394,-1503
1281,-3615,3961,-7378,-1674,1428,-1698
1282,7008,-2492,2500,1325,-1124,-1168
1283,1609,-3925,-6837,798,-584,887
1284,6227,376,5840,-355,1933,54
1285,2852,-5316,5503,348,1931,421
1286,-4692,-6421,-4198,-1577,-1612,1773
1287,6135,-1758,6184,295,-1964,-141
1288,-4798,66,4050,149,695,-787
1289,-1565,2986,7535,1827,-453,16
1290,-6260,6245,-4316,696,-420,-1059
1291,7795,-1587,-6355,1308,-855,-1594
1292,-608,1016,-396,1909,-495,208
1293,-2501,-2918,5571,-1391,-1920,-1437
1294,-2221,958,1993,-860,419,1694
1295,2241,-2757,-6241,-764,358,46
1296,-1898,-537,5382,-1179,-85,-671
1297,4542,-2492,-3619,213,1653,892
1298,-5656,668,-6543,-1005,-1599,709
1299,-1485,-2881,-5653,1996,1704,1398
1300,4639,-6512,6935,-1343,512,-410
1301,4629,-7643,6454,-1816,1057,627
1302,-7069,-6345,-5743,11,-677,625
1303,-7680,-7323,-4377,-456,1899,-1157
1304,5965,5108,6723,971,1531,-631
1305,6254,292,88,-866,-1601,-93
1306,5318,6583,3598,-1066,20,1410
1307,3576,2450,6533,1989,-132,1583
1308,-1414,-7928,7197,1646,-766,1128
1309,6787,-4039,-2705,656,-1749,-540
1310,-2446,-3539,-4924,1128,-697,-1977
1311,-5817,3096,6886,-1361,-168,-1886
1312,4574,6496,-6775,-314,1803,-1391
1313,-7088,-4755,7815,-1108,1506,-188
1314,-7383,-2287,-7776,944,1182,-1005
1315,1021,-3137,4102,-1788,-1621,-16
1316,4919,-7167,-4548,564,985,-1964
1317,6285,1404,2588,-974,1872,-1167
1318,4139,3515,5418,900,-236,943
1319,5972,-3450,-1341,1620,-1318,1067
1320,4964,3702,4568,-1310,-1289,-805
1321,-1547,3682,1605,959,1875,-98
1322,2856,-5799,5654,-247,1902,-1940
1323,-2413,-2188,2449,980,1792,-911
1324,-7493,4839,603,-1043,-1285,1365
1325,7775,3005,-4258,-1202,345,657
1326,2997,-2328,-703,1898,552,-723
1327,-5081,-4657,-5287,-921,1965,374
1328,6227,3580,7722,673,502,1679
1329,-3085,3862,-576,-1299,-173,-1452
1330,7712,211,1274,1265,-1956,1529
1331,1752,7675,-3892,46,823,-904
1332,-892,5025,-334,-1384,1004,-1445
1333,-2241,4900,4703,-1753,-1270,-588
1334,665,7514,7829,1675,1710,1140
1335,4745,-2474,-5401,-1935,1748,-1892
1336,-4773,-4916,-3282,-300,-32,-865
1337,-6251,2685,2679,962,1462,-384
1338,7050,-7289,5095,1309,1957,955
1339,738,-4438,-338,-1843,-579,-419
1340,-7092,-5987,-1098,468,450,-655
1341,-7104,2744,3454,729,-658,757
1342,2160,3650,-5575,-426,305,1941
1343,5041,1279,-6004,-418,-429,-1828
1344,-2565,2772,5690,-1641,-664,-184
1345,-2582,6631,802,-624,183,1657
1346,-3851,265,5580,869,1303,-1936
1347,-4336,-497,7226,-742,644,272
1348,1411,1012,6334,-1952,-1954,196
1349,4127,-4335,-1645,1222,727,1692
1350,-2975,4993,590,1959,-1197,1569
1351,3297,5772,2057,510,677,-1943
1352,-5220,2118,1404,1413,-181,-136
1353,4197,794,-6051,-785,-514,-871
1354,-4090,-538,6149,-1380,657,-702
1355,-6242,3572,-7062,664,-165,1053
1356,-7859,-4507,-5547,-935,-564,-632
1357,5564,-4802,-5554,-493,115,-86
1358,5444,6678,6567,-455,-1530,-1849
1359,-6357,-703,-4277,-1214,-776,432
1360,7348,-394,-787,-1962,-335,1724
1361,603,5603,-2560,-1741,-1932,1339
1362,1175,3215,-2774,884,-820,-265
1363,-7067,-2288,7173,1273,-332,-1485
1364,-5365,-4204,3935,-277,864,-644
1365,-6845,-6815,-4842,-48,-542,954
1366,1618,-5513,98,552,-1365,1165
1367,2566,2292,5289,-1025,-1394,-574
1368,5004,2499,-397,-1910,1614,-1941
1369,1349,-3652,-6524,-1328,834,712
1370,1886,1943,-300,-92,-1277,-838
1371,-2718,-483,-2146,-1014,-1730,280
1372,1905,4886,-6790,1326,503,1725
1373,777,-6853,3466,1598,895,-1566
1374,-7131,-4206,4630,56,935,-1498
1375,742,-5218,6244,-809,-1128,1032
1376,4275,4271,2574,874,382,-1141
1377,-5623,2650,1475,1691,-1277,-401
1378,-2933,1109,-5629,259,-849,-614
1379,-7685,-3718,2510,1235,1401,-1094
1380,-1302,2976,582,1694,495,-909
1381,-4080,-5810,491,-1373,204,-1942
1382,-6025,3691,-3875,1257,513,1970
1383,-3270,4182,-3046,523,-610,-1815
1384,3429,-7504,-1133,-1808,1583,1266
1385,6529,1494,-2336,847,-771,-245
1386,-4271,-4618,7541,-1752,-370,-10
1387,3266,2608,3450,-810,1372,-343
1388,5233,2766,1995,977,-264,1822
1389,47,7869,-2382,-171,-749,-1017
1390,2830,3286,5142,1022,85,1310
1391,1728,4708,3849,936,-1233,-284
1392,-927,-242,7760,1083,868,661
1393,6052,1999,-2149,-1938,-132,-1358
1394,-4734,6740,-5154,-1635,-1065,419
1395,-2815,-5933,5448,-551,-1797,1318
1396,7393,-4888,2621,-782,129,264
1397,268,1264,-2136,-1127,1135,-564
1398,-1329,-7036,-3722,420,1576,763
1399,-1569,-2562,-6760,-986,999,22
1400,-5086,4429,2710,-1546,-930,503
1401,-2032,7308,-4077,-310,-1483,328
1402,-5452,3714,5759,1183,-1574,505
1403,-3430,-7631,4027,-1124,1537,-1188
1404,2356,2480,-5251,-1033,1228,-620
1405,7726,339,1248,841,1821,409
1406,-6563,-5775,4012,-1548,-1339,1077
1407,-5269,2316,290,-299,945,-1844
1408,-685,4743,-7129,955,-1561,-1344
1409,2337,3795,7335,-135,756,226
1410,-2158,62,-6860,-565,1362,-1971
1411,3252,-7740,4203,1148,1407,-1465
1412,6799,-5754,-1586,-1545,-1033,-919
1413,2007,565,-423,-446,77,463
1414,-6008,-6967,-4362,1078,-914,-562
1415,-7855,-5603,-2340,1987,1106,1948
1416,-498,-1520,-7011,1322,-1898,1304
1417,-769,-955,7490,1184,-366,-347
1418,-3744,-2874,4371,527,-1771,623
1419,1572,7430,1833,-124,-174,-1630
1420,4664,-1872,724,-1677,-938,-629
1421,-2849,4782,1559,-851,113,-1910
1422,3286,-2557,3244,-962,1089,491
1423,-5105,-7419,-49,-1860,-638,-1115
1424,-986,282,-3651,498,462,1201
1425,7732,-3927,-1503,894,-906,-508
1426,-159,4432,4748,-1435,1245,1816
1427,2410,-2123,-2220,1481,-1677,726
1428,-991,-1429,-5223,585,-664,-1578
1429,-7843,247,-2743,-540,820,192
1430,3444,-5947,-5523,1434,-1396,440
1431,4013,567,-3872,-4,340,803
1432,-6974,-1261,-5209,850,1119,1886
1433,-5145,-3152,7910,-1707,-560,1586
1434,4055,124,-4380,-1308,-1585,-1924
1435,-6601,1245,-7038,-1537,437,268
1436,-6525,-6724,-7210,1991,604,1445
1437,-6801,7878,4644,-1516,-34,88
1438,5880,-3008,5626,1367,-913,-328
1439,5097,5968,5650,-1064,-647,-1842
1440,-2475,-2223,7999,1231,1941,-753
1441,-7737,-2824,-3381,-698,389,1117
1442,-970,-5005,-3800,1041,-1574,1783
1443,-1981,-6330,4063,511,-1881,-1593
1444,2273,-5824,1023,1093,-726,-1510
1445,5457,-3974,6381,-1181,1399,636
1446,3719,6955,-7475,-13,1512,-61
1447,-4816,-1454,6762,-110,-910,-382
1448,-793,7081,-3236,-1148,-1193,149
1449,3751,-658,59,-445,1328,549
1450,2943,1168,-5240,1863,775,304
1451,-6449,7707,-7924,583,-1902,-1456
1452,-3573,-5984,2204,-1979,-867,868
1453,520,7049,5441,481,-624,-912
1454,3556,-129,615,29,-70,240
1455,-1685,6668,-2594,-592,-214,1652
1456,-6954,4878,-4936,379,1942,-282
1457,-4122,2882,-7217,-1665,157,-638
1458,6058,7571,-4847,1745,-872,-384
1459,-6907,-1564,762,1876,1436,1505
1460,2985,-884,-4555,-1635,-1080,-1252
1461,-5789,-6130,-7432,1069,-1200,949
1462,905,-7889,-3464,1303,1884,637
1463,5126,-7711,3114,-1423,897,-572
1464,-5387,-5708,-1259,8,380,1883
1465,5103,-6807,-4992,-1218,1974,-334
1466,4541,172,-2099,-1900,120,184
1467,3207,-2546,-1591,-601,741,1785
1468,1814,-1761,2187,137,1460,1281
1469,3434,-5024,2589,-25,-580,84
1470,-6418,7341,-7162,1371,-1685,1449
1471,1773,2744,-707,40,-1680,936
1472,1373,153,3522,-1181,-1779,-1699
1473,-1702,-5114,152,1956,-764,847
1474,-6114,-3273,4150,69,-1167,-770
1475,-5674,-370,6318,-376,-1204,1068
1476,-1542,2565,7357,-106,1371,124
1477,6489,6610,-5722,7,-430,1653
1478,5241,3866,3123,-62,1797,-408
1479,-2431,6792,7330,990,1908,-1949
1480,-3592,-5933,-664,905,-1389,-1209
1481,-3937,-3246,-2512,447,1888,-967
1482,-7788,250,6489,1896,-1996,-780
1483,3271,-6696,-1626,488,-11,-405
1484,-4432,-7485,5652,-487,-221,671
1485,-2208,-781,4483,23,1945,451
1486,-1917,375,-3930,1821,-1537,-660
1487,-781,4271,-1034,596,1292,-1324
1488,4409,-7577,1690,-1932,1216,85
1489,-2038,2133,-6885,763,1086,-1964
1490,-4162,6563,596,-984,-1751,202
1491,-1895,6607,6397,-963,800,-1678
1492,6994,-1373,7781,-118,586,342
1493,7285,285,3819,-890,938,-1272
1494,1446,-5383,-2166,156,1480,1726
1495,-7122,-7161,-2600,-381,-280,1601
1496,-4751,7807,-4652,1424,-1723,-1357
1497,-3555,-4244,5893,1498,1823,1122
1498,-6180,121,-4171,355,42,139
1499,-6342,3056,5624,-985,-884,150
1500,-42,-6904,7474,182,1241,37
1501,-3134,748,1711,-1314,-1031,-1370
1502,2531,2101,-3260,523,1231,1254
1503,-3256,-850,1775,-1540,310,-300
1504,3552,7032,5326,-1716,-82,-1938
1505,2476,7166,-5800,1337,1084,4
1506,-3802,6305,2550,-1991,-1405,-1045
1507,6685,-1295,-6235,-880,1210,-1707
1508,5753,102,1605,-163,-343,1822
1509,-7495,4959,5207,1547,694,-727
1510,-772,6129,3032,-701,1508,1099
1511,-3876,-7174,4283,1947,1428,-1777
1512,-5525,3150,-2022,181,-461,1493
1513,1519,-7062,-476,-850,-74,-1299
1514,-4965,-6199,-1181,-1882,1780,-1655
1515,-318,45,5564,-387,1539,-619
1516,783,-6893,2100,1993,-1228,1203
1517,4484,3173,1897,1112,-483,1519
1518,4323,-3137,1123,-394,-468,-1933
1519,-1685,-2257,4912,281,1391,-1428
1520,2699,5678,3016,-429,-1327,1428
1521,-7539,-224,7813,1126,-62,935
1522,-1031,414,2399,-878,-1118,-372
1523,-802,7211,4551,-1394,1788,-600
1524,-5906,-1833,6418,972,-1151,1608
1525,1070,5673,-5954,-508,653,29
1526,2877,-3531,6344,-1116,-615,-404
1527,7159,-6254,-6855,1202,964,-604
1528,6424,-3885,-3049,993,-394,-164
1529,-5352,7641,6082,-1090,820,-1505
1530,1473,-5467,7727,1540,-827,-1669
1531,897,7896,-6299,1609,-1290,195
1532,1515,-6936,2517,1307,1103,1475
1533,5550,-201,-7554,1854,1379,468
1534,-7225,6084,399,-1139,-1752,-1301
1535,-7793,4342,2452,1528,1646,1446
1536,-463,-5592,7613,1378,-1100,-1892
1537,-7832,7282,-4109,-536,-1009,-642
1538,696,-4976,-7940,-829,850,-287
1539,-7713,6895,3392,-428,880,427
1540,5707,4314,-3787,-178,-105,-696
1541,4148,6509,5008,639,-305,-385
1542,-115,7651,-3436,-1305,1629,-1972
1543,6517,-1815,2489,396,558,1417
1544,6572,4045,5146,1114,486,1951
1545,-7486,-5950,-851,-1278,-1760,726
1546,-7364,3339,-5998,236,-736,286
1547,4648,-6749,6259,1627,-285,1530
1548,-3438,4009,-4948,-1061,-1616,67
1549,-1091,-6114,-5329,822,439,1584
1550,1483,7521,1707,-694,-1953,-357
1551,1447,5967,-1004,-787,1492,-803
1552,6918,6018,2831,415,1721,1399
1553,-126,64,-202,283,309,-1257
1554,-2446,-4560,1475,886,-1603,1891
1555,-2710,-4025,-1380,267,-494,1073
1556,6874,4564,-2535,-625,-319,-931
1557,-6722,-273,-5439,-175,-64,-1810
1558,774,385,5885,-385,-1548,1340
1559,-2210,-2208,-1032,711,-1657,885
1560,4052,6738,2011,-1482,-380,-241
1561,488,6970,-2831,-1405,1340,271
1562,6960,127,3777,-101,-1642,422
1563,2571,4466,6469,-1576,345,730
1564,-7654,-4094,5739,-1420,-733,98
1565,-1956,5880,-4917,-924,-787,1127
1566,4085,-1806,614,-127,1804,-301
1567,7509,-1376,4037,87,1156,914
1568,7167,-6441,7757,1898,1909,-184
1569,-5269,2846,-6041,-304,-868,-1547
1570,-3013,-2280,-5690,-446,1784,129
1571,500,-6742,-24,399,-1332,62
1572,5488,-1057,-7090,1147,635,-1304
1573,-3228,-4027,3225,-760,683,1632
1574,5196,1605,-4420,-980,-881,1647
1575,2105,5041,2664,-149,-1989,145
1576,2571,2548,7648,1951,1167,1451
1577,1801,5772,-3847,-1955,694,741
1578,-3682,695,4547,-1514,-334,-1820
1579,2904,-2774,-118,448,659,-276
1580,-3763,6202,5870,-494,-172,1445
1581,-1811,1717,-5875,-1570,-1163,-1023
1582,-1436,-7719,6567,1565,-1453,-917
1583,-4883,-6679,-7918,-718,-1894,775
1584,-2559,5457,2159,-1393,1528,-96
1585,3566,5336,3898,1893,1695,133
1586,-4456,4886,-4610,193,-1161,-1478
1587,-6155,-927,4885,-1540,1619,-14
1588,-3093,-2241,-6012,1915,-232,-1087
1589,-6745,-3387,-6861,1322,1442,1807
1590,756,1807,352,-925,-271,-617
1591,-7679,7187,6296,1440,639,1381
1592,-1010,3292,1816,546,1368,-907
1593,6091,3842,2386,-765,-674,-763
1594,-3587,-4291,-2338,-1199,-603,1483
1595,2263,3014,-4936,-687,-1400,-1742
1596,-3955,5966,-1918,-961,1308,505
1597,-6685,3726,-5745,-83,309,45
1598,-6244,3563,5446,-823,-1979,-643
1599,-6742,-7978,912,1654,1114,-104
1600,6706,-3634,3378,242,956,-1722
1601,-6960,-1458,1716,-963,1496,-645
1602,-36,6038,1273,1634,-1143,1638
1603,-3268,3624,2934,-1348,962,1523
1604,-4291,3839,558,607,1771,-1960
1605,4114,-448,4866,665,-1150,-737
1606,-1863,2844,578,1695,-82,-873
1607,4356,-6198,-2147,1156,1468,659
1608,7246,-4229,2162,983,1959,-697
1609,-536,-3589,4967,-1095,-1967,1861
1610,2863,3146,6107,1280,1835,-1557
1611,7243,3278,-3312,1049,1434,-868
1612,3420,-1803,7890,-9,1451,-743
1613,4800,-687,-77,-1629,117,1317
1614,374,4133,3534,-8,-840,495
1615,-3739,7626,-1537,788,-549,-195
1616,2590,-2464,-7114,841,1798,-1874
1617,19,-4003,-3278,714,-687,-1000
1618,7748,-2512,-2635,1888,903,-1982
1619,-3269,-772,-1545,357,-523,1599
1620,3740,4819,2639,829,-1809,1730
1621,-1133,2275,6205,975,-465,-1857
1622,-4838,6247,5932,-1991,-1418,-622
1623,-4973,-3050,5940,34,1059,-887
1624,-4835,-2818,254,954,-1797,1425
1625,-151,-561,-6512,-1225,-440,1335
1626,2561,4228,4973,-680,-593,-1734
1627,-2635,-903,3843,-586,-1741,-1531
1628,-2685,-3558,5007,536,1840,1062
1629,-3449,-6410,-2318,-1392,814,1759
1630,-2254,-6673,949,702,-696,950
1631,-4776,-3979,-715,1988,-1429,-392
1632,6980,-1098,6285,1908,705,-975
1633,-5908,3626,-6817,987,1428,-777
1634,4941,3647,207,-1127,1360,872
1635,-7830,-7937,-1833,-1458,-498,1278
1636,205,-592,-3066,-9,825,488
1637,-5286,7726,6539,-1074,-1617,1153
1638,-5205,-6883,4554,-1245,-1128,-64
1639,-4292,6713,6519,-1738,649,538
1640,2099,4047,-4592,-1409,-322,1132
1641,-3334,1355,-154,1727,-728,-237
1642,2735,-5428,-4741,1983,-1917,-415
1643,-1339,-7158,-991,-1681,-1973,-1591
1644,6428,-6656,-4142,-1378,-1990,943
1645,4380,-3854,2972,350,1703,326
1646,-422,7805,4822,-1851,1890,-76
1647,7956,-6180,4512,-340,1043,1349
1648,-3259,-3520,4355,-413,-1350,-23
1649,3248,3848,5961,1135,-1839,-479
1650,-270,1952,7923,-1572,1355,876
1651,7921,-6189,-7484,1606,-1208,-1945
1652,-6447,3265,3860,878,85,-89
1653,1409,-1040,-7813,-434,-735,788
1654,-7044,6583,5822,1334,-1978,300
1655,1828,2846,-6652,1412,-1646,1525
1656,5079,1766,-667,-19,500,836
1657,-216,5050,3121,934,-409,1181
1658,6038,-2527,877,-1862,1169,905
1659,489,-5568,-5852,1389,740,932
1660,3203,-2228,-7699,-386,1476,1598
1661,-1313,-4074,-201,170,-1581,-1968
1662,-3696,-5413,-6938,-1373,547,-726
1663,-1772,1061,1909,-123,1364,733
1664,-2458,-6141,-3872,1451,-1199,1019
1665,-6556,-1184,3722,110,1814,252
1666,-7129,5772,-1779,700,-1434,-1792
1667,-6311,-4624,-6771,-1021,-1625,-96
1668,3913,-6869,4544,258,826,1405
1669,7699,5547,-1363,689,446,-3
1670,-1706,-287,-5181,1109,-1441,-687
1671,4418,-3335,1859,-985,-1007,1005
1672,-4378,-1483,1618,306,322,792
1673,6692,-7776,-3027,-164,1520,332
1674,-1656,-2451,2367,1932,-1494,590
1675,-5647,-4884,5926,-1572,-292,-1781
1676,6198,-7916,1414,-1265,443,-1005
1677,5524,-2255,2052,-1101,-1255,742
1678,-6661,5423,3375,-1828,1339,-747
1679,4039,-727,-893,-1020,-37,1450
1680,5088,-2575,-5533,-1280,1290,1866
1681,-6562,817,4528,-1916,226,606
1682,931,-3412,-6018,1236,667,396
1683,2962,-2483,-931,-1395,719,333
1684,6556,3953,6188,516,590,-1380
1685,-6059,2523,-7615,1226,1841,-1771
1686,-774,-7928,3279,-15,36,1222
1687,2164,2249,-4028,-1494,-1023,-1928
1688,-2042,-6736,2005,1287,957,536
1689,-5761,-687,2139,271,-951,1186
1690,6905,7677,7671,-1450,132,758
1691,-2583,4403,7338,-1749,417,250
1692,155,2848,-7325,-863,-1656,-1985
1693,-5614,1994,4816,-1467,-1583,1611
1694,-2300,18,-3718,436,801,-796
1695,3378,-5527,2486,-1017,61,-1445
1696,-370,2235,-4396,-373,-1451,-742
1697,-3910,7085,-3362,-335,-1217,42
1698,1352,2922,4432,81,522,571
1699,3719,-5649,2525,1301,909,-719
1700,6017,5070,5236,1374,1951,765
1701,2323,-3449,5206,-797,-576,-1579
1702,4530,-3626,-944,1060,-1888,-279
1703,1307,-1160,977,-1918,1836,1680
1704,-7732,3070,-6132,675,1273,-152
1705,-3810,6437,-5375,35,-1477,1893
1706,-6294,-3084,4558,1656,-153,-1733
1707,6248,5699,-414,-1165,-1350,772
1708,6993,7955,-1649,947,-678,1366
1709,7691,6539,-7024,-328,-661,85
1710,-7010,3336,-1939,-853,1435,-372
1711,6182,7722,-1464,-598,1765,370
1712,2999,3087,-3546,-237,-839,-1878
1713,838,-1220,-4425,-1955,-112,-1401
1714,7823,1122,-6567,744,285,265
1715,1665,-4801,6643,-1217,-1420,1332
1716,5479,-7729,-7212,275,-1544,-867
1717,7271,-60,151,1648,-1287,1410
1718,2359,4230,6078,537,1849,1987
1719,-6517,3882,2428,-363,1228,827
1720,1811,-6993,1463,-900,-1849,1548
1721,-139,-5032,836,1037,1602,670
1722,3178,2479,3648,-1041,54,-955
1723,-732,-4781,6009,-1923,-1586,387
1724,-5187,5145,2482,1578,-959,1557
1725,-1744,-4166,-5116,-1697,174,985
1726,1462,-6238,-7455,336,-527,1268
1727,-4440,2191,1034,-35,-1443,385
1728,-6032,-2867,-1242,-96,-259,543
1729,3444,958,2295,1350,-1624,-1446
1730,-6006,-3216,-7664,283,-1086,-1198
1731,-3667,7234,-2035,-1887,-34,-480
1732,5223,5513,2525,-1560,-1383,329
1733,-4143,-5332,5873,-883,1208,1504
1734,-2014,810,-4528,-489,902,-641
1735,-3274,3131,5580,-1140,-1058,-255
1736,-5449,-3422,2218,1443,-260,471
1737,-7972,-6973,-118,-929,1340,-652
1738,3943,149,-4217,-47,-618,-589
1739,-6146,-1691,723,816,1947,-1734
1740,7868,3254,-7785,913,-1702,-733
1741,-5193,-7352,402,212,-1433,1751
1742,-5287,-6880,7929,-1804,1107,-845
1743,-86,7847,-1871,-1988,-360,-1104
1744,-2962,-3304,3956,1739,-1139,20
1745,-481,-5769,-1598,341,1545,-1160
1746,-3098,4829,-5662,680,-1776,-1266
1747,-2850,7244,3567,-918,1853,1228
1748,6799,-342,-4694,-787,-473,-1409
1749,-2935,4823,5137,452,-578,-552
1750,-3530,-1206,3386,928,-1877,3
1751,-1506,-117,2825,1135,-720,1042
1752,357,-6088,-2523,-1460,-767,675
1753,-2572,-5519,4960,-1795,1485,-1279
1754,2317,529,-6915,119,971,1457
1755,-5165,-6270,3515,1850,-1392,138
1756,-2095,7209,3261,1971,141,1677
1757,-5635,-7816,6828,-1331,1181,-329
1758,-7563,-5797,-2307,1860,-698,1374
1759,-3763,-4627,5002,760,682,-1080
1760,-2760,-3097,-2564,26,-1361,-1071
1761,5656,3908,6799,296,-1069,-1442
1762,704,-3020,3357,-1986,-250,-1440
1763,4073,-968,6578,594,-1694,-641
1764,-4368,-1874,-1391,-1717,1431,1653
1765,-2116,-7035,7203,-1041,-1007,-1751
1766,-6021,-6882,2789,48,-548,-38
1767,79,-5181,685,978,-143,-468
1768,5386,2413,533,-186,-18,1801
1769,5208,-4090,3265,1858,-1400,1672
1770,-3778,-5275,-3553,488,-266,960
1771,-4662,3928,-2417,-956,1505,1691
1772,-2429,4041,5927,975,916,582
1773,518,7531,4850,-1743,1309,-183
1774,-2788,-5095,-1901,1383,-1548,-1462
1775,3603,7626,-5451,1681,1245,237
1776,-7504,-3479,3447,1588,75,924
1777,5763,3581,-1101,-534,491,1326
1778,-5582,-685,-3910,1820,793,1328
1779,-7821,1052,-2814,-68,1198,435
1780,-3802,7986,7931,729,-858,294
1781,-6917,-2508,5948,-436,10,-162
1782,-4847,-6395,-3655,-1770,1126,552
1783,-4453,-1495,7342,-1335,-1481,-422
1784,-5983,-1526,-7331,-1615,-1269,271
1785,-4146,-7277,-5343,1158,-1505,1488
1786,7865,-1140,-1864,-1177,1103,587
1787,-162,-6040,-7646,-693,-859,376
1788,1946,6634,1722,1308,-1256,873
1789,7284,7024,7650,-104,1909,-1278
1790,-7366,3319,4000,-507,-866,-1623
1791,1,-3825,-2080,-169,1682,-1155
1792,7635,6362,1301,587,832,-743
1793,-4077,-5554,4666,1792,500,-528
1794,5480,898,-1495,667,677,-832
1795,-1897,1095,3181,-1834,737,1361
1796,1316,-6382,-2867,-432,355,1385
1797,342,-6257,-3706,405,1181,210
1798,-402,-1689,2683,718,-725,1642
1799,-461,-4631,-2221,724,1551,-1145
1800,3598,1701,6130,1106,1424,-842
1801,3320,2467,4246,-205,128,-839
1802,4409,-29,-246,1191,-856,-1763
1803,2826,-6305,2103,254,-1970,113
1804,4320,2511,-5177,104,1962,1138
1805,6833,6552,3786,699,54,-808
1806,5956,2625,-46,1332,855,524
1807,2399,2239,6126,815,-236,1910
1808,-6419,-4428,-7985,1009,1696,-1521
1809,6056,-5721,3584,1145,872,1474
1810,4919,-1818,-5836,-529,-1104,-1280
1811,-5494,-1895,-1764,-604,-7,-1891
1812,-1465,5149,-4008,178,-1251,-710
1813,-3197,7027,-598,-1420,-1455,638
1814,-7784,5143,3055,-488,59,-520
1815,-448,1234,3609,-244,-32,228
1816,7696,4832,3649,1232,1003,-953
1817,-2352,-2105,7673,350,1296,-1207
1818,-3654,-2925,4716,1890,727,-1984
1819,-3545,-2659,688,-130,96,-1288
1820,1863,1185,-5362,481,91,-566
1821,-462,-2095,2207,-282,-1870,640
1822,5591,-1716,4646,-1301,695,-1184
1823,-2703,-7799,-5533,495,985,490
1824,7845,1458,5418,-851,-417,1768
1825,788,4345,7485,-845,627,871
1826,1704,1645,-6090,-284,-688,-1128
1827,6968,-4831,1094,-1834,1783,-1260
1828,-1965,2897,4797,-1675,-70,-475
1829,1172,6304,4803,-1664,-893,296
1830,-5091,-6300,-163,285,1964,-41
1831,6426,-1057,-6975,1370,1127,-1110
1832,5944,-378,3880,614,-502,359
1833,2222,2985,-3645,-74,-157,0
1834,-7209,-6582,4592,-1971,929,-664
1835,2342,1773,-1518,1054,-1731,-1826
1836,7394,-4772,-7385,969,78,1879
1837,1704,5192,-2660,-724,1085,1756
1838,-3527,-6131,-2140,23,1125,-99
1839,3470,7771,-2000,215,-1648,-1442
1840,-3087,-7107,-4411,-1729,-1348,1808
1841,-5602,-6978,-396,365,-975,1856
1842,-2418,-4764,-4879,-282,536,1584
1843,5890,5536,-4904,1738,-1453,-683
1844,-7009,-5056,4709,-1087,-1497,415
1845,-5720,6546,-4897,-562,712,453
1846,-7573,3207,-3754,-120,-1426,500
1847,4587,1254,-6589,-1788,1872,770
1848,-6928,-6775,-1966,-1218,34,1639
1849,6143,1666,-1605,1416,-1032,-726
1850,-6093,-2231,-6504,1214,1758,1453
1851,7728,6904,-4804,-1243,-7,931
1852,-2885,-1631,-2296,-1341,-1465,-299
1853,-4625,-6903,2458,695,-927,1599
1854,7221,-5560,-3114,1870,486,629
1855,5732,1636,2063,240,1963,-948
1856,-1236,-4391,2208,-1934,964,1446
1857,-4038,7953,6418,-874,1464,78
1858,-6160,1523,240,-1081,185,-1497
1859,-6164,-344,-2869,-456,-281,-945
1860,-1993,-4353,3932,-687,-1544,1344
1861,-5212,-3495,5297,-637,985,1812
1862,5510,192,-4674,919,-1847,1198
1863,3473,2912,-5189,1065,1984,-979
1864,5357,-1175,-2655,-906,1642,-1469
1865,-7819,-957,-1784,-9,1996,1606
1866,4899,-1781,1993,-144,-501,-880
1867,-6427,-7975,4870,-1659,-957,-462
1868,2617,-431,1824,-1317,908,-1493
1869,-5974,-4613,-2607,-1169,20,1815
1870,-6065,7318,905,1946,-1834,492
1871,-2254,-1580,4987,-572,-240,755
1872,3604,7991,6487,-73,-389,1126
1873,4136,4801,-6440,-1633,-1924,1757
1874,-6870,4916,5335,-1013,-1595,-226
1875,1239,2220,-7119,-1510,-1161,1847
1876,5209,-2450,5308,880,-896,1095
1877,5533,7622,3395,1425,1185,1874
1878,5234,-4721,1576,371,412,-599
1879,-4361,-6136,3278,1272,1284,-419
1880,5279,-4088,-2685,-1019,129,-1685
1881,-7434,-7708,-297,703,1947,261
1882,7198,-1324,-5942,1900,885,317
1883,1675,-2355,7133,-395,-1006,-1987
1884,1356,7927,7920,1497,1845,589
1885,-4703,-6515,-2201,207,-907,-1302
1886,6473,3947,2821,-1233,-113,67
1887,2182,-4522,-6114,-1223,-417,-1903
1888,-539,-4433,1577,699,-23,-14
1889,-7380,-1010,3262,-1777,-1753,1292
1890,-7410,4369,7646,1431,671,1367
1891,-4998,-5543,-2818,187,-868,881
1892,7405,4528,-2183,57,-1801,435
1893,5643,-2164,1143,-572,1894,-604
1894,-7497,-203,-1026,-4,920,-1639
1895,5115,5153,3079,-1071,1740,-1163
1896,4465,-6326,-2006,-361,43,-902
1897,-7382,6643,-1251,1366,1719,1915
1898,4661,1171,-4477,1074,409,1365
1899,-667,3628,4928,-1946,-1954,1481
1900,7718,-3503,7236,745,1210,-860
1901,2236,-6302,-6990,1619,1479,-1171
1902,-2783,1035,4369,-97,1950,-1523
1903,-6040,-4858,6101,1856,771,-1097
1904,6250,3975,-5758,506,-624,1371
1905,-2546,-3377,-4343,1658,1649,-97
1906,-1093,5143,5416,-1025,402,381
1907,667,-5799,4876,-1125,-647,1260
1908,1091,7695,-3374,1362,249,982
1909,-2875,2005,5241,842,282,190
1910,7619,4415,4332,942,-896,-24
1911,-5028,-2902,-3330,-1868,-359,-1145
1912,2628,5930,4123,1581,1658,-1587
1913,-4083,3862,3648,72,1213,1970
1914,2249,-4957,5837,-412,610,353
1915,-7401,-4454,-5739,1349,1371,-690
1916,-3307,-816,-190,-1625,1116,215
1917,1961,-4936,4899,-1916,-487,1009
1918,3930,1819,4367,-139,-1423,-95
1919,1494,4837,-1080,-195,1741,-1046
1920,-3214,-3452,6144,1285,202,-1911
1921,6289,3606,5523,-770,422,-327
1922,2189,4498,5807,1408,-1467,-222
1923,-2128,-333,-6860,-633,768,-1419
1924,4573,-5739,-5278,-963,1139,-1510
1925,-34,-6605,1878,1066,1173,1617
1926,-6027,-882,-5036,-437,-1890,1254
1927,3353,-5087,7837,407,694,1050
1928,-1330,6433,-5759,-1650,-1104,-919
1929,6532,-7142,-3878,601,1138,667
1930,-7436,-5186,-5160,321,-183,505
1931,-7475,-2908,3248,564,692,-1774
1932,7612,-7660,-110,1200,-190,-1686
1933,7839,749,-4525,-190,-79,-532
1934,1036,7635,-3418,-1020,1995,-504
1935,-7445,-1968,4518,-1631,-363,5
1936,-3956,773,5125,94,1716,-1760
1937,-2339,6589,-4705,-917,340,-596
1938,6700,2816,1115,1886,-1920,461
1939,-1073,2647,7052,1576,1628,-874
1940,4061,-7229,-7873,1728,-209,-1265
1941,-5217,-3605,2824,773,341,-862
1942,3642,3229,-3967,480,614,1895
1943,-2961,5459,2704,691,598,-175
1944,-6160,1040,4181,-127,352,-1233
1945,-659,6737,3500,-452,1973,1945
1946,-4131,3981,1893,-970,1526,-191
1947,-743,132,3982,-1134,-337,1793
1948,7728,6113,-5450,-441,-1508,1470
1949,4647,-4159,3052,555,-1067,-1477
1950,-2016,5758,-1673,205,-1516,-1254
1951,-6592,3986,3718,762,747,-563
1952,-634,-3645,2765,904,-1,-638
1953,6153,3416,-5191,178,1886,-1376
1954,-532,-2945,5433,1556,1068,1056
1955,2834,6285,-1856,-986,-582,-1189
1956,2230,2842,-4106,554,1521,-198
1957,-4056,5868,-2804,-1735,-1173,-1665
1958,1449,6305,-4542,-448,1991,600
1959,-7428,1375,4474,996,-814,209
1960,4861,-2615,-3205,99,-425,1269
1961,-4832,6329,-1448,286,-99,-1422
1962,-3081,-7022,-6208,1697,1023,-876
1963,-1981,-7550,-719,930,1110,-1694
1964,-4853,4111,4121,-71,-1260,129
1965,-2921,-4295,7030,-1142,-231,-1992
1966,1237,-6647,1230,856,-1120,-1012
1967,3622,7739,229,1916,-88,-390
1968,483,-5545,2861,-766,-384,-1367
1969,2234,-7986,-2983,-564,1729,154
1970,-238,5954,-685,-42,-835,-1849
1971,-1438,5949,7004,33,1482,1285
1972,5142,-1156,3445,1403,-1665,1801
1973,-7906,-6855,-6233,-402,-86,507
1974,-1207,-7835,-6311,841,466,-1378
1975,-6935,6214,2279,-1024,126,713
1976,-4128,-2519,2394,-1581,715,836
1977,-7267,-6686,1335,743,-191,-184
1978,3800,2501,7918,-255,-800,-1393
1979,7613,5602,5454,-1232,1159,1418
1980,-368,4871,171,-1715,-766,-1028
1981,5103,-2836,3279,1769,1974,-665
1982,5432,645,-5563,1813,1246,1130
1983,-4065,6226,-6416,-1469,-1574,1680
1984,-1521,-6755,-853,1476,476,-798
1985,4749,1982,2640,930,-1806,1935
1986,6443,7377,1094,-1483,1873,-1198
1987,-7421,-7994,-1908,1889,1389,53
1988,-4875,-5412,-5579,1832,575,-343
1989,-7690,6523,6828,-373,-698,802
1990,-4748,-7626,-7811,1881,-458,1184
1991,-779,-7274,2151,1516,1648,397
1992,5570,6758,-904,800,1793,1073
1993,-6455,3524,-3260,939,255,-1008
1994,-1460,-7396,4937,123,1217,1897
1995,3331,2734,-4532,1130,-151,7
1996,4058,-2116,674,-189,-1087,1607
1997,-5558,-4271,-5093,860,351,-1271
1998,-7485,-6867,76,-1687,-102,175
1999,-692,-4795,3716,-1717,507,-486
2000,-5249,5403,3697,944,-1310,776
2001,-4975,-5401,-7899,-614,-1426,-1781
2002,7349,-2674,-7735,-560,509,686
2003,7572,1131,2426,-1267,1636,-644
2004,-7821,7828,-2201,-908,-405,380
2005,1048,1496,7078,1773,1942,559
2006,269,2301,5082,-1920,-1855,-809
2007,4560,-6507,7339,-1274,-1081,476
2008,-1656,-5738,-7065,155,157,-513
2009,-6010,-6281,6347,-410,494,-1584
2010,-1399,4848,3580,-1125,-977,-1884
2011,-5388,-1632,6938,-1093,487,-695
2012,-3106,-6156,-6586,557,-1795,864
2013,3575,-500,-4918,-1323,1834,-900
2014,-4372,-4941,2413,-342,863,-834
2015,-358,-6212,3468,1286,1405,-1619
2016,4085,-6883,-116,1519,579,693
2017,3267,-880,4297,1857,-1899,-1719
2018,3293,-6475,4362,1153,727,-1886
2019,-6883,2586,-43,-1394,-1487,359
2020,-6490,-5121,6774,720,-939,-113
2021,-2268,-733,3585,-1134,-61,422
2022,2461,-6784,5662,1147,910,65
2023,3854,-4797,-7510,-1429,1875,-1053
2024,-789,1997,6317,313,-955,1445
2025,-427,6338,-2592,-604,1743,1410
2026,1509,-4542,-4890,-565,693,-1996
2027,-3378,5338,2146,1089,-1309,1676
2028,-6489,-4413,-4191,1444,-51,1867
2029,-1849,-3227,2694,-290,-678,-1106
2030,-7172,6667,1473,-1738,-399,-604
2031,-7927,6204,-1750,-440,785,-1623
2032,-3309,-2468,4638,-284,1571,1936
2033,6623,-5902,-5109,-714,-1531,659
2034,-4997,-1768,1291,91,-1621,-1168
2035,6936,-2118,75,750,734,1190
2036,-1430,2061,5500,-264,962,1151
2037,-3746,-3008,-3539,-1878,-973,-142
2038,-2988,-4430,2182,-1586,1279,118
2039,-4112,5515,-5620,-1728,-272,-964
2040,-2911,-4764,-135,-798,1166,-823
2041,7046,-443,-6152,-1531,-495,500
2042,3743,-4226,1769,-478,-920,1335
2043,5287,-6799,-6816,-1848,-1183,889
2044,-3442,-2500,4792,1988,709,703
2045,5625,-3906,6433,-35,-1565,315
2046,2379,-2853,5889,-632,-1708,148
2047,5011,-7459,-5587,445,-1797,266
2048,-5024,629,5119,47,-620,1934
2049,-864,985,254,1407,-1359,-925
2050,7404,-4293,790,-1338,1926,-960
2051,-7107,7605,3476,728,438,-878
2052,41,-5262,-4441,566,1668,-958
2053,-2843,1017,2216,1182,1062,536
2054,178,942,809,-1051,1646,-1561
2055,-3944,4325,2117,-1905,-1025,-1852
2056,-5891,2065,2536,714,-1831,-678
2057,-2133,-3761,2706,-1964,893,-1928
2058,-5488,1168,-6333,1213,464,-835
2059,-1670,2032,-603,1680,251,-1036
2060,-389,-7487,5176,861,1439,1414
2061,5618,4271,7954,1374,-684,-89
2062,7207,-4493,-2647,-556,-1297,364
2063,6910,-190,-543,-1022,546,1694
2064,-6214,-4752,7256,1457,-48,720
2065,5574,7368,-7895,597,-844,196
2066,-5473,6383,5831,-1791,1639,-372
2067,5540,4443,-216,929,-784,783
2068,7432,6857,7698,118,1240,-1002
2069,-2894,7624,-7061,-136,-173,-1679
2070,-7597,-926,-389,1638,775,1758
2071,6613,-7148,3810,234,-651,-1281
2072,7895,6239,-5706,-1587,1244,-284
2073,1521,-6749,-4341,438,1956,-1835
2074,2552,-5759,5482,1719,1440,-1696
2075,-1332,-5556,-7681,-711,1772,-1098
2076,2784,-1379,204,544,1565,-1029
2077,6023,7803,2084,-1658,1038,452
2078,-3029,6814,3681,-1425,-1040,-1040
2079,-5413,6863,-1973,-917,21,548
2080,-5734,-3579,1903,706,171,-1746
2081,5111,6681,7199,-1224,-499,-306
2082,7194,4730,20,-1313,-65,1124
2083,6199,2302,2286,-435,406,346
2084,-3983,-2218,7966,-1258,1903,-1858
2085,-844,-4697,-5808,-1058,1794,875
2086,-7669,2003,-7444,-690,1140,-1071
2087,5751,-1063,-7517,1102,-1035,-1833
2088,6563,-2446,4056,-1621,1430,1766
2089,5383,-3646,-280,41,1956,146
2090,7036,-2451,-5229,635,215,1915
2091,1443,3548,5971,1761,785,-1755
2092,5635,5101,5025,-1715,768,-560
2093,-3074,2749,4718,254,436,-1721
2094,-5626,233,6925,957,1465,-1229
2095,-7127,6554,-5317,569,1771,409
2096,-3076,-4688,7691,-1529,754,1922
2097,-1672,2923,1459,200,-1328,-1867
2098,3935,2169,-5046,-200,-958,-653
2099,1905,4253,-278,-432,-503,-547
2100,6038,5651,-7162,1715,1334,665
2101,2186,-3429,5678,625,361,547
2102,500,6001,-5099,-919,1057,751
2103,-7045,1699,3489,1301,1749,-1917
2104,3491,-2263,-2669,978,-1119,232
2105,-204,-1949,353,187,564,-1170
2106,5855,-6065,-5887,1672,459,-1208
2107,-8,-6460,-2392,1903,-353,-554
2108,-6477,1485,1478,51,-651,407
2109,-7715,-5892,4581,-1547,1757,-787
2110,-6251,-6485,-7848,-1580,412,-87
2111,6542,4679,5989,510,-1516,-87
2112,2895,2308,6885,-575,1232,-902
2113,-2542,3278,-5861,1987,-1269,755
2114,7074,-7073,3923,-57,1503,-1184
2115,7319,-5929,-3800,-176,1057,-1647
2116,-44,-5320,4130,-97,-1920,511
2117,440,4623,-5128,954,1481,95
2118,-4261,-907,4402,-161,-1177,130
2119,-4446,-6426,6012,1663,1726,-431
2120,4253,-4933,-2624,1460,-339,-1837
2121,4528,6698,7440,1247,1116,1687
2122,-2758,-178,-1392,486,1719,1607
2123,7694,-4232,-339,736,-785,-963
2124,6669,-3980,-3172,280,97,-670
2125,2334,4687,-3210,-1017,-450,-1126
2126,4498,-6199,2610,1612,-595,1849
2127,6724,-2362,7058,-1247,-1453,1433
2128,-7482,-2438,-848,1391,570,-1359
2129,-145,7655,-1244,270,-490,398
2130,2799,-591,-4621,-248,-1398,-1446
2131,-5205,4959,-3189,-48,-1689,-1142
2132,5074,-6306,-5837,-516,-454,758
2133,-4885,5209,7468,-1484,-1861,-1188
2134,7569,3665,2281,394,-428,346
2135,6613,6299,-4818,-278,-954,-1295
2136,7942,7707,3774,-977,628,-892
2137,142,6784,3014,1001,-761,1438
2138,4790,7248,-6241,1083,-1961,-627
2139,-7506,-4253,7482,-346,-1312,1594
2140,5448,7793,-6100,841,-1716,1444
2141,-7496,-1511,7328,-1469,744,500
2142,718,5128,6098,1536,-1620,1432
2143,-4403,-2057,-2708,-501,-469,-211
2144,4726,-4972,-813,318,-200,-1016
2145,2414,3811,5986,1071,-204,506
2146,2162,-3851,-5810,-757,-751,460
2147,1150,-1130,5751,887,-1561,-177
2148,3458,3365,-4596,-566,-1098,880
2149,4060,4098,-2122,-107,921,1204
2150,-6831,-4257,434,-1957,-347,1745
2151,2729,7130,1948,331,14,-142
2152,107,-3334,-4324,1360,678,1543
2153,-6746,-4118,-3653,-875,1222,-1118
2154,-2781,1673,7392,100,-1132,-1085
2155,153,4450,1409,-828,-1876,-1067
2156,486,-6194,-3128,-717,-1525,-1250
2157,-862,-1137,2384,-621,-648,950
2158,-2503,4395,-1100,-482,1164,-1243
2159,-1185,430,-4663,-229,-1071,1954
2160,5599,757,2576,-132,-1311,-835
2161,1987,1245,1911,939,-1741,-525
2162,-4322,4478,2928,-1526,-667,1150
2163,841,-421,3464,179,-1625,-130
2164,-4029,7191,-807,592,1901,71
2165,4315,1513,4098,-233,-342,830
2166,7478,-2436,-596,-1837,1465,-641
2167,-1344,-3431,6114,-1572,-395,913
2168,533,539,-6431,-1740,-100,-150
2169,-2049,1733,6785,-1789,1209,1172
2170,-2644,378,5337,-1157,582,-908
2171,-4272,-5146,-7497,-603,-508,-1902
2172,3579,5253,-451,1169,1312,-1251
2173,-5819,-6016,4476,781,-1872,235
2174,5691,-686,-2240,-458,-31,1232
2175,-4949,-2191,-6782,-1957,-1923,-814
2176,3404,-7279,-2646,760,-254,1374
2177,5173,3354,4687,-880,-449,718
2178,-3993,6527,-5089,285,1011,1363
2179,-7499,-2601,6670,176,-33,610
2180,-2845,-2041,4688,193,-1423,-536
2181,-3924,-814,7549,-1571,-376,-1836
2182,-3362,-3183,256,378,1545,1019
2183,2828,-7150,-5837,-993,-1647,-1473
2184,-1034,-139,6748,1092,709,-262
2185,-6901,-7265,-6690,-109,812,1698
2186,-5493,2800,-6036,1870,-765,1528
2187,-2198,-1739,4679,1781,853,895
2188,4510,3023,-6395,-148,408,-595
2189,2700,4795,-2398,995,1775,1648
2190,-847,-4227,4396,-554,121,1403
2191,3339,4908,-4883,-30,-1122,-779
2192,-2059,-5836,2856,1651,1951,180
2193,641,1336,-5350,1394,1194,1774
2194,390,700,6278,-1120,-33,-995
2195,-1153,-632,-5206,-1973,-631,1166
2196,-3704,-4245,6870,-1450,-1451,-540
2197,-6261,-7304,1166,-1794,852,-1023
2198,-3440,-4739,-3502,1671,-972,-502
2199,-7898,830,-503,107,-329,-1816
2200,4198,-2390,-4822,-868,-235,152
2201,-6205,3830,4984,-1051,-882,110
2202,4983,-6727,225,1179,1805,504
2203,-3849,-1665,-7396,-1647,1376,-59
2204,-3752,-435,-4564,1895,993,124
2205,-4114,51,-4925,1560,-1492,79
2206,-921,-313,4737,1455,1561,1656
2207,37,770,-4480,1140,-79,1038
2208,-151,4832,-1880,1248,73,-1293
2209,-1290,1907,-2040,-1942,844,-1859
2210,-6516,-1374,-641,-91,1905,1579
2211,-7684,-4076,-6836,1784,-1302,-345
2212,-791,1562,-3033,-1824,1686,-927
2213,2820,2243,-4492,-1620,198,-54
2214,1402,-1342,-3056,1769,1236,506
2215,2897,2929,-5205,1953,-1808,350
2216,2076,-3259,5253,522,472,-190
2217,-24,6818,-437,354,-699,307
2218,-168,-2100,2122,-1010,1963,81
2219,-1323,-7994,6725,-1927,1616,175
2220,-6049,-3940,-3187,-1390,-862,1286
2221,-7251,5724,-6844,695,1642,352
2222,-6974,-7244,-4416,61,909,1502
2223,-2966,215,3202,1154,-551,-14
2224,3056,3160,-5476,-999,1574,931
2225,5369,-2670,-698,-432,868,-1760
2226,-1046,7014,7861,407,1493,175
2227,6426,-2544,-1773,-597,-629,164
2228,-7080,5469,4303,-1870,1326,-313
2229,-3260,-673,6873,24,-85,1016
2230,-4592,6329,-3953,1749,-108,1776
2231,2109,2243,5430,326,-646,347
2232,6348,3481,-6027,1849,-437,737
2233,-3027,-708,-7349,-416,424,-466
2234,5912,-2302,-2464,21,-912,-1223
2235,289,1217,6685,1109,-167,-897
2236,4437,7264,424,487,-1974,-808
2237,7879,7068,664,1437,-313,-1483
2238,-3543,1585,2145,874,360,-749
2239,-5426,5975,2175,-180,939,-660
2240,-3375,-1353,-2026,531,689,-1351
2241,7853,3265,-5395,536,1324,-1995
2242,-7978,2940,-7843,688,-869,-262
2243,7217,-5559,613,100,1558,1591
2244,7365,-7515,-2152,-1537,471,-1283
2245,-266,278,395,761,-1468,-1500
2246,79,-1719,112,-411,-413,1913
2247,7948,-4957,2215,1225,-1123,1225
2248,-5371,-2588,-3981,-406,1782,-1499
2249,-5534,6415,7735,720,989,-1706
2250,-7055,3011,3201,1370,1304,-1033
2251,-970,3209,2061,-1781,1808,35
2252,-6266,-4662,5492,1276,-1705,-1505
2253,2267,2178,7472,222,699,-1051
2254,-3331,-3317,6272,925,1652,1925
2255,1610,2845,-7990,-416,1013,-339
2256,4016,-7450,1772,640,1678,-1451
2257,5311,-1503,5581,-1465,-1942,724
2258,328,-394,-5541,54,-571,-1996
2259,3666,-2892,7421,-987,-257,-1692
2260,4525,-3884,-2818,-685,1507,-1209
2261,3314,4846,-6496,452,1642,437
2262,-1078,-1807,-7781,1063,14,-824
2263,4950,4195,1202,1505,-1811,-1732
2264,784,4239,-3999,1693,878,418
2265,6252,3492,-5860,1685,1219,895
2266,487,-7288,5409,874,-364,-664
2267,-2329,-7725,1132,1648,-1370,1369
2268,-4089,-1511,-1717,247,883,-1398
2269,-598,6838,-1291,-1762,698,-841
2270,-58,-1791,-3523,101,1821,-140
2271,-5999,1865,-6169,-885,1310,-419
2272,2746,2484,-1979,-1599,483,-1057
2273,2269,-3488,-762,1357,-563,511
2274,-4233,-41,1061,-554,-110,-1526
2275,-811,5609,-5397,-31,1759,-496
2276,839,4097,-5707,-692,-807,-652
2277,7525,-6705,924,-874,-1779,-6
2278,1944,-4100,6889,1069,-1546,1799
2279,-6187,772,-4894,1825,-1183,1179
2280,-5145,-3851,-752,-932,251,1392
2281,-7092,-2516,-4074,-471,29,504
2282,-1628,-6450,-453,337,-1536,-222
2283,-2038,-7765,-1053,701,743,-1714
2284,3180,5094,-2257,-734,-1133,-698
2285,-6509,-3891,-2533,339,-416,1619
2286,-1473,4011,6524,-30,94,1407
2287,6445,1737,2152,878,-1853,-1743
2288,-4305,-4765,2446,1748,-1543,1098
2289,6323,-3745,7484,-1633,465,-539
2290,-4494,-783,3392,1642,-1360,-1099
2291,4206,3997,1714,1438,1261,-1456
2292,3383,44,434,670,350,-95
2293,-4142,1554,-3527,948,1584,1490
2294,-6123,67,-7764,1585,-1257,563
2295,3513,-7294,-4938,874,-228,826
2296,-2440,-1992,-5894,-1393,-1401,1751
2297,804,4261,3227,-824,392,-1574
2298,4244,-7663,-4990,-590,533,-1969
2299,-2968,3334,-6456,308,488,224
2300,-511,-581,3019,995,1787,239
2301,-779,5813,4349,1892,1016,1053
2302,-904,-3225,-1621,-1192,-1531,646
2303,6418,-1112,1023,-1300,1593,1190
2304,-7147,-1726,-2529,-353,317,-1450
2305,-6785,879,2977,-1702,-1239,459
2306,-4159,-2679,-4956,-1139,-1464,-1109
2307,2165,2034,7118,-1798,1685,71
2308,4499,3189,1251,-743,-774,-920
2309,4487,7798,-2612,-719,1691,66
2310,-6857,946,5223,-716,-1540,-761
2311,7051,4583,851,-1063,977,-208
2312,6312,-3860,-7822,-461,1875,-442
2313,-213,-1336,3728,-963,1893,-878
2314,335,540,5212,-407,540,-1897
2315,-1402,-3033,222,-1220,-1550,-1797
2316,-1681,5383,4696,1478,1395,-1240
2317,472,-5809,4409,123,1437,716
2318,3891,-7903,3257,201,-1737,-1624
2319,-7263,5826,2941,-1974,-831,-1329
2320,4646,-5784,540,505,-1948,1963
2321,2493,5836,3938,-1621,563,100
2322,-6212,-523,6674,-1651,1656,1602
2323,-237,-7549,1790,1688,-1294,1025
2324,4630,-6449,-693,-1753,939,-550
2325,1457,3483,3442,-1457,-248,-201
2326,-470,-7430,-7060,-1740,-616,-1168
2327,-4753,2106,-4111,-689,1849,1791
2328,4919,-3517,3784,-1313,-191,1744
2329,4999,-2172,2485,1073,1435,308
2330,5780,-5140,4822,842,1873,1023
2331,1874,7929,-5756,1080,-1056,-1113
2332,1598,2828,-6180,-1870,-1643,599
2333,-4184,-4396,4943,1515,1734,1909
2334,2672,4336,-1541,1055,46,-719
2335,-3264,-848,-1461,1405,-1918,1768
2336,-7234,4113,2994,-1507,1711,-1992
2337,-950,-3581,592,1117,-1931,239
2338,-1373,-1632,-7955,-1525,-842,-1049
2339,-7556,146,-7033,360,-1455,1238
2340,-4819,-2003,1923,-1819,-1081,475
2341,5134,2363,2986,-1193,801,-542
2342,3912,-2157,1520,1989,550,467
2343,-6229,-6754,1855,655,-83,-1940
2344,1904,1098,6645,926,-1517,-765
2345,-1222,-6166,2049,-1968,-710,-978
2346,-1103,7196,-6059,-1662,700,-1087
2347,678,1158,-1541,131,645,669
2348,-4299,-2711,7096,-1503,-601,-162
2349,-6620,-6733,989,1336,-950,-1874
2350,-4206,-2627,-5927,1403,-1253,1109
2351,7975,-2843,-876,512,-1298,632
2352,-6482,7859,-114,1836,-746,1205
2353,-124,-4480,7245,132,1223,1099
2354,6028,7222,6601,1203,-303,-1445
2355,-3595,-508,-7293,556,-1702,1921
2356,7617,4846,343,1524,-1801,1202
2357,614,-4728,4499,944,-1836,-1468
2358,2109,-3476,-2581,-1646,-1764,-1309
2359,-2254,-3280,-2113,169,732,1194
2360,-1081,524,3659,-940,-1904,-1584
2361,146,-7815,-4022,1543,-1132,1130
2362,-227,-2742,948,-767,-1089,-1068
2363,-383,-1588,-3875,-122,-505,315
2364,3734,-4897,6482,-885,1741,1295
2365,-6612,6128,1880,427,1170,1042
2366,7694,-4801,2946,332,854,472
2367,-2487,6169,-7355,1085,-1400,-403
2368,-1577,-3300,4450,-1916,-1653,-616
2369,-3644,433,4647,-836,1871,-1621
2370,-7886,-1711,-1175,844,1691,1022
2371,-1127,2476,-7010,-1622,-1055,-348
2372,-2305,6759,-7613,-1212,-903,-263
2373,-5046,1039,6314,-401,-626,-827
2374,115,-7136,7653,748,-1186,-658
2375,-3231,5673,-5087,1795,1989,646
2376,-3815,-2486,2034,1422,-432,-32
2377,4123,1579,-4150,115,-1316,-122
2378,3326,-2228,-512,-1964,-1045,609
2379,-1510,-7829,-7456,585,-1091,-1781
2380,1553,-4569,7765,1830,-1116,-1774
2381,2664,-7798,-2255,-1405,-431,1584
2382,7677,-171,-969,-1184,-36,275
2383,-4824,4396,4115,-1965,-160,707
2384,5480,-3020,-3069,782,1386,-378
2385,-426,6850,3982,-851,1382,1431
2386,-1628,-5226,-3147,1,715,-1822
2387,-7078,1603,-7515,1803,665,-496
2388,-1497,4956,-1130,-1612,1472,1726
2389,-1404,2495,135,905,183,1593
2390,2914,995,1354,-223,653,1299
2391,5744,-310,346,701,535,-32
2392,2111,1885,-1682,-1409,-358,1457
2393,-3820,3857,1866,1162,1576,-1497
2394,4714,-304,2626,71,-1839,-265
2395,5526,770,7660,1325,-1042,315
2396,1371,-5563,520,-750,-318,-693
2397,-5373,4689,2998,276,1258,-1707
2398,7219,-6579,-6749,-1067,-657,-982
2399,-4270,-3720,7623,346,-1910,-536
2400,4828,6513,4442,-752,478,476
2401,823,7557,-2424,-890,1835,1431
2402,-5718,-7935,7580,-524,-1845,1910
2403,-4459,3314,157,-1778,-181,692
2404,2314,1499,1662,-1169,-1403,1167
2405,-6256,-4345,2524,-118,1968,1041
2406,7490,4399,-2401,-1,-333,1883
2407,5534,38,-3485,528,-134,-1315
2408,-2351,-6776,-7305,-392,-415,1932
2409,298,-3345,-5059,1177,1709,-921
2410,-4163,4061,5210,582,-1868,1261
2411,4893,4707,-1536,889,852,-388
2412,-924,6285,-1307,-1739,-842,-589
2413,1916,5451,-5301,1852,-1418,404
2414,6754,-621,-7385,-463,1211,-1978
2415,-3674,-7460,-6885,-360,1134,-1385
2416,2143,-526,4511,-309,-31,-1494
2417,5706,-5958,3754,-837,-916,-1417
2418,899,3498,7125,1139,1174,-1125
2419,2990,-236,-6499,-583,507,843
2420,-2003,-6299,-137,-1530,-1504,-623
2421,1791,-6972,-3416,1652,-704,-1611
2422,3449,-6890,3834,1389,1945,1635
2423,3677,5710,4174,1916,319,789
2424,7135,-7652,653,531,-1930,-1424
2425,6233,-1932,4555,1495,-1665,-288
2426,-1991,-5267,5685,-190,664,-1414
2427,-6672,1950,6704,-155,-228,1010
2428,943,4464,3278,-438,-16,1047
2429,4106,4225,6929,-1009,-480,-1089
2430,5818,6671,-450,144,1921,1518
2431,5897,-490,1050,889,-197,338
2432,-7561,-6403,3401,231,1567,1703
2433,-5937,7901,-2745,840,-1522,-1383
2434,-3289,6134,-905,-1533,-521,-767
2435,6579,-7217,-3090,-1885,-845,1602
2436,-7982,-3881,516,779,123,261
2437,-4198,-4005,1769,1015,673,541
2438,7410,2290,-1015,1259,-522,1100
2439,3953,6047,-4436,85,640,-1466
2440,-3480,1838,7105,-1038,1760,-1082
2441,-7639,6697,-4650,933,-65,-1117
2442,-3379,-664,5591,1053,-1083,128
2443,6178,3870,-4571,490,-873,1870
2444,3546,1573,-2934,-426,-1592,-1462
2445,-73,-4729,7195,630,-95,706
2446,5738,1732,-2218,1127,369,-936
2447,-103,4734,-507,1021,-307,-1650
2448,6080,2830,2121,632,969,1026
2449,3300,4263,9,1397,464,966
2450,4190,-4627,1883,983,43,-265
2451,1974,1046,-5161,-1695,379,-227
2452,450,-4497,6381,-1994,473,1430
2453,-1737,4980,-4605,755,-1737,-1684
2454,5611,-78,2465,-1756,1490,-1514
2455,4229,6206,1680,593,-590,-500
2456,-2299,2244,-7549,-1803,1081,-1554
2457,-427,-6257,2765,1789,1705,-1836
2458,4940,-4457,4386,1603,-1914,1487
2459,2791,4193,6000,-925,-40,-105
2460,3889,-4794,2104,1573,-580,-1766
2461,5688,-3816,-405,1041,571,929
2462,958,2751,1371,-666,-544,385
2463,2856,-6932,990,1897,1805,162
2464,-6120,-4934,4599,-699,-70,-1324
2465,-6396,-5190,1756,1844,-920,14
2466,4754,3432,-7528,1445,1443,1723
2467,-2540,2711,5464,587,-1636,-1783
2468,-7339,-1890,1901,826,-284,1471
2469,-3831,7050,1956,1155,180,-1413
2470,2358,-1626,4575,1512,-123,-1699
2471,-7172,4812,7185,536,-1704,225
2472,3428,7656,6353,-1292,-811,-1538
2473,6685,2722,-6282,-1466,-1367,1698
2474,2556,-7946,-7417,-1622,957,-1951
2475,3788,162,-3405,-913,-630,960
2476,7103,-6343,7169,-66,-1625,-536
2477,-6466,-6435,-3988,-1949,-764,227
2478,-1596,-465,6108,-438,334,1167
2479,970,-3391,4889,1390,-391,-731
2480,-3254,-743,-5476,107,-783,753
2481,6379,-557,-3095,-437,1879,312
2482,5741,-4250,1231,1182,-350,-1993
2483,3156,-6234,7466,-712,1228,1297
2484,3081,-7562,-1774,-1027,-1445,1893
2485,308,-5566,5418,1099,573,978
2486,1691,4722,1515,-655,948,1777
2487,-5799,3018,6602,1852,-1600,-1378
2488,-253,6474,7929,350,-626,358
2489,7447,2097,4798,390,1266,-1669
2490,-3689,-7502,-2568,-1009,1020,-447
2491,3051,-7935,-4423,-194,-1345,1251
2492,-1790,7539,-7562,345,-1242,-1406
2493,-2040,-1150,5552,104,1927,-1531
2494,1201,-7579,1614,1167,-2000,751
2495,-7462,6354,7718,231,791,-1278
2496,-49,4984,-4506,-753,-728,68
2497,-5863,-5464,1856,1185,-612,-1027
2498,-5921,-1699,4160,-1920,-1081,1503
2499,-6271,5082,3306,1808,890,1187
2500,45,-5824,-7711,147,245,-1429
2501,-594,-6635,6078,1695,507,528
2502,-749,5015,-1271,1075,899,793
2503,6492,-1189,7246,-1882,1050,1080
2504,-5341,3542,-262,-944,-959,1997
2505,2748,-6166,6645,-1330,-917,435
2506,5424,-7373,876,-1645,285,-994
2507,4158,-2176,4190,473,1847,1950
2508,2487,4030,-7601,494,44,-1211
2509,1749,-4496,7137,400,-457,549
2510,-2284,1338,2639,320,-201,394
2511,-1021,-4234,1119,-471,1819,1981
2512,6895,-1195,-4136,1753,358,-168
2513,7791,7636,3899,213,483,999
2514,-5663,-5850,3622,-950,-627,-1508
2515,3091,5074,2578,-1356,1578,-1088
2516,1738,-2716,-3476,1837,-362,-683
2517,5646,-1605,3781,1012,1623,1705
2518,-1730,-4127,-6411,-1823,8,580
2519,-2806,-977,-688,685,1429,-1166
2520,-1179,-2474,-4894,-1888,-1397,95
2521,7099,-6702,3603,1345,-1617,1813
2522,1208,-4167,4173,-1850,-402,-83
2523,-5725,-6310,2165,1760,1032,202
2524,7691,-7860,-5160,-225,1022,1805
2525,3703,-7528,2380,1639,1914,1343
2526,-5078,-5840,5691,-1768,-699,-1219
2527,-6913,-1568,-6094,1469,234,-1817
2528,-4942,-6453,-4472,-1292,1092,1688
2529,7669,6380,-3520,-1399,964,-1697
2530,-7563,-5502,7018,1945,-1171,-1846
2531,-820,1163,-5605,1020,-1572,-1059
2532,-4043,6650,-6209,1876,431,-650
2533,-2694,136,5829,957,-1197,1391
2534,-4783,-7976,1263,-1787,1953,1277
2535,686,-7374,-6969,625,1567,-992
2536,-4558,5298,1402,-1957,-432,1299
2537,-5185,-7830,7050,-167,-1215,-1508
2538,-1970,-6592,-6459,-1725,-1405,269
2539,-917,5269,-1426,-377,-1514,1284
2540,-4236,-3512,1647,1795,425,-544
2541,-2771,7957,5170,-560,1769,-1651
2542,-6801,-1050,-4946,-246,-470,-524
2543,-3023,4338,6905,-1579,-550,-1743
2544,-3305,5407,-6099,-1681,-1004,1874
2545,811,170,-5589,1018,1219,31
2546,4033,-2863,504,-25,82,819
2547,-5761,-600,-1548,1711,-904,-804
2548,-4825,-5085,-2133,1025,-1143,-618
2549,-2267,3215,5032,-535,935,681
2550,1868,3697,-3480,-1688,137,-1388
2551,1119,-1738,-2124,-697,-136,772
2552,-4972,5620,-7361,-418,-1833,198
2553,5075,-5726,-10,-1031,-1364,1611
2554,7339,-7839,5909,-811,-1643,-1759
2555,47,-2817,-4795,1430,-68,-1890
2556,7361,4024,-3366,-771,-939,915
2557,-913,-3768,6486,1060,-900,-1327
2558,1578,-6513,-3797,1779,507,-1645
2559,1230,5623,-1892,15,824,-1191
2560,-2456,-3527,2014,-1177,-1718,1261
2561,-7202,-1962,7559,1330,1480,1458
2562,-6414,7475,4310,893,-1314,-1375
2563,-1811,-3529,3551,1259,-1724,217
2564,-769,4005,4692,-1529,486,567
2565,-1572,-7919,-6926,1379,1107,877
2566,3474,3545,6867,458,696,1082
2567,-4628,-1808,-6445,1854,130,-503
2568,4151,4855,-3155,-1985,392,226
2569,-1683,7480,4511,-1615,492,-1498
2570,-842,2489,-4111,-661,700,-1573
2571,6155,12,1180,149,-1231,-1818
2572,-407,6896,-4746,79,406,-1444
2573,-4538,3729,4873,107,-1651,-1071
2574,1366,-7264,5577,484,-23,800
2575,688,-2025,5529,-994,1837,-269
2576,-3685,-5498,7408,842,-62,-603
2577,2855,697,6049,-351,-1763,-1508
2578,-6858,-3871,7857,1515,-1518,1627
2579,3066,-2831,7473,-1755,-938,1579
2580,6132,-7454,-5658,-544,-44,-719
2581,-2673,-6092,4560,1381,1030,936
2582,-7563,-382,7481,-347,-527,-828
2583,-7670,-2520,-400,-1659,-731,-1991
2584,-5159,-7171,5329,-1111,1666,-1228
2585,146,2200,6913,-211,1673,-158
2586,364,-8000,2628,512,-1071,1706
2587,-3785,1941,-5435,-1406,208,1812
2588,3548,2176,-6730,-579,-604,-46
2589,-4692,-5711,3330,-1802,-579,1080
2590,2160,4690,-7522,924,344,156
2591,317,7110,-5161,939,1118,1327
2592,4862,-3743,2759,-865,-1226,-969
2593,7635,7323,617,-175,413,1402
2594,1360,670,7570,-378,-1619,-1047
2595,-3246,-7127,6531,1419,-114,-1379
2596,7814,-5119,-7209,-1422,1897,959
2597,-5822,7371,1960,1143,-1679,477
2598,-3160,-1696,-3193,-506,-487,-710
2599,-4464,-495,-6863,583,709,-787
2600,2497,-4078,-4971,-217,-522,1915
2601,-3783,-1461,-5500,-509,-3,1560
2602,-4432,5085,3,1189,202,-64
2603,-7988,4824,4038,-690,-496,-904
2604,2980,-7699,5635,-1436,-1260,-1000
2605,-2186,3956,-7351,1055,-1206,-1892
2606,-5570,2716,6969,1382,-1752,957
2607,2149,-5666,-3137,-972,-990,-274
2608,-1635,4636,2375,-154,-948,583
2609,-688,5773,1714,-210,-723,-1050
2610,5715,-6533,5448,-1830,-360,1230
2611,-2883,-2597,1654,329,-1555,347
2612,3599,-3218,-5624,-569,1943,-591
2613,5342,7347,-162,698,-268,69
2614,-6716,5581,-5478,421,-842,-658
2615,-2330,-1226,1313,-1558,1733,-1314
2616,4054,-2126,1943,1763,-579,1575
2617,2803,-7986,1283,-877,-1410,29
2618,-3038,-1245,5489,-922,-310,-307
2619,5968,-1487,-898,-1687,29,-1165
2620,6418,6567,20,595,-374,-1973
2621,1331,-1523,1213,-1909,623,805
2622,2210,-2380,1310,-1570,1770,717
2623,-75,-5410,7848,-1097,388,430
2624,4943,-6699,5219,683,582,-444
2625,353,-5748,4170,-1976,-805,-780
2626,6739,2051,-5556,1848,1268,855
2627,-518,-4332,-2839,745,-221,1934
2628,1309,-744,3348,1968,-1276,1671
2629,7331,-6762,-1077,-1804,-156,183
2630,-3537,-152,2053,1006,45,816
2631,-2727,3398,-1578,543,-1046,1853
2632,-5627,7871,-985,-1421,1464,284
2633,-6272,-7168,6906,-1645,883,519
2634,1139,1209,2640,-855,673,201
2635,-4464,5354,4188,1832,1473,88
2636,3610,5258,2708,-372,-1738,-1383
2637,-6600,-7821,321,262,731,990
2638,-4053,-2122,-3016,1481,-1559,585
2639,6581,-3805,-4598,-1574,962,-712
2640,-4403,-5384,-3423,533,180,1498
2641,-7781,-2029,3097,1351,-251,1959
2642,7436,-5659,3418,493,1625,-1505
2643,1316,-6677,-2910,-340,-123,1988
2644,1334,-3334,7461,-1728,1941,586
2645,2172,4592,7820,1203,-298,554
2646,-622,1268,1862,-1584,791,161
2647,-7102,-6562,755,-1121,221,1841
2648,7288,3525,2680,531,-276,947
2649,-5637,-2615,5278,-1831,1457,-1286
2650,-3654,-1131,4891,-899,-444,1639
2651,6933,-3483,6993,-1258,-1576,-1716
2652,2763,-1579,-1245,-1270,-1294,23
2653,-842,-1058,-4602,103,1235,-1656
2654,-738,6100,-2758,467,-1348,-1531
2655,5126,-2675,-6592,1836,-623,1573
2656,7598,-7641,-6515,-1822,52,1137
2657,-7154,-692,-2219,203,-1731,-1193
2658,-899,-4393,7915,-1224,-1614,-43
2659,2440,-3042,-2765,-127,148,793
2660,4954,2202,-7311,-1084,868,-54
2661,-982,-6494,-2976,-687,700,1548
2662,-4271,2642,-598,394,-918,-20
2663,621,1234,-5622,1982,-894,51
2664,7755,1491,-7040,-1304,-632,-1753
2665,-4981,-1136,-7092,407,1750,-1971
2666,-3967,-2912,-1335,-1532,-1912,-1284
2667,-4992,-2084,-7347,-1116,292,23
2668,3603,-3186,724,135,-475,-413
2669,-903,-6573,1087,-1367,-659,1195
2670,-7768,582,4927,423,-1525,-1287
2671,-5482,-5320,-4960,316,319,-334
2672,-6219,3710,121,318,-1018,-1407
2673,2700,-2398,6821,-1160,-1752,-28
2674,6757,5919,2580,1344,-524,-698
2675,3434,-7903,-5830,1582,420,1981
2676,5445,-6335,2796,-1049,837,1345
2677,-6720,4342,6584,1614,701,557
2678,-2379,-333,-1328,-1681,258,1692
2679,-1506,5230,-561,1781,-690,-543
2680,1066,1529,-1299,-995,1952,-1175
2681,409,-5497,7476,-309,1119,1354
2682,-3089,7497,5633,1347,337,-750
2683,1526,2694,3636,-766,1486,1334
2684,-6400,5968,-6705,-1139,-1774,1505
2685,3608,-7129,-7794,1920,-777,-1113
2686,-4704,-1007,-324,628,-1101,191
2687,-2237,5764,1636,1621,312,24
2688,5412,-4096,-7412,369,-834,1230
2689,-6018,-4988,-5271,980,-259,-1957
2690,-5274,5327,-859,1416,-622,-1206
2691,-829,-3673,-6363,-1819,324,1291
2692,-4166,2302,2046,1474,-1925,1724
2693,7412,-1821,4625,-1870,1141,-1350
2694,-1928,-7218,-7659,-704,-1300,1834
2695,-6110,-7417,-5551,1018,915,1118
2696,5004,-5423,-4446,430,-1823,1088
2697,112,-7207,2330,-1736,-1288,-943
2698,4016,-7174,222,581,-1368,1503
2699,-7845,7834,-2376,-1301,-1542,617
2700,6717,6433,-6975,1013,1522,-1943
2701,3625,6087,-911,-465,-416,-450
2702,-598,2810,1599,905,-1523,335
2703,2285,67,-5589,-290,-1082,835
2704,-2993,-3607,-3176,141,-1622,1961
2705,2073,6201,7245,714,-9,289
2706,-3340,-7712,694,-1727,478,145
2707,4467,-6453,4529,377,-526,-1994
2708,1241,-6440,-2185,-756,390,1239
2709,-5973,1573,-5217,822,1426,1944
2710,-3496,-3199,-4881,1627,819,917
2711,-7221,-6976,-6042,744,728,421
2712,-5286,7962,2788,-1994,48,1767
2713,4341,-3290,-4910,1127,1402,1343
2714,2528,-5517,-1985,-1479,-231,-1693
2715,-7558,119,-2245,-1291,-299,1173
2716,-6400,6197,6886,-213,1475,-1465
2717,4273,1109,2997,-754,-610,-1356
2718,-813,869,-2025,975,-86,-1778
2719,2524,7993,1140,-630,-96,-633
2720,4894,-40,2633,382,-297,-1119
2721,6780,5338,7117,56,1263,563
2722,-4285,993,1083,-1194,-713,-1911
2723,-7903,-622,7724,1927,-1522,-763
2724,7373,5622,3649,-1496,-109,-401
2725,6625,-2277,6157,-581,-1219,1877
2726,-7582,2514,-4546,-1998,-1899,-1825
2727,-1904,-5484,-4597,1468,1092,-297
2728,-4487,2552,-2348,-854,-432,-23
2729,-7497,4035,7975,-967,-653,-763
2730,3962,-2523,-6352,-1284,2,-40
2731,-5254,-4303,-6654,373,1115,-904
2732,3452,-935,7252,1312,1912,75
2733,7943,-7530,4663,1881,-1552,-576
2734,6892,-3099,-7582,-613,1581,-377
2735,3658,-3209,3450,-1289,-840,-1237
2736,-3291,-2192,-1733,1664,-515,990
2737,592,-7028,-1869,812,-1399,-657
2738,752,5970,7521,180,-1738,-1493
2739,-1224,-3568,-895,-326,1378,1078
2740,-5059,-475,2858,1315,357,177
2741,-2162,3753,-2818,604,537,-1792
2742,-4828,5344,543,478,-1227,-1295
2743,-5991,-4821,1616,-1686,-483,770
2744,-4782,6261,-4594,787,-231,1226
2745,5980,43,-3575,-1457,-107,1507
2746,2855,-1457,-5822,910,-1601,779
2747,-3600,7941,5106,197,-235,1317
2748,4890,-5008,-6629,1062,-1814,288
2749,4695,3621,-1039,-1164,-33,-1836
2750,3531,-7512,7306,1835,512,1966
2751,7295,3917,-4980,-936,-274,-364
2752,-3837,-4915,3428,1336,28,-1811
2753,689,-5271,-5436,158,898,824
2754,932,-327,-309,1928,-1537,-388
2755,-6885,-5836,-4985,-1227,-11,1189
2756,77,4768,1750,1334,179,-1090
2757,-6366,3543,7247,-455,515,-1241
2758,5234,3203,-3861,349,-549,600
2759,3184,1171,-6430,1348,-1339,-732
2760,514,4391,-343,1454,148,-796
2761,-3489,1340,4934,-473,730,-826
2762,1606,-3479,2498,-226,619,1526
2763,-2971,-1569,3137,49,1653,1315
2764,-2473,7348,-4979,-1290,780,1129
2765,-5895,-7321,-3796,1161,1796,-803
2766,-6645,4660,-898,727,-1632,-1016
2767,3948,7026,-6165,-1528,-1861,125
2768,3956,-5034,3021,1775,-1999,-1418
2769,316,2107,-7490,-1787,1607,-810
2770,-955,5155,62,1391,-285,1287
2771,6937,-6093,-7283,691,1611,-1154
2772,-2941,-1660,4005,-546,1532,1439
2773,1958,4372,-2413,-166,-1488,1806
2774,6337,-4066,4824,294,1857,1331
2775,-6286,-1440,7441,-1840,-882,442
2776,5902,5469,-1004,1989,-1437,-1400
2777,-6438,-3530,-2656,976,1339,-1279
2778,4676,1208,-3763,-942,43,-1419
2779,2660,-6271,3366,-297,-562,-619
2780,-26,-1378,799,-71,-1402,-2
2781,22,-2711,1435,1298,1465,-471
2782,5935,-877,-4754,-1264,1830,4
2783,124,4732,-1668,-112,1992,771
2784,2296,7081,-6797,-1223,-1451,382
2785,-7085,4373,2175,-1735,1992,-62
2786,2627,1436,-6458,721,893,-355
2787,-2490,-6375,5040,-72,216,-1941
2788,-5014,783,5173,-1815,1235,-15
2789,7363,4937,-3736,-1683,404,986
2790,7485,7690,-7583,1999,-1548,-1408
2791,4502,5830,-5043,-713,653,-754
2792,-4632,-7291,-1930,-72,-696,1980
2793,-1532,2160,1479,996,-1973,1381
2794,4213,7939,-1272,1630,1292,456
2795,4777,-1420,208,1926,-783,1191
2796,7021,-5804,2759,1984,1637,-835
2797,-6316,5420,7263,-269,1796,-1274
2798,1405,-5515,-7917,-475,1735,999
2799,6835,3458,-7169,-1347,1504,-1923
2800,5160,2948,-3427,-15,1794,-1171
2801,7907,-7666,7698,1784,-1889,-1494
2802,7732,-6549,7575,1728,-181,-202
2803,6675,-67,-4203,393,-686,1402
2804,-5514,2468,4451,-1767,-1194,-351
2805,2848,948,-2041,1590,-703,243
2806,3417,-3048,-7820,683,-1216,29
2807,-1672,-5814,1476,-1139,757,-681
2808,-3862,1127,7738,-1765,-628,-1160
2809,863,931,7593,-1609,-542,-1389
2810,-6698,4604,-3774,-655,-460,725
2811,-3582,-6240,-341,1549,1617,-856
2812,7572,7552,4182,314,-1811,1995
2813,5967,-2082,-3017,809,109,717
2814,-5885,-227,-6603,1255,-1595,-1028
2815,-2646,-394,-73,723,-931,1091
2816,5408,-3576,7706,1897,-1427,1872
2817,2462,7807,1003,-625,694,-514
2818,-7196,7590,-7096,1248,-138,1898
2819,1742,-3180,530,141,-1615,1080
2820,2840,-3335,5127,-582,-988,-742
2821,-6861,7338,-6166,1733,-30,1573
2822,3727,5620,2616,1846,400,1196
2823,820,1949,-6931,-1021,-257,-207
2824,-3337,6979,-7174,36,-1394,1257
2825,6175,4582,-6682,174,95,635
2826,-2682,-5383,1294,-16,-471,948
2827,-3452,-6066,-150,-300,-1944,334
2828,4527,-2756,-1987,-1116,-619,1198
2829,6297,3000,-4300,1948,-316,-747
2830,-3145,-290,-3471,-1331,-563,-1229
2831,-2220,-4928,-1363,-484,-1360,904
2832,7378,6099,213,-1844,1767,1016
2833,-796,-6379,-6792,1647,-1198,-1273
2834,6144,3204,-933,103,-1033,1375
2835,-7043,2171,-7052,474,1583,-717
2836,-1690,-1129,5315,13,-35,1992
2837,3433,-3787,4207,-976,572,958
2838,3166,-3170,-6800,1668,-132,734
2839,-7483,-190,-3336,-175,-1712,1245
2840,-2407,-2705,2781,-632,-1729,-536
2841,-2740,3580,89,447,-1246,-816
2842,1227,-6527,-3620,863,335,-1544
2843,-1538,6998,3164,1221,-770,-138
2844,4390,5989,-4107,528,-1834,228
2845,-6753,1819,-210,569,-506,-1324
2846,-3953,4753,7917,-1806,1603,-1154
2847,-2552,4292,6448,961,903,203
2848,-3979,2542,5428,446,982,-1617
2849,-4970,-2234,3214,1270,1453,-752
2850,2508,-3341,2350,-35,733,-888
2851,-1982,-2995,-31,223,-742,-321
2852,4278,5016,-3221,-119,965,1027
2853,-6983,-6351,-6645,-483,-1786,580
2854,5510,-5853,7283,-424,-1065,191
2855,-3965,5567,780,-271,-438,-1414
2856,364,2582,-6571,1292,1292,351
2857,7959,-7760,4221,1550,-512,1271
2858,-6573,6138,6799,1758,824,-76
2859,-5627,-4720,3356,1332,-866,518
2860,4985,6272,4478,-1344,-315,-1717
2861,-5589,-3480,-4595,90,-321,-998
2862,6164,-1844,2008,453,747,1910
2863,7765,2463,-2157,1635,636,-1279
2864,-129,6264,-4507,999,380,1555
2865,1543,3358,-2340,819,-663,-541
2866,-5650,7892,-7814,-1656,1859,-1745
2867,2436,5583,-6419,-949,-1985,1351
2868,-3630,7793,-2009,-622,-1414,445
2869,1997,-2821,-2094,902,-935,1358
2870,3578,-1570,5582,1487,1038,-1680
2871,1916,-3669,2745,1274,-341,1254
2872,-4193,-6365,5885,720,-1973,-10
2873,1126,-7545,3089,1305,-1621,-1794
2874,1013,-5298,-3403,651,1477,536
2875,4550,-5208,7993,-1977,1471,191
2876,-5741,7381,434,389,1013,-1616
2877,6384,-2929,-7533,-1082,-50,-1000
2878,-4259,4844,5529,-399,-756,1470
2879,6749,1674,2209,698,-292,-732
2880,-532,-2392,-161,190,1175,645
2881,-5030,-6239,112,858,-973,-875
2882,-1347,-3967,-6371,-1377,-774,737
2883,-1592,-3770,-4341,1130,1309,552
2884,3725,3105,75,1373,251,718
2885,-4910,-7510,-5251,-1558,-33,-69
2886,-2354,5760,-6503,806,354,1089
2887,-1967,7399,3046,-1528,-1781,-1757
2888,5866,1642,6987,370,-1867,1627
2889,-4684,-7547,5224,1888,482,1260
2890,4519,-3684,-1374,-1618,1600,1354
2891,1603,1886,962,393,986,634
2892,-3438,2845,-64,-1766,-1389,930
2893,-3350,-4784,1370,-1657,-1273,-1611
2894,-5144,-3674,2401,1706,946,-1224
2895,-4818,2352,7997,-1475,-868,-1946
2896,7580,119,5178,-870,1012,1092
2897,-1751,-1359,-6669,-536,-689,1150
2898,-7978,-4322,6874,-928,-1612,212
2899,3419,4268,-789,1358,-1173,1082
2900,7454,3437,1969,-73,742,-540
2901,5088,4002,-858,-515,980,1845
2902,2256,-2798,4690,1480,26,686
2903,7109,-3413,6121,586,432,-1738
2904,-1044,7948,-5491,-1005,-235,-1630
2905,5494,-313,948,-1715,-1649,-887
2906,-313,1110,-5789,1312,678,1450
2907,1221,1786,-5178,-606,-1723,326
2908,-5840,2957,-339,-1047,1417,1902
2909,3356,-6872,-4906,-1260,1470,-1313
2910,-6127,-1070,-7341,-281,1743,-1487
2911,1776,6694,5752,-241,1281,819
2912,1950,-6890,30,-730,249,-1004
2913,-6403,5884,-2105,-657,1584,607
2914,-4140,6586,-5569,202,-1208,-920
2915,-5068,-4276,-4347,-487,-748,-577
2916,3368,-6800,-822,-1298,420,-1953
2917,-1167,2796,6762,502,-1395,-674
2918,-823,-2259,5602,-37,831,1214
2919,-3885,-1964,7485,1329,-638,-1519
2920,-6551,4966,4280,722,1895,1405
2921,4093,5141,-2129,814,-1531,1912
2922,-6481,5553,-7609,-81,1169,-918
2923,5734,-3479,4526,465,1575,1981
2924,3535,-7669,5941,-1398,-1535,-205
2925,74,2492,-1186,1375,-1474,-765
2926,1176,-2888,-6642,-1918,306,-843
2927,-1079,-3823,-3282,1350,1029,1389
2928,6386,-4485,-17,-1400,-1868,-1202
2929,849,2021,-7088,-473,1762,1326
2930,-1627,-1031,-4268,-808,386,1652
2931,2402,1140,3204,1525,551,342
2932,-7864,6287,6506,750,673,-446
2933,4145,-7663,-4994,-1744,-1084,1817
2934,2522,4405,-3447,-12,-532,651
2935,-1749,-1952,1278,-1194,1902,-107
2936,-1508,4268,6060,-1078,1639,140
2937,622,3144,-1262,76,1269,134
2938,7648,-2832,-4864,-1533,1783,1082
2939,2390,-2326,557,-1413,-900,-821
2940,-6222,-7073,2963,781,1177,-1842
2941,4067,-4644,-466,1511,1242,1364
2942,-2403,-7656,5251,-1315,412,874
2943,-6054,3179,-3777,-1086,1733,-1003
2944,7029,-6504,-1587,1362,935,-1447
2945,-4365,6116,2242,1665,1005,720
2946,4990,-471,-4412,1759,461,295
2947,4961,-2768,5476,852,749,1010
2948,2203,-5065,-4189,1185,1021,-1086
2949,121,-6922,-2243,1055,-235,1713
2950,6406,-6841,-7768,93,1648,507
2951,-7931,-3215,-7965,-1202,-1865,1176
2952,-7601,-597,5589,792,-1466,-692
2953,5178,-5891,-2991,-823,-831,303
2954,-1824,-4029,-3564,-1459,163,1426
2955,-4587,-6173,2776,-336,-125,-1696
2956,6655,-7248,-4007,-197,-259,-246
2957,-542,2911,-3404,-1914,-1192,846
2958,-1978,5211,-7155,-1267,1436,-1338
2959,7467,-4145,-5752,953,1595,1016
2960,7004,4337,-7939,-1296,140,1121
2961,-1147,3972,2522,903,1285,-1802
2962,-1925,-1146,6080,474,-1380,1035
2963,121,-3187,5226,-1643,1617,-1928
2964,5081,-2897,5801,1400,1759,1508
2965,-2958,-1584,6560,-1189,506,1761
2966,-4526,5922,-6741,800,-1006,642
2967,6337,-7381,7369,-187,-1165,-471
2968,4310,-3057,4434,-680,1434,940
2969,3196,-7835,7848,-572,1884,-116
2970,-7059,-3979,6598,-110,-1793,-1845
2971,-114,381,-4211,-534,-735,561
2972,-4041,221,3155,-1577,1490,-89
2973,-6910,-511,-6536,-108,-1540,1111
2974,-7213,-2084,4881,1174,1403,917
2975,-3935,-1899,2513,-1983,656,1818
2976,-1631,-4204,-6456,-1373,-765,1999
2977,-1959,1579,-6300,1589,29,1508
2978,7420,-907,5689,1126,-1415,-113
2979,-2099,4243,6699,-1656,-769,803
2980,-2111,2054,1715,1049,1753,802
2981,-5016,664,-5226,1315,-1100,-1647
2982,-5041,3761,1109,-1695,-1382,569
2983,2574,-6851,6329,-1494,71,-792
2984,-5194,-4739,-1507,514,1626,-1460
2985,-2841,-3415,2575,-1056,-1583,-299
2986,6848,-7326,6187,903,857,796
2987,2510,4032,-3221,-1980,1586,269
2988,5142,6201,4383,-633,-353,-885
2989,966,5128,1731,-1054,1749,-982
2990,-5920,6992,564,1842,368,-1677
2991,6787,2122,-3865,-73,436,-1092
2992,7888,4943,4660,1281,258,-595
2993,-2118,-2182,-3541,775,-679,534
2994,-7287,473,-2532,-877,-292,-759
2995,-4300,-1805,-5226,1317,1689,-1671
2996,-6703,5876,3501,-1870,-1840,1166
2997,6924,3864,1225,-752,-299,845
2998,3191,-7728,-2253,1860,-580,1675
2999,3603,-4130,458,-1233,-1441,-459
3000,-1017,3258,5220,951,-848,-1178
3001,919,5110,501,136,-1421,1536
3002,4048,2194,-3066,308,1944,630
3003,-3907,-4912,-188,709,-610,-1711
3004,-4714,6053,5929,550,1634,1403
3005,1616,-4429,3997,376,528,-765
3006,-5085,2518,-4625,-1316,-40,92
3007,1191,-7106,-111,163,777,-1441
3008,-4545,-6894,3040,788,-1782,-580
3009,5206,3810,-1397,-259,-106,1648
3010,-3000,-5625,4286,1152,1988,-598
3011,6600,693,936,1787,-928,1479
3012,-3959,3183,1457,-1002,1920,547
3013,-1862,4691,-2273,564,1350,-1668
3014,-7881,-7045,1066,426,42,1588
3015,600,3163,-2174,-727,-1975,-1357
3016,7531,6547,-2738,1378,581,-1997
3017,4355,-7334,-6996,1141,493,562
3018,3954,-2922,-1197,-1722,-178,1455
3019,6247,-1316,-4775,-234,-1367,1511
3020,-3828,-6991,6218,-1764,404,-1212
3021,407,1222,5318,-21,146,695
3022,-6560,-2238,-7612,825,1714,-282
3023,6781,-6514,6350,914,-1110,623
3024,2683,773,-7236,-614,-67,902
3025,3525,6127,3068,174,-37,-305
3026,5403,-4125,-2027,-602,-1096,-905
3027,7953,-3076,212,-1992,-773,-1495
3028,-4609,-1237,-6654,1045,676,-305
3029,-4311,-4049,-3887,-586,-1984,-136
3030,-4260,-2111,5390,1792,-741,-1932
3031,1329,-6579,-3726,1789,-14,699
3032,-413,7063,-6478,505,1985,-131
3033,7174,4461,2469,1512,1863,527
3034,7192,6525,-3959,-275,-1457,685
3035,7593,-26,4017,-514,-811,-826
3036,4491,-5463,702,-611,-1334,-1930
3037,380,218,7852,1557,1362,-1619
3038,5394,6116,-4478,1525,-1589,1121
3039,-1688,4616,6848,-1752,1186,984
3040,5682,-7217,-7232,-1834,-471,-428
3041,-3068,3771,-7530,1889,780,897
3042,7202,-2919,-6036,-195,-1832,447
3043,3974,934,584,743,-397,-1980
3044,-997,4268,1728,1287,-1857,-1822
3045,-1329,-5909,81,-67,1946,10
3046,-1196,1215,3830,249,1034,377
3047,-2162,-7069,9,-673,-14,179
3048,5616,-7028,6436,-710,-793,1324
3049,-6527,3516,-7057,-1595,702,-1185
3050,-14,1656,7089,1221,-1385,1611
3051,1838,-1407,5854,241,1391,532
3052,-2439,5253,1311,1178,1044,366
3053,3039,-6590,-1028,486,-1239,1285
3054,4669,-2878,-1921,1809,-515,-905
3055,4270,-7447,5892,-1780,115,-1556
3056,-4953,-936,-3252,956,-1774,-1027
3057,5938,919,6362,1425,-581,-1879
3058,7552,2296,5260,-695,53,1127
3059,-3641,1635,-2365,-1066,71,-1920
3060,-143,-5250,-4812,950,1850,1343
3061,-639,-564,-2459,1746,1918,-1495
3062,4734,2739,-7264,792,1762,1634
3063,-3214,-3694,-3477,1524,259,1739
3064,3867,-1456,5300,952,-1391,1965
3065,-3918,-5036,3638,665,-113,556
3066,5383,-3783,565,-1623,589,739
3067,-5305,7296,2784,1957,692,859
3068,2287,-7398,-7187,1300,-1399,-405
3069,-4676,1323,2726,1097,-920,-216
3070,-1054,3686,7844,-5,-60,1982
3071,-7235,1019,-6862,1406,1580,-1042
3072,1664,-842,3668,-1882,-547,-545
3073,-414,-2521,2132,421,929,505
3074,-3072,-2766,-4952,1156,-1504,-1996
3075,-2519,3059,-1799,-1529,-1166,1376
3076,-6941,-5078,7215,1799,954,-393
3077,-1092,1170,-2427,-1322,1039,-691
3078,-5856,-5549,7752,907,1125,13
3079,3787,5196,6898,-1175,-1644,3
3080,7230,3245,224,1791,-1431,1093
3081,-585,188,-5800,289,-371,-27
3082,-2446,3280,-5280,1146,750,700
3083,7830,4822,-4897,-146,1751,-1178
3084,7945,1237,7585,106,1961,-614
3085,-4973,-7169,2849,664,1890,-401
3086,-6367,-26,-3700,-95,495,-1027
3087,4033,-802,-1582,180,-164,-604
3088,1514,-2994,-1770,-489,323,-1585
3089,-7092,-2206,733,-1910,200,800
3090,-93,-1218,7085,-712,1589,1759
3091,5659,-7755,-946,1451,1369,-1172
3092,-1541,-6447,-6002,-1375,1730,-1330
3093,-4865,1199,2272,-1018,-321,401
3094,4892,3330,2323,-1872,1005,252
3095,4627,6875,-5235,-937,-1257,801
3096,-5630,-3007,-6652,-1982,-1460,1306
3097,4342,-6101,4820,755,-132,-1912
3098,-7047,-5594,-741,1831,-1565,1529
3099,5881,-6691,3239,-335,-1776,-1950
3100,-4351,6526,3656,588,-478,-1608
3101,-5765,319,-6827,-689,-175,543
3102,-506,-1015,321,-266,611,810
3103,5048,3741,-2678,-1751,-101,1100
3104,-1955,-6563,1331,-1757,-164,1157
3105,-4074,-537,2653,-1648,-115,-373
3106,3784,-4633,460,86,916,1079
3107,-1140,-5740,5857,-459,1303,660
3108,-2137,2644,-5598,-1678,1556,-679
3109,-33,-5001,3118,1565,-1917,-1148
3110,5546,-6097,-7043,1606,1581,114
3111,-3024,-476,5521,-1686,-597,1848
3112,2028,4378,-7812,-1471,1243,233
3113,-4946,4914,4217,-1747,1722,32
3114,-3196,1387,-1934,1435,-1201,1260
3115,-758,4100,-176,-1024,1150,-641
3116,-4141,3408,-5852,1861,950,1925
3117,7427,7118,-3649,153,-419,798
3118,1112,-7234,176,1683,353,-731
3119,5219,-828,6631,-1263,1218,1558
3120,-6733,1551,5738,1157,-1248,-1406
3121,4180,-2324,-3228,-1930,1218,252
3122,416,-483,6572,1668,-675,825
3123,4426,3742,3805,-1728,-1726,477
3124,-756,-7537,-7975,-13,1923,-617
3125,-5997,-5523,5986,-426,-1526,-1353
3126,-980,-4495,2225,-429,113,1840
3127,-2096,-681,-3579,-1055,760,-1692
3128,-6843,3658,3899,-1504,-1289,1813
3129,4570,4382,-2913,1266,19,-977
3130,-3107,-7475,-1943,1923,1171,1132
3131,-194,4494,-3602,1659,482,-961
3132,-5557,6391,5932,-1016,621,-135
3133,-331,3605,2472,-1546,-1411,-853
3134,-4936,7714,-4609,831,-692,1039
3135,5458,-1421,-2157,639,-219,1422
3136,5916,3579,-1321,703,-549,-257
3137,7801,-2982,-3578,1245,-447,1695
3138,3745,-3251,-7490,258,1481,-920
3139,-3638,-2731,-32,693,1462,-37
3140,-2007,-247,6187,1382,1729,-671
3141,1604,3578,2633,958,-1277,-958
3142,4706,4035,-1844,-834,1002,1573
3143,-6022,-6522,1098,-1338,146,1637
3144,-7640,2242,4017,591,-511,-288
3145,4223,-6370,3797,798,1972,1039
3146,7458,6171,-1526,1750,-1952,601
3147,-7676,4698,3754,1323,673,199
3148,637,4902,1805,117,340,-1559
3149,7646,-7055,3537,-1737,-1569,-889
3150,6679,-586,6507,-268,251,583
3151,-5907,4578,956,-848,-86,982
3152,-2485,-6173,-1405,177,-1276,-1708
3153,6705,2091,4126,-323,1896,1700
3154,-7729,1622,4319,-1116,1230,-566
3155,5824,-531,1048,-96,907,1542
3156,-3389,-6619,6603,-536,-1985,839
3157,-3788,-270,1917,-109,-281,-520
3158,-1774,6369,-3460,1037,-1955,-1003
3159,-5405,-1345,6532,296,1194,112
3160,2679,-1985,-6810,-1169,-875,1503
3161,-2751,-4501,7520,623,-1563,-554
3162,47,-1838,-5618,1150,1058,1594
3163,2433,-3958,6476,24,188,-469
3164,803,-7366,-6658,-1914,-606,1483
3165,-1406,-5315,3583,1712,-1413,-546
3166,6461,-958,-3612,-1038,774,-966
3167,715,5691,-4996,-571,-237,22
3168,5372,-3319,4868,-1511,-773,-609
3169,3816,5652,1512,288,-1643,1104
3170,-6567,-3265,4051,1513,-78,111
3171,-5875,6010,3854,-382,780,1453
3172,5622,-5219,2074,-1469,1017,296
3173,-4209,-7720,5924,-308,-1655,-429
3174,1937,-5406,-505,1712,-500,-60
3175,-7426,4213,5952,-754,-879,-179
3176,7180,-1982,-1144,-1575,1621,-1650
3177,768,1629,1256,-347,116,857
3178,4554,6175,3312,-1433,1092,-42
3179,-5673,-1331,6060,-311,1960,-934
3180,-4621,4204,-6442,447,1453,459
3181,209,5148,-6256,-938,1950,-1423
3182,1615,6278,-6351,1580,1474,-1938
3183,-7802,-3704,3543,735,-1311,1829
3184,6928,477,3519,1538,-333,-283
3185,5216,-416,-3380,-511,-1430,-779
3186,4210,6038,-7788,-1479,194,-1438
3187,2866,2416,-4525,-1560,631,1182
3188,2946,-6214,-498,1660,1554,-1908
3189,-3325,6812,4388,591,-1972,206
3190,-3897,-5226,3128,-776,-416,-1293
3191,2314,7635,1205,-1257,-1732,136
3192,-6405,5612,5880,-1678,-527,619
3193,-7088,3219,-2837,1145,-1192,1835
3194,5347,-7098,-1755,-1290,1090,269
3195,-6653,2350,-6037,451,1473,969
3196,6144,6443,3060,-1758,-1069,-713
3197,6940,3421,2765,-504,113,-1745
3198,-1396,86,-6806,754,964,-1419
3199,6812,-2590,5290,-863,-25,-1138
3200,360,-177,2061,-1265,303,561
3201,1192,1779,2511,-1356,1713,1421
3202,-5709,772,-5571,-1344,-3,-394
3203,-2639,917,361,1025,636,-1369
3204,-2919,-3888,970,-409,-1156,1988
3205,1877,-6794,7987,-11,660,-210
3206,-81,-7562,781,1177,1074,-9
3207,6523,4398,-3755,-576,1083,-67
3208,6040,5400,673,-1671,1149,522
3209,-7450,-336,7130,1992,-1870,-1404
3210,-1550,489,331,764,1011,-206
3211,-7715,5644,5504,311,-399,1927
3212,3556,-4138,-1585,1876,711,-1818
3213,-2780,1079,-271,-1019,-1655,209
3214,-2616,-5217,-354,529,-1138,-1361
3215,-7393,-609,-7996,1278,11,-1551
3216,-2850,-1979,4521,-1044,92,-1539
3217,75,188,-7921,-1087,1178,-1744
3218,-1182,-5767,5816,-879,1335,-1455
3219,5374,-2200,-2656,-364,1482,1315
3220,-1152,-7305,7820,870,1775,-766
3221,864,6550,2426,-372,-1309,1865
3222,4224,4660,-954,1256,36,-1706
3223,-524,-3692,-1607,1909,1120,-550
3224,-3128,-4571,1195,688,-1011,619
3225,-2557,-142,-2869,1903,1435,-179
3226,-6924,-4514,3079,-1820,-774,-1487
3227,-5655,-3235,-3234,724,367,504
3228,5149,-2041,-3529,1104,-1913,333
3229,1780,2060,-3547,-623,-412,-1537
3230,-6696,-4920,2401,404,-741,-1944
3231,4819,-2549,-6247,355,-1055,-1517
3232,88,-2021,-2056,-577,-92,1056
3233,4867,5217,7314,-659,1316,761
3234,1202,-2069,-6351,251,-334,480
3235,4938,1867,-5720,132,-862,-747
3236,-4744,-3946,-7626,-1251,1725,365
3237,4942,1865,3758,1337,-599,948
3238,-1051,4353,1917,1703,-438,1962
3239,-5197,6314,-1918,401,568,-838
3240,-7235,7502,-2045,-317,-1462,-1994
3241,-7514,-6507,-760,-256,-877,333
3242,6965,-1635,-7028,1382,-152,-928
3243,-6177,2086,3959,-1173,-1210,-705
3244,-5196,2490,-396,-1057,-439,-703
3245,6283,2931,-2285,-75,-1264,-724
3246,5131,-7911,-405,-195,-1079,709
3247,-3620,1891,-4246,167,1558,1163
3248,4500,-54,3693,1445,110,1434
3249,-563,6992,7218,-1548,-1760,486
3250,6741,-6158,6619,1849,-204,-1722
3251,2441,1536,-191,-1224,876,903
3252,2657,-1111,6369,-1393,959,-179
3253,7126,-5493,1567,-1370,-360,803
3254,4529,1032,-6647,1468,-696,1522
3255,-5958,-4686,-4715,1351,1428,-201
3256,4963,-4810,425,-22,-792,799
3257,-6939,-3530,147,460,-743,-1560
3258,-2294,2693,-2984,-950,1894,81
3259,7407,-3333,-2672,1489,-165,1966
3260,423,-3909,-5348,-238,-35,1721
3261,5860,1124,2808,512,-763,-962
3262,-5044,1821,6181,863,493,-1968
3263,140,7250,-920,229,-1534,-1651
3264,4918,1465,7421,532,1731,1545
3265,543,-2090,4120,122,-1578,166
3266,3121,-5876,1466,-70,1452,-6
3267,-6803,-798,-1192,-1130,-129,747
3268,-5652,4674,2136,711,1390,1565
3269,4073,-181,6443,351,-1931,146
3270,-6849,-4676,5017,-1654,-817,-1722
3271,394,6079,6159,1,-863,252
3272,-1095,3610,-7576,1885,1889,1059
3273,3157,-1734,4617,-417,175,1969
3274,1740,3522,-7646,752,1162,-536
3275,5119,-1006,-4989,-1337,123,-1052
3276,-3165,-7644,5211,1933,1189,-1645
3277,-5999,5904,-6341,-125,-1,-1635
3278,6809,-432,7382,381,1541,-1426
3279,-3160,-5079,964,826,-975,1079
3280,-2554,6067,-189,261,281,-1664
3281,3155,-507,5036,713,-4,61
3282,7876,-280,815,-703,981,1117
3283,-5660,3639,2357,-1583,540,-913
3284,719,5607,-7985,23,-1176,1553
3285,-7731,917,-6112,-1465,-1406,-145
3286,-7469,7834,1824,1421,1763,-562
3287,437,-5295,-961,446,-348,1813
3288,-3535,7194,5164,-1948,-693,328
3289,-2659,6408,-6439,1525,1863,-1357
3290,-2717,-2677,2912,1543,-43,1621
3291,-5375,2417,261,1157,-235,-242
3292,1265,-7124,-4138,-792,560,-997
3293,-7420,-2002,-2323,903,-1702,1561
3294,-3040,-5234,5005,-24,-516,1066
3295,-2398,-3897,6319,255,840,226
3296,-5627,-3463,-516,-1545,785,502
3297,-5863,-239,-6724,-1784,-122,-112
3298,-2695,-6084,3626,-587,-1718,1605
3299,-7792,1580,-4045,628,-1764,-1586
3300,-2720,6479,5984,333,777,150
3301,6929,-3103,-3671,-799,73,-1936
3302,7862,-7422,1394,1453,971,925
3303,4770,-6968,-2591,-1848,267,-177
3304,4780,3101,2370,843,1860,-1768
3305,6649,-1524,1318,1536,-11,-1881
3306,-4012,6080,799,1609,-1661,467
3307,7145,-1575,571,331,1714,991
3308,-5537,-6293,-2483,331,-1188,-533
3309,6446,5711,5989,-1221,-1920,-1508
3310,-3382,-3056,-7041,-224,-2,-1728
3311,-1340,7098,-3571,1494,-1741,-1610
3312,7349,-5198,6572,964,-26,1497
3313,1180,-1713,1702,-1699,1521,127
3314,-1549,1246,4751,1460,330,539
3315,7388,1056,-6567,1127,376,-1378
3316,-6633,-6085,-1067,1059,1889,300
3317,4577,5765,-4232,81,1595,1322
3318,2182,-6617,6415,-341,1657,-1034
3319,6935,2980,-7775,649,602,1710
3320,6959,-4368,-773,-852,-949,-628
3321,2638,785,600,736,-438,28
3322,-1435,-6038,-3591,1161,-511,181
3323,3469,7687,4438,-1425,-1747,-732
3324,7518,1186,6508,1636,1467,583
3325,2770,5186,6609,-701,-1596,960
3326,-1089,-2377,-7481,-1263,984,1320
3327,1867,-5171,999,153,210,1712
3328,-1950,6270,3031,783,375,348
3329,-4905,248,-1432,92,-1585,1219
3330,4936,-4948,1780,-1832,166,-982
3331,1838,-6687,3869,-881,1101,-969
3332,6244,4655,-2066,122,162,1971
3333,-1070,2872,6069,-1868,-892,1121
3334,-6876,-75,-6889,448,1739,-1139
3335,693,896,1126,1579,-1274,468
3336,6999,-176,815,1782,-822,-693
3337,-7674,3455,-1137,-1086,-990,-1671
3338,5245,4698,3382,1674,-1681,-328
3339,4251,6129,4739,-1519,1265,-797
3340,4922,-634,-2025,-709,-1045,-307
3341,-5704,-1539,1784,-1798,-1899,1329
3342,6649,5288,726,-343,679,-897
3343,-3579,4119,2410,1920,938,-631
3344,3663,5253,-6185,-467,230,165
3345,1331,7207,-2211,1195,175,493
3346,7827,7349,-3226,1382,-891,1063
3347,-354,-315,-3615,-112,-520,61
3348,-4649,-2344,1644,1694,-837,957
3349,2162,1101,1315,-1156,1803,1009
3350,2868,-496,226,-870,682,1561
3351,-819,-3882,6667,186,884,832
3352,121,-7443,-4836,-922,1347,1700
3353,-423,-712,460,1470,215,1420
3354,68,7747,-3840,1974,1826,-1646
3355,-1521,4600,5716,-325,652,-1077
3356,-782,73,-7293,-900,69,-1124
3357,1410,5408,1467,-1704,-1428,-576
3358,-5486,-2929,-3322,-237,505,-1040
3359,5381,6589,-5048,-744,564,-772
3360,5291,-3686,-5793,131,508,-548
3361,4623,1037,280,1846,1850,-1982
3362,4493,-3703,-4194,-82,393,-1076
3363,-7395,-3255,-1812,695,1426,-1840
3364,2092,5820,-6264,1569,-260,914
3365,6839,6721,-4912,537,783,436
3366,330,5615,4695,-254,-96,-404
3367,-1633,-5252,-990,-38,1071,-625
3368,3469,-165,2872,-14,-824,-1826
3369,-1023,4211,-2169,-759,1774,-613
3370,5770,6531,4773,213,-119,-23
3371,-4443,319,7291,-1127,545,-1414
