Sample,Ax,Ay,Az,Gx,Gy,Gz
0,-7453,-3732,5203,1009,1580,-1798
1,2166,3987,-4974,-1185,83,-1719
2,682,5546,-5369,-291,-568,1554
3,-4162,-4734,7367,681,-836,-1480
4,4624,736,-299,1764,1705,1368
5,2440,-63,-4150,-1559,-614,776
6,-4489,1606,-2197,-204,451,59
7,7288,-1637,-6878,216,-61,1464
8,-6568,-7629,-2339,929,-1432,1426
9,-7078,1181,-7975,-326,1684,-603
10,582,7273,7773,-1351,-124,322
11,482,-699,2275,-1603,235,527
12,3187,894,135,-1665,974,-942
13,5344,-3723,-4270,483,870,1947
14,3090,71,5183,1045,590,130
15,-2555,-1941,-4346,1708,725,-324
16,-2889,-6527,-5927,1432,-1724,312
17,-3938,-4527,-3037,-1327,-1232,-1493
18,-7814,3392,1602,-352,-825,-742
19,-2227,-6689,1141,876,-1983,-982
20,-6067,-828,6151,1724,1697,-270
21,1857,-410,3584,-150,-476,-602
22,1197,4115,3420,47,-575,846
23,-2883,-966,1217,401,-1679,-1315
24,-2140,6290,-1708,737,1327,1106
25,1936,-6745,-4876,-764,-1359,975
26,555,173,2313,1892,290,-1607
27,4122,7031,-2648,-486,-1617,-1339
28,-5628,-4176,-2949,458,-1538,-1258
29,3366,-1850,-1488,-1455,777,-649
30,6035,3210,6847,-1012,488,20
31,-2632,5673,-6168,698,-1967,251
32,5687,3754,425,-1913,-177,1497
33,3951,5252,6893,928,-1377,790
34,-7862,-5114,285,1795,-449,-1639
35,-37,1742,-3048,1078,-1872,174
36,6449,54,3513,276,-1135,-1897
37,1219,-2514,2796,-1866,979,-1062
38,-7788,-2120,592,-1088,1871,307
39,2418,-110,-338,624,1318,-973
40,-4313,-6484,-1497,-1198,-1907,624
41,-4275,-621,7036,-297,1778,-1476
42,4862,2998,2308,1587,1473,-405
43,-2515,1692,3798,-1510,-1003,-956
44,-7356,-7542,4199,-1133,-1988,-1867
45,7120,-1787,2435,1460,-1343,-1118
46,476,-2174,3265,-523,-325,1053
47,7659,5309,7681,-1203,1446,1138
48,-3930,-6264,453,1612,-393,-68
49,-3522,1674,1627,39,962,-1516
50,-2511,-7955,4238,-1324,-418,1127
51,2958,-6994,-2618,28,1219,623
52,-6412,-5214,4656,-1440,-1254,1311
53,3171,-5153,-1006,-1346,-402,1139
54,2446,-249,-4933,-30,-1001,-229
55,4105,7329,1220,792,1715,1189
56,486,-6894,-7854,-1357,1813,-726
57,-1688,5284,3077,-124,35,-1980
58,-5607,5408,122,429,464,1185
59,-1618,1032,-6526,-640,1900,1883
60,-1688,655,4720,-1737,1097,47
61,-4963,6081,7154,-507,-665,-1600
62,-2858,2492,2781,-851,-1226,-1609
63,-4299,-3615,-3991,-866,-1451,-778
64,-7310,-5887,4143,-732,-1200,720
65,3545,-4420,7534,741,-1563,-1956
66,2005,-6597,1203,1394,1346,-1864
67,27,-1366,4347,-1863,1383,-1731
68,-5704,1163,848,-1284,-1450,861
69,7150,-7105,1748,836,1895,1067
70,-6200,6186,-3943,-275,-632,-223
71,-1502,-5783,-5691,-1795,967,-624
72,4842,-6897,-25,821,1107,-14
73,-896,-1030,-889,809,399,864
74,-7756,-1210,-720,290,-1191,146
75,5064,-1350,-6901,403,1926,-120
76,5732,2774,1395,1868,-1388,-424
77,-3004,5590,7456,597,-1504,-1984
78,2940,1534,4366,-560,1579,1910
79,-5917,-4082,1483,-58,907,1439
80,3048,2734,3221,-1666,1085,153
81,3117,-3045,-2490,-594,897,-1739
82,4910,5803,4065,-543,1736,-128
83,-7913,-95,-7433,1303,1564,-1170
84,1731,3365,-5081,-758,-508,-1086
85,2551,-7150,-5550,1085,-1654,-780
86,4220,-480,-3890,1051,-1709,1183
87,-1825,7181,-100,1868,771,195
88,-6143,-7028,-6186,1996,-868,-854
89,-1001,-3331,-3536,-506,737,-134
90,-6289,6779,-4537,-1967,-1770,-1060
91,5186,-4330,3695,677,-326,-720
92,5009,-2283,6921,-38,-987,-976
93,5436,1106,3987,-1323,1985,-517
94,3662,-1254,-6477,-587,1939,697
95,6267,2348,-3159,-1971,-351,1390
96,-6975,5082,-2686,1389,-1993,701
97,5951,6554,6930,1468,376,-494
98,661,454,51,1399,-1953,266
99,-1601,4363,5197,-1824,-1164,1153
100,-1751,4442,7117,413,792,568
101,-7027,-1039,7514,1196,1537,1100
102,7540,1717,-189,-1085,-403,1086
103,-445,722,-6523,-298,1991,426
104,-4306,-7313,1744,513,476,-1751
105,7388,-3247,-5107,872,-1505,-1618
106,-828,1909,1844,1444,-756,-1240
107,5096,-1105,4782,-18,-568,-636
108,-501,6904,-4149,-315,1658,1836
109,-277,7238,-5656,1209,-694,-1588
110,2708,-5599,1937,-1456,-1066,-1197
111,-2671,6835,-3975,1676,108,-951
112,-3251,-3142,-5737,-1458,-131,-1490
113,-6867,-6122,7417,-1479,1070,36
114,-185,-7581,-4777,-520,-353,-1248
115,5112,5900,-871,532,1871,271
116,-675,5594,-6081,635,497,495
117,-5824,-1314,-1178,-328,-308,-1670
118,3948,5190,3377,1751,959,-1746
119,1729,-343,6936,1781,-1172,-428
120,5626,7303,-2063,1077,374,-993
121,-3320,79,-4811,-344,-1025,58
122,4597,3015,1071,180,-140,1856
123,-3118,-2146,-6035,-865,1921,1913
124,-2599,-2420,4866,1524,-361,1533
125,-5154,-539,-5070,981,412,1956
126,6254,-5768,6540,-842,227,727
127,-1563,-1572,-5945,1487,1907,-1808
128,2989,-2161,1370,-1680,97,503
129,6451,3391,2148,-20,1776,-1576
130,206,4685,1329,285,1661,1339
131,5969,6098,141,1234,-1681,1462
132,2299,7682,3962,-450,-1957,1676
133,-4052,5354,800,1918,205,-1096
134,-2490,-5673,-7757,-317,1056,-1516
135,-3416,-5023,3901,229,-1880,1223
136,5957,7723,-3423,-1986,-947,1895
137,-2573,3166,-1943,644,-372,-396
138,-3104,3831,-2088,-299,1587,-536
139,-3154,-2556,2309,1084,1582,-1784
140,1143,-3595,-6161,-1935,156,27
141,-5952,-7618,2687,-1424,412,-591
142,-5134,4850,-5373,-1027,1450,1466
143,4516,-1989,6077,309,-1746,835
144,-7922,-5717,-7973,390,800,1147
145,5335,-6142,5730,-450,-16,-601
146,-3290,-374,6492,771,-1823,-441
147,6757,6763,6929,1958,-285,-1378
148,3543,-2351,2290,248,-1907,653
149,388,1813,-1110,-1344,1696,-496
150,7025,-6516,-5580,-384,-419,1059
151,-4425,-4593,-800,-1787,-110,-903
152,5432,649,669,1225,-303,-179
153,7450,4035,-4720,1508,-1496,47
154,7867,-1332,-130,235,360,1711
155,5031,4853,7272,898,1443,-1026
156,-103,6019,7722,-1610,750,876
157,-6282,4500,7572,-664,-433,791
158,6245,3820,-5704,490,1358,1592
159,-7251,2165,-6982,-751,415,-1423
160,-6524,7122,-2484,1787,1977,-1127
161,6217,3657,-2708,612,-1875,-1461
162,-4420,5045,5181,1218,1208,-667
163,-7075,-6955,-6333,1368,1308,391
164,2562,-4734,7499,-1948,1957,-928
165,-3647,-3394,-6718,545,-978,597
166,-5294,-228,-828,-1306,-1845,107
167,-4804,-7393,7025,-1744,-1997,1910
168,-1510,-528,-42,-1710,1314,1702
169,-1130,-6911,-7122,-408,1511,-960
170,-789,2379,1627,327,-984,-5
171,-3487,2275,-7667,1001,-480,531
172,-1646,6110,1152,725,-713,798
173,4646,5572,6557,263,220,-721
174,2719,3754,-2742,-710,1939,748
175,1834,-3252,2967,-1899,1637,1516
176,-7768,-3632,-2932,979,1367,-1967
177,7189,-4351,-5528,1687,662,1282
178,6439,5221,-6915,-1962,1558,1688
179,3388,1963,-1149,115,-887,-1249
180,-4086,-6250,-5321,1873,-453,-856
181,1480,-7139,-7492,-1401,-786,-1759
182,2471,-780,2410,-1355,-1862,-1173
183,21,4385,608,1197,-246,937
184,1424,1388,-7184,254,1052,250
185,-7151,3290,-6665,-1166,1121,-1372
186,-2053,-1362,-4968,488,-1927,-348
187,5974,-6816,-6210,-486,699,-289
188,-1849,-2924,-1865,-1300,-975,-440
189,-3577,7519,-3525,-198,-714,581
190,-6270,-666,7803,840,1674,1727
191,-4405,422,10,-468,-1653,132
192,4723,5983,-3334,914,-1731,1270
193,-1109,5244,1785,855,-713,-171
194,-5945,6630,7393,279,-1136,-945
195,-7656,6570,-4960,-290,668,567
196,5705,-4861,-7037,-609,-778,-1249
197,2002,7970,-2111,-138,-313,-1679
198,-6336,-5206,7119,1303,-1436,298
199,-4975,-6086,-6854,790,329,-1934
200,-2377,166,-7353,325,-1820,-424
201,-6430,-2961,7020,472,-753,-471
202,6821,1089,4325,1665,-310,1805
203,-7460,-6906,1495,311,-1000,-742
204,-3468,-1117,5705,1109,1219,1156
205,-5571,1074,-2158,1498,-426,-1083
206,-483,-714,-6457,-629,549,-1930
207,-2003,-3052,2144,-393,-995,1476
208,2232,1550,487,1736,-1406,-1262
209,-3307,-7260,-903,479,1738,346
210,6407,-141,1590,-487,-1645,531
211,-6322,4065,-3394,-95,1443,1075
212,-3696,2573,6869,-682,-1529,-470
213,-6376,-2460,7376,36,1590,1891
214,5139,-7189,-5988,-700,-194,145
215,1127,7425,290,201,-932,158
216,-1767,3723,-5798,-1915,1813,-466
217,5796,-5676,-7297,-1657,-1476,-442
218,7363,1,2695,1108,-1873,1969
219,3927,7543,3260,-51,-782,-1326
220,1463,1544,2203,-1742,-87,-1186
221,-766,-380,-5436,1150,1328,-1561
222,-468,7820,4697,286,-729,276
223,-2382,-2779,-6304,830,-79,1308
224,6114,-7916,-3342,-547,1797,-1930
225,4600,586,1052,63,218,-1714
226,-1049,-3602,-116,-1903,-1360,1312
227,-5262,-6420,7784,1134,-937,-123
228,2733,-6100,-2174,-1158,-805,1004
229,5344,-1008,2692,-7,-199,-552
230,-3271,-1520,-5979,1956,-168,-910
231,4576,6362,-4215,-456,1448,329
232,3691,5989,-4128,-1268,-1831,-673
233,4731,-2540,-4172,-1512,1826,-1246
234,-4745,695,5671,-953,594,-881
235,-406,-5454,4631,345,1472,-1158
236,-3193,2352,248,-875,-791,1087
237,-6798,-6913,180,1601,-1381,840
238,6874,-6088,6123,1600,-1221,1671
239,-251,2013,2283,-1487,-881,-572
240,-1888,3359,2974,-991,-1887,-825
241,-3380,-4495,5304,695,1507,-1705
242,-6185,-6621,-3470,-1873,348,317
243,-6721,7532,4724,969,1345,1745
244,-5992,-1972,-3401,130,5,1158
245,-2602,-5463,310,521,1677,-1869
246,232,5478,5277,1975,1954,-1500
247,1917,-4361,-6988,320,-398,-1880
248,1331,446,2071,907,-1939,341
249,-7280,-387,-7837,1308,640,-1923
250,-104,-140,-6726,456,-1058,582
251,5209,6213,5610,-371,325,1641
252,-5656,-676,3951,1423,1523,1010
253,1011,-3033,-3244,-1071,1243,-1046
254,-1966,-791,-3719,-1207,-1183,-1487
255,7046,-779,4201,-619,1934,-153
256,3075,3725,-5906,1348,1509,-210
257,6250,3129,7100,1601,-402,1199
258,-5745,7487,-7211,-893,-220,-1898
259,-5706,2831,3487,1112,1680,-1883
260,4116,6854,2043,95,834,1015
261,-3229,3177,-1933,-578,-943,-138
262,-5028,-379,-5790,139,1933,846
263,1488,-751,-3402,1730,-1577,580
264,-1538,-3958,3639,-1088,-760,455
265,-874,2239,4089,-1132,-1126,-1831
266,-4704,-482,-17,-1818,-475,1835
267,-1333,-2548,-1149,-1937,298,836
268,-6317,-55,-793,954,-1431,1222
269,3688,-468,5978,-99,-687,460
270,2690,-7823,-5528,275,1907,1555
271,3064,-7205,339,-643,1814,-585
272,7845,7624,6136,137,-1459,1588
273,-5023,6355,6026,-1483,737,-1452
274,-1312,7356,-165,1251,-91,366
275,1334,4136,5182,-1546,-76,-88
276,7912,302,6395,-201,-1165,-1983
277,-6404,-215,-69,1966,-307,-1218
278,-3567,-5540,7910,105,-1672,1032
279,6755,5703,-2529,-818,-716,-1797
280,5398,-4251,1243,751,1566,-1070
281,1140,6129,1970,-879,-1008,-484
282,-5025,-103,-1681,-1702,-56,-143
283,2407,1026,-7832,1473,-605,644
284,804,7323,-7179,-663,-1353,1286
285,-5072,-7210,2202,132,1706,313
286,-1540,-4210,-474,1747,-308,428
287,-580,-7694,-1353,-430,193,-1015
288,-2467,1278,-7083,1936,1516,-623
289,-847,-5949,4571,904,-401,-1886
290,-7244,5243,-6540,-966,-516,-1135
291,-5423,-7605,4491,-373,1158,-1479
292,3310,652,-3997,-859,-1175,488
293,-1687,3569,7349,1581,-1832,1880
294,2736,7489,6493,1933,-834,-1137
295,-4020,-2496,7017,648,-776,1378
296,-1806,-3577,977,-246,-1777,444
297,-4802,5016,-539,-88,-1609,-713
298,-573,-1139,-1960,1625,-863,1826
299,-1204,6612,-6435,-1786,-1706,1282
300,-984,354,4022,76,1150,-577
301,7256,3867,-7156,-358,-1790,-276
302,1737,426,-6708,595,-1418,1279
303,1010,6215,2733,-849,375,1113
304,-5292,-2876,7865,204,625,-8
305,2115,1079,6612,1113,-986,-1038
306,-6601,-3771,809,-1491,1547,1117
307,2427,-6204,346,953,-757,-1673
308,-5518,3413,3987,-735,-1327,-1858
309,-660,946,-2693,834,974,-1025
310,-3552,-4087,-2354,260,-961,-1455
311,3245,6966,2577,-43,-780,1473
312,-3486,-1197,-6516,1151,-887,-449
313,-6754,-7208,-7550,262,1510,263
314,490,3537,-4974,-1574,1997,-609
315,5394,5172,7672,-745,-319,-540
316,3576,-6568,-1841,1716,-1471,1287
317,5828,-4755,3355,209,1572,720
318,-5419,7929,-1951,-1559,1103,510
319,4211,-7364,5368,-1847,-417,1398
320,2117,-4657,51,-1092,1765,-675
321,-2365,-5938,-2828,-847,-1278,876
322,7036,3515,-873,-1383,-1918,-763
323,3472,-6550,2454,-330,477,1083
324,-4982,-6932,6017,-1212,-550,-1578
325,-6783,-5423,3139,-1061,1649,419
326,-1816,-6236,-2903,-1606,1252,1061
327,5901,-4594,4749,-238,644,259
328,4634,6445,1767,-1297,-149,-1451
329,7818,7280,1528,-310,-1922,-158
330,417,-644,-7827,-463,1647,-388
331,-5200,3715,-5811,-187,1895,1218
332,2152,-4335,4633,1579,789,1090
333,-739,20,345,1969,1819,215
334,-4071,-6424,1374,-9,628,-1228
335,-7336,-6134,1918,426,1460,1327
336,-4432,-5387,6690,-635,1973,762
337,-1796,1717,-2535,-1425,853,-93
338,-1137,-5219,1488,-1915,-445,814
339,-2518,-7914,-4362,1548,43,-1561
340,-7821,3728,4147,1248,-1817,-1256
341,-1341,-3404,-1168,-1934,-628,864
342,5640,-1125,519,-274,-96,-330
343,-6498,3740,-4421,-1606,1177,510
344,-4087,7226,-5260,1656,-515,-1449
345,5335,2697,4097,-1240,-1866,261
346,4109,366,-340,1038,-1785,384
347,-7774,7452,-1624,-310,1961,-476
348,-1900,497,-2134,-1914,-139,-1935
349,-7660,-6816,5911,-745,1005,1907
350,-6164,-3285,1530,-348,918,776
351,-2634,1240,-5541,1805,1316,-131
352,329,-4204,-5888,-1461,-367,1632
353,2129,-3707,4160,157,1310,-904
354,-3881,-1288,-5039,1985,764,142
355,2819,291,1612,-146,-1516,1231
356,2657,7806,-7207,172,909,1234
357,-5064,1264,3414,299,-1650,-1966
358,4604,518,6781,383,-829,777
359,6614,6142,-7430,-1939,1432,1908
360,4950,-980,2734,-860,-1801,-438
361,5666,-5194,286,-1439,-133,-1845
362,2993,-819,-7340,1721,-89,-1142
363,6273,-3982,-7286,-652,50,144
364,2485,-3389,-2676,-1531,-1831,1631
365,501,3199,-3336,-1027,-320,-1067
366,-1452,222,-5392,-1039,1130,930
367,-7879,-2881,5012,-1799,954,-1537
368,-4857,-1891,7491,-1544,-327,13
369,3294,7927,-4617,-1450,-101,-1460
370,-1604,-3681,3060,-588,391,306
371,-5297,2440,4229,-465,1331,854
372,-1751,-6717,6997,-985,-684,-1934
373,473,7695,6314,1334,1397,929
374,843,3420,4185,-1275,-1125,466
375,-4968,-4972,-1570,-1981,1826,1586
376,-1052,-6114,-5123,-666,1106,-899
377,7964,-3380,6594,-205,429,1240
378,-6625,-4373,342,-518,-930,-352
379,-2087,-1550,-7791,-773,281,-901
380,-4748,1811,-2027,-1148,1376,-1227
381,-1788,-5084,-6606,1944,-509,-334
382,437,734,-2298,734,1598,-52
383,3453,2096,3179,1388,1099,-236
384,2851,2673,-1827,-663,-1037,-1220
385,6550,-6537,2492,-1158,-294,755
386,-3754,7916,415,1718,-434,-1728
387,7663,-7426,-6229,973,1592,-274
388,3945,7442,-1332,719,1049,-363
389,5675,4650,-1547,376,993,1243
390,4019,4725,-6847,-189,-897,13
391,553,1185,-3743,-344,511,1374
392,2900,-3517,5028,222,-25,823
393,2214,-1790,-3642,-1529,899,1785
394,1571,-2068,-3929,-439,1527,-75
395,4376,6919,-4283,-569,1277,791
396,6368,5531,-3497,-1561,-626,1169
397,1068,1368,-5871,642,-157,-606
398,4715,677,5969,1925,-319,1278
399,6059,-4857,-4417,-1597,-75,-4
400,38,699,3585,358,-1526,1158
401,-4261,4800,3399,203,1033,-102
402,-6185,6412,-4212,437,-246,1174
403,1799,-731,1076,-585,1222,-1421
404,-5895,2130,-2347,-829,361,-1467
405,-6002,4448,2416,-348,-1628,600
406,272,-6307,7648,1302,1989,-1098
407,-4155,2790,6239,-334,321,-356
408,2208,5672,-2880,1284,103,-379
409,2171,-2859,3365,-1339,-1051,1355
410,-99,4322,6264,790,-955,-343
411,5089,-4934,-867,-1474,411,836
412,-4166,-7201,4063,437,1884,-1169
413,6294,-15,4762,1227,-1850,1883
414,3328,-6179,6168,1376,69,40
415,-1068,-390,-2593,-1044,-138,831
416,1104,-2439,6936,-1218,966,-1363
417,-4461,-3418,-2857,-227,-1633,-863
418,-3397,7715,5352,179,1308,-982
419,6475,-4861,6223,1976,-1782,-341
420,1005,1418,-2306,1157,-100,-122
421,-3021,-5478,-6921,1916,-35,750
422,319,-7371,5929,-696,1572,-1342
423,-370,4863,-5098,-239,607,-1162
424,-5040,-2020,-1003,1702,717,-1755
425,4437,-6833,1737,573,1002,476
426,-1524,1241,-7293,905,-152,-695
427,-714,-1995,-4962,1907,-1625,1736
428,-1830,-5016,2319,-697,936,-372
429,6607,-220,-7332,517,-644,-1565
430,1032,-6819,-1778,1657,247,-956
431,6065,2332,-323,1910,462,-770
432,3966,-1283,-5637,1879,99,1693
433,-7665,-7467,3166,-1254,1772,983
434,-7739,-727,5712,1713,-1758,556
435,6459,-6917,-3348,1666,-794,-1421
436,-393,4205,-5471,425,1750,-453
437,4688,-2754,7209,1274,1081,457
438,3464,-6727,-3880,-1174,1386,-736
439,-7407,5639,-1004,301,-330,-1259
440,2324,-1980,6889,-600,-1155,-159
441,-7702,-1096,5987,-1916,1524,-495
442,968,-1177,607,-559,-1145,-1776
443,1260,2265,5293,297,-608,765
444,6805,-160,-3224,279,1116,1376
445,2466,-1939,1257,1004,1190,1954
446,-280,-6767,-7052,-1349,367,747
447,5911,-4057,-6603,1519,-1742,-1787
448,2328,5188,3898,1658,356,-1427
449,-5674,6619,-831,855,1287,-1209
450,3338,-3591,-5827,170,-839,921
451,-7164,-4092,3775,752,1729,929
452,-6317,-4392,-913,488,242,-420
453,-3551,6374,-4162,831,-1893,-1231
454,-1709,714,-3840,1568,925,-534
455,-5012,-1735,4948,-1253,-305,-1021
456,5281,-4060,5109,-1415,519,-203
457,-1198,-2038,2458,1214,-1271,-215
458,-1169,-1021,2052,-841,291,-1675
459,-7804,1383,6001,39,1923,745
460,3192,1721,-5661,27,-992,1195
461,-2250,-2781,-836,-1656,-1573,430
462,-2099,3275,2723,-595,-570,-461
463,-3007,-2018,4167,1832,-1592,-255
464,3990,4566,-108,-1185,503,1740
465,-1979,6118,1059,-1992,-558,1962
466,-6503,6169,-802,-1659,-1774,1460
467,-7473,-7524,7553,51,-374,-1758
468,-4795,-366,-6040,861,1693,1339
469,7376,-1739,7639,840,-1138,-513
470,6481,6667,-443,1703,43,886
471,1861,-5908,7501,-220,1423,1322
472,-5342,-4426,1949,1689,895,1332
473,2037,1073,1275,1580,-1818,1353
474,-2474,4531,-789,-1800,1696,1787
475,-816,-579,4569,1739,-44,-889
476,-5599,-6676,-1396,7,-309,-1620
477,5579,4540,2645,25,-428,308
478,4380,1838,-4015,643,608,1130
479,6334,1896,-6910,622,-1848,-1311
480,2946,-3971,2405,528,1433,1892
481,-5252,6463,-7083,-126,454,-286
482,-1340,6645,-4694,-1018,631,1681
483,3934,2020,681,509,1884,-570
484,845,-1005,-3341,-1278,-1503,-598
485,-1734,-4117,-1707,-954,1803,-655
486,-6857,-6759,7590,-501,1190,-825
487,4439,-3564,5076,-1338,-79,515
488,-3110,2055,6632,398,-1713,716
489,-3986,3321,5136,-854,1097,1672
490,7145,6013,5488,-457,584,1151
491,-4192,6570,6966,1829,1222,1135
492,-1075,-815,-122,779,-242,1614
493,5220,-5164,-2848,-1404,1564,-4
494,-896,4525,-6850,143,-1845,1810
495,2482,3589,3839,643,-1225,-651
496,6276,6272,-3052,-1206,1587,1497
497,-5393,-1334,-7587,1602,-1710,-14
498,-2124,405,-7907,-650,-1486,761
499,7111,-4860,-7272,2,162,-1702
500,-3198,-2984,6482,-954,1139,-1602
501,7708,-6431,231,-376,915,1037
502,5219,-2782,5520,-794,-445,-1708
503,1043,6006,-1582,-1109,-464,1762
504,-5322,-3997,-5382,109,263,-1197
505,6837,-4569,-463,961,1915,-1797
506,6228,-3412,-2783,-1023,-1161,1051
507,3509,3981,-517,-882,-9,1828
508,-4176,4652,2028,1723,-632,749
509,-5927,-3973,1002,1800,-419,363
510,2503,-7837,3640,521,184,-1972
511,7549,-3928,5070,477,435,622
512,-5621,-2911,-3670,1696,278,1039
513,-2979,7943,-19,1264,-401,566
514,-2049,-1952,-5972,1594,991,-306
515,-286,-1500,-1094,-98,-366,-514
516,-3374,1209,434,439,1688,1926
517,-7616,-1167,2352,937,-1217,1308
518,1861,-6528,-2226,-1440,-1847,-7
519,289,5928,-1883,-1952,901,965
520,7946,63,-3325,1214,-1453,16
521,-134,3033,5224,978,155,1299
522,-4398,226,4849,-1942,507,-1831
523,-4314,7643,-1428,1249,1018,1568
524,-3640,-4904,4827,-864,-1715,558
525,-2082,-6628,-596,1011,1676,1748
526,-2474,6485,5659,543,1105,1992
527,4740,-2947,-442,1441,1518,-116
528,-2432,-3031,-2307,645,1609,688
529,799,1297,643,934,-823,1283
530,-1950,5006,-2870,-649,-1003,-1970
531,5368,3018,-6151,-298,649,607
532,-3099,7916,2648,304,-1741,-1165
533,-2405,2333,1899,-696,-244,-1823
534,-2609,3878,4318,834,1474,329
535,6574,2286,-5765,1023,-134,1625
536,-2610,-4644,3669,-1992,-1874,-1712
537,3590,647,-4232,73,-229,-1196
538,2906,-1631,411,-309,554,1183
539,-878,2032,3012,1951,787,1880
540,-2188,-5102,6325,-964,1688,1621
541,-5075,3803,5202,-1146,43,-1786
542,-5433,-7394,-5468,74,604,-1763
543,4475,2438,-4574,130,818,1418
544,3141,5360,-5891,451,-3,655
545,-2534,-958,4421,1513,1512,-762
546,-2389,-1131,-5544,-1689,868,1453
547,3521,7515,-3778,1915,-311,-957
548,-404,-706,3906,-890,-1057,246
549,-297,1140,267,-3,764,1735
550,3941,-4213,753,229,-160,-444
551,3004,3033,1347,650,-596,520
552,6834,-3059,-3438,-1318,-515,1375
553,-7039,-5065,-209,-373,-365,1226
554,5520,-6431,-4885,988,1153,-214
555,2133,-2029,6871,-1061,-1323,-368
556,5529,-340,4856,-1099,1000,1808
557,6847,300,7408,1715,1348,1915
558,-4987,4604,6099,578,1162,-519
559,4060,-5941,-959,1036,-1245,412
560,7873,-7984,7955,1577,-450,985
561,3478,5497,-3267,1408,-1339,-38
562,-7684,-6084,-2751,-304,841,676
563,7561,4590,3658,-1225,-1412,1504
564,-4143,607,6113,293,-1654,1758
565,-4919,3744,5106,1616,-98,-1591
566,-2503,-1867,481,970,-1917,-1729
567,-6756,7958,-6097,-1399,-1512,-1677
568,-3050,-6150,856,-43,1524,-1789
569,-695,1292,1784,1394,-660,381
570,-5073,-1323,-954,1550,-742,-1971
571,6732,2612,-1268,326,-463,-1589
572,-5275,2872,-258,1832,-1916,-1544
573,-7977,-3214,4100,69,697,971
574,1334,-6290,-7581,-1804,1616,1727
575,313,4016,-5328,478,-1645,1381
576,-1459,5395,-6775,-1513,-1951,1397
577,-698,-4040,-4164,1717,-598,-1799
578,-6085,3624,-2413,-107,-739,1884
579,-6385,-5029,7562,941,-415,-152
580,-1819,-1151,5799,13,-1206,-1744
581,-3972,-5371,5904,886,-230,101
582,-1473,-4611,-2740,647,1706,-1069
583,-1555,-1142,4194,430,-532,-997
584,-4745,240,6337,1329,243,-1130
585,2424,-5930,6302,323,-308,-412
586,-5937,2030,5347,-1007,39,792
587,-6555,-2143,-3320,-565,-1908,-1812
588,-7036,2429,-1417,-785,-1258,-962
589,222,4140,5521,-616,-771,-1336
590,3362,1812,4975,-1203,353,-1460
591,6752,7798,3932,-763,1151,50
592,-6610,-164,3326,-245,-1294,-1598
593,-860,-7424,1091,-4,1561,-119
594,6306,-3379,-5754,-678,-1850,-847
595,-1753,2556,-811,148,1417,1282
596,7398,2301,-5074,681,557,305
597,7816,-59,3937,244,1381,-59
598,1569,-192,-558,-96,-1567,1583
599,6844,4547,-3682,1678,-89,-1233
600,-1865,6409,1482,-1154,-260,-774
601,-7260,3749,1329,-104,368,-779
602,1439,7239,7269,-632,-1489,908
603,-4317,-7996,-2495,1303,-268,1828
604,2925,-7104,-4764,440,172,839
605,-1340,3016,51,-1946,344,871
606,-5561,6504,10,-18,1508,-1332
607,-342,-3957,-5977,-870,-1662,1364
608,2646,6069,-4953,-1117,446,-547
609,-137,-3993,-1444,1456,-908,763
610,-6989,7204,-7725,583,62,550
611,-6472,-5380,-4832,1056,-1260,-620
612,-1877,6394,7524,-1923,-1922,-1838
613,-5461,-4004,5388,1731,-1736,-685
614,5460,7468,7086,-1414,1015,1601
615,-4747,5323,5275,-142,368,195
616,-7557,4044,6568,-275,821,-1534
617,-7784,36,-50,-433,-1027,821
618,-2896,-6516,-6667,787,70,-514
619,384,-1963,5590,-1975,-978,830
620,789,-3714,5086,-1124,1122,1890
621,-4771,463,-6527,547,-1566,-1333
622,-1007,5082,6088,217,-192,1839
623,-6614,2270,-258,-615,-21,-804
624,1700,-280,5289,-589,83,660
625,2851,5187,2780,906,-928,1498
626,4054,-311,7214,1791,31,474
627,-1439,-7667,-7774,1573,-1751,-716
628,6361,-933,7829,-1430,216,-1220
629,7744,-7074,5845,-1020,-815,1632
630,2680,2662,7641,-1165,1664,249
631,3907,-1284,5626,-1163,144,-1546
632,4039,6954,1545,-1407,1904,280
633,-4730,-439,-1915,1753,1084,-1627
634,-7343,-7708,-5373,-1058,-1848,1231
635,-49,2401,5053,474,1185,-223
636,5629,-915,-5641,1882,-325,-1559
637,914,-4924,1021,-1822,241,-1987
638,-4622,1674,4639,-1128,-718,1608
639,3689,677,-2101,1280,683,568
640,5795,181,-1082,1240,894,422
641,-1999,-587,7667,-1869,1081,-778
642,-392,-4257,3154,1325,-223,-412
643,-5058,-5526,4043,1315,-743,1256
644,-1988,-5969,-2829,-833,766,741
645,-1897,-966,-222,-115,1264,19
646,5058,-6588,-5292,1092,763,755
647,7259,-6418,7382,1007,-169,965
648,7176,6526,-2585,1104,1424,1888
649,-1588,-1925,-3958,-281,-1181,14
650,2940,-684,-535,-1309,906,-1754
651,3419,-3377,-6575,-1356,22,1688
652,-1839,-2167,461,717,758,1219
653,710,1246,3755,-1111,872,566
654,-7805,-6970,-3518,-1073,881,603
655,-3947,-7763,5762,729,1698,-496
656,6092,-6500,5013,1142,1139,1119
657,7995,-2998,2333,1425,-490,-1807
658,-1750,-186,-6111,1927,-341,1102
659,-1976,-3416,-5816,-1974,-1096,-837
660,-2691,-1875,2904,-1669,-928,-838
661,-2020,-4059,-7472,1422,-331,-1009
662,5411,-4053,-3459,1118,-1301,-461
663,610,-836,-6441,546,406,498
664,-1723,-565,4066,-1552,-1518,-1450
665,-5457,-7220,6337,-1231,1158,123
666,4603,5205,-3545,374,555,-75
667,6644,-5070,5610,1373,917,-353
668,7657,-5285,-5177,-1085,1869,1092
669,5348,-2541,-3349,483,399,-1650
670,4898,-3391,-5905,-1609,364,1972
671,-4422,-7257,6705,-164,44,-739
672,-2389,782,-7564,734,-449,-1598
673,-1223,5307,1261,-1940,772,-1720
674,-6847,-5322,6813,-1320,755,724
675,-4265,-2626,2796,1876,-1075,1989
676,-780,-4722,2988,1226,891,1770
677,-2486,2015,-2194,-163,1424,845
678,-1447,-1456,-1546,1119,-1386,-360
679,-5522,-4036,4473,1000,1976,462
680,-80,-7812,-3332,-62,-519,-1346
681,1622,284,-3558,1050,-22,-134
682,-6319,7805,-5902,1997,-879,1413
683,3294,4101,-2614,-47,-1799,-1076
684,-1885,4896,4338,-1141,364,1641
685,1158,1678,-2428,-1217,-184,-1845
686,7894,-1667,3692,1769,-248,-1286
687,2893,1466,-3895,-773,1736,-1079
688,-1203,2530,-5737,-1926,144,-822
689,6036,4619,-5503,-1064,1460,333
690,-4101,832,-3344,9,287,1126
691,-1679,2012,1718,-1394,-1127,-673
692,1111,-1634,-5754,-1735,-659,-1412
693,-3076,-1835,-501,1868,-431,-915
694,1107,4497,-3951,-1888,55,1252
695,7431,-4050,-7369,-1527,-273,1060
696,-7190,-3398,3265,-1600,-1389,-1922
697,-1262,7595,3323,257,-1832,739
698,3715,3108,-2836,-1817,-744,-653
699,5944,1295,5509,-969,-964,1944
700,2561,4759,-6586,-513,-1519,1461
701,-4138,4091,1399,-1508,-1356,-937
702,7084,6378,-7985,-1961,632,1305
703,3320,2829,-4517,1429,-434,-689
704,-2971,-6986,-7107,572,-718,-413
705,-6629,-5596,-2207,1896,-698,-1270
706,-5325,-1909,-6747,-177,-672,1871
707,-7009,7291,-4124,-196,-989,1199
708,173,-2342,6319,-619,-1187,-1013
709,-172,1745,-4102,-1198,-1275,537
710,-247,-5028,-391,-813,506,1127
711,1501,2455,-3507,-1851,-804,142
712,2206,6615,-2355,-1580,1817,1379
713,-7713,-2229,-1425,-429,19,1405
714,5748,1252,-5583,309,239,-1095
715,3841,741,-4095,1166,1663,-400
716,277,-3079,1559,2,-1232,-877
717,5260,-3755,3586,1683,70,410
718,-3442,-4482,-1658,-969,634,1748
719,-2299,5029,3419,445,470,1737
720,2174,6751,4049,-1376,1300,983
721,4870,-3222,5660,-1630,-1921,-17
722,4181,-7745,5200,222,1806,154
723,7388,-7447,1804,-49,-319,1496
724,-4110,6016,6675,-1774,-1088,80
725,-7024,6035,-2372,432,-60,-689
726,-6677,-5113,-1850,1614,358,191
727,-3094,5432,362,1090,-65,-53
728,1968,623,-4093,-1745,-753,-1426
729,-3516,-2951,7104,508,-1740,48
730,-2965,-1874,-1119,1782,16,-1944
731,7882,-7968,4556,-826,394,597
732,-1692,-2563,5486,857,1181,677
733,-275,-2031,-7551,907,350,370
734,162,2058,1781,705,-183,-446
735,3915,-7378,1468,-764,-787,-47
736,1238,209,3333,111,-1463,-1692
737,7549,6558,6291,-972,1401,-250
738,4839,-476,-6859,1926,962,-200
739,-1180,-2153,774,1053,726,480
740,-4776,-971,1901,-1696,378,171
741,-3240,4515,-2902,1711,516,1997
742,1548,2903,1222,-84,1487,1418
743,4357,-4107,6749,-1990,1396,-1374
744,400,-5164,-3591,1046,911,387
745,2178,-4083,416,-1060,305,-959
746,6199,-5922,1310,-1361,719,-1032
747,-6341,-4110,4462,-1540,1952,-1594
748,-5563,-2008,-3595,-1074,-1691,-1434
749,2464,-6936,2210,-1136,-546,840
750,-5716,3840,3203,-1221,-191,703
751,-3357,-6478,-7730,-1739,1879,-418
752,1077,-1379,-3255,365,1613,-873
753,7793,1155,-688,1276,1739,1172
754,-2846,-5856,-1344,-803,-1345,1231
755,-55,-7859,-5124,1904,-534,-815
756,19,-1029,-1009,-483,567,191
757,-6949,2046,-3373,-89,-473,-261
758,2532,-3630,-3215,-733,-958,-1043
759,4385,1212,-2879,-996,-428,1074
760,2810,2575,6976,-1216,393,-335
761,3204,-2311,-2922,-1113,180,-1525
762,-3473,-6353,5854,411,-936,-621
763,7432,7956,4650,101,1764,1189
764,4328,-4574,-7132,1825,1659,-1324
765,7323,3461,-7074,1345,-1952,630
766,7124,-6646,2113,1312,1478,-1940
767,1670,-18,2913,-1190,-492,1290
768,-517,6460,2451,934,-1837,1509
769,-5359,6798,1566,-1722,1308,-1765
770,5720,-6637,1604,380,505,300
771,-3128,-1482,3588,1143,324,962
772,-2913,1007,-6454,-757,1216,-1456
773,-2986,-4739,-4298,399,959,1791
774,5472,7452,-7079,843,1455,414
775,-4009,-6662,7781,197,-1167,104
776,121,-3668,3020,-1397,49,-1952
777,-5541,-7506,-3508,371,-1158,-415
778,-6231,-1621,-2082,270,1827,-1161
779,-1843,6253,6181,270,-1385,1774
780,-5825,4623,-3701,34,1589,-58
781,-527,7638,-2961,-452,1023,-222
782,-3532,7061,-1622,-280,1072,-985
783,-6898,-5014,1464,-590,1605,1223
784,-4558,-2166,7994,-45,1911,-1400
785,-4004,-3113,5555,1693,-1592,-1740
786,-1277,-432,-2849,940,1597,-805
787,-3026,-5620,-666,618,1616,-1129
788,1998,2234,4905,-1952,-907,1701
789,-959,2762,4147,916,1513,749
790,-2669,3811,7296,-1114,-349,-299
791,3195,6779,4086,1967,1044,1246
792,1871,3117,1325,615,-1316,-670
793,2658,-4154,2396,832,1919,-297
794,5949,7070,4541,-95,-1798,-1709
795,-6145,7143,6476,1685,614,1035
796,-3441,5439,3825,981,-844,1511
797,3469,5828,-3666,-1778,-1513,1548
798,1308,-5105,6184,-55,-1965,-349
799,2570,6682,-4873,-688,684,1124
800,6091,2333,-5557,566,41,647
801,2167,-6649,6413,-1534,-1170,-1520
802,-7131,-3428,-4022,370,418,-664
803,-2582,3053,7380,-906,-466,995
804,-5054,7659,7716,580,681,-203
805,6421,-4051,-2,-1498,-1191,-1888
806,6276,5483,-3918,1992,-1980,1669
807,-1362,-2478,-1719,-515,1601,1609
808,3030,-2762,-5279,821,-354,848
809,-7055,7267,-2177,1951,359,-593
810,6860,-7781,6502,-1762,-752,596
811,6772,4055,-3407,1966,-1125,-1930
812,3861,1034,-2177,847,168,1768
813,574,-5365,-4858,1854,-1668,-1080
814,-5314,-2172,-4529,158,1918,1249
815,6177,-372,-1998,-742,579,1995
816,2911,-5883,5430,1064,896,972
817,-2900,7988,-134,1576,-1383,-1945
818,3481,5017,7171,451,1010,1200
819,2622,6539,6646,-1777,1765,1030
820,-69,1685,-807,-931,-1484,410
821,5745,-2344,-4203,-970,1706,-1422
822,-213,-476,6435,-832,-758,1570
823,4969,6623,902,-1257,1980,1928
824,1352,-5977,-3418,-1625,-1479,-1453
825,-1103,-1307,1811,686,-1675,-559
826,3169,-5161,3631,-486,1393,-932
827,-3541,5404,-993,841,397,1421
828,7435,-1878,-5301,1860,1857,443
829,178,-5335,4667,-741,-970,1444
830,6235,3579,1431,-1761,1122,-214
831,7892,5190,-5495,-1492,-1856,-1004
832,-7643,-274,6931,306,-1414,-971
833,7468,3272,-3883,-791,-657,-1302
834,-7800,-6696,-1487,601,-1530,425
835,6293,-5094,2382,766,-1078,929
836,-2400,1483,-7774,-1476,59,-1267
837,-2680,592,3391,1240,-1921,1874
838,-6743,6672,-6321,652,1309,-178
839,1861,4093,-5566,390,-1193,443
840,1774,-4967,1343,488,-1419,-833
841,-4562,-4602,7910,-1944,-506,-1753
842,-4933,3202,5808,-32,364,1941
843,-6009,6045,-7568,-34,-207,1524
844,-6295,-5451,-6456,-711,212,-1691
845,5162,1893,-2833,1878,1410,-523
846,3919,-4843,-4823,-1888,290,-700
847,-511,6062,2703,640,104,-1261
848,-2409,7149,-3440,-1075,833,774
849,-5769,7865,-7116,-1161,-1803,-1422
850,4517,2011,5056,593,-1556,741
851,1042,2713,7214,1830,1018,968
852,-3284,-6307,6908,1479,-884,-758
853,-551,5595,3037,-1947,1502,-1192
854,7608,3617,117,868,408,-897
855,-3534,-2454,6850,-848,-60,301
856,4044,6351,-2069,-262,-999,292
857,-3056,4952,7014,101,1476,-1102
858,4057,7111,4510,-1297,-382,-1696
859,-1914,6896,7513,-1471,-1197,-1554
860,-2111,7835,3115,514,461,314
861,-7122,-3298,7494,357,-683,-431
862,3112,-683,-5683,-654,1511,-194
863,-5221,1488,-7638,709,-403,-1012
864,-2154,4103,1478,1199,1248,902
865,1439,1380,5602,862,-1911,984
866,2441,7259,-7543,-1204,-1536,-837
867,-5655,-1833,2049,-698,1813,1271
868,-7074,-7808,7181,-1814,1809,-1451
869,4680,3684,-3126,1984,-1893,71
870,-3399,-3169,-1405,-1583,-1730,-726
871,6517,-2719,-7808,-1737,-39,1657
872,3313,-5265,2230,-239,-464,-1226
873,5333,-2498,5338,756,-907,-719
874,7345,-146,-3319,1120,-105,1166
875,2563,5882,-7494,316,-1077,-612
876,-6145,-7100,-6653,58,-546,-1637
877,-5718,6047,-4069,395,1258,-1608
878,-3991,2514,-4161,-207,-33,1621
879,6103,2607,6165,-1708,1900,885
880,3078,2063,4915,1487,-1264,-243
881,-4904,-5483,2960,483,-36,-51
882,-1573,1234,-1470,1489,-1350,510
883,5585,-261,3495,-478,-188,722
884,-7576,-4182,1723,265,663,-387
885,-5120,548,-6056,1973,463,1940
886,-4887,5047,6423,-1227,-1215,404
887,-1251,-878,2376,1674,-332,-1548
888,-5912,4848,-2058,-1893,304,1713
889,4579,-4694,-734,-1777,-1776,-1838
890,-654,3183,1272,798,3,188
891,2299,3043,4104,-1606,1572,1191
892,-199,-4148,2188,1943,840,-1859
893,23,-2099,7317,-799,957,-1788
894,2094,-4011,5765,1747,411,743
895,-5637,-4187,-5714,-1171,-70,806
896,-1062,5542,2182,-1941,1399,1727
897,6079,-608,6972,-802,1831,-523
898,3615,4965,4667,1685,-1988,-28
899,-7806,4468,-5901,981,-1040,521
900,7053,6630,3805,588,1465,902
901,-1573,-4720,-6870,-231,-805,637
902,4131,-3595,5350,1155,-1141,211
903,-3633,6707,675,728,1380,1943
904,5469,-2619,-7545,121,1310,82
905,2868,-4823,3084,10,1858,1844
906,-3643,7272,-5945,1835,155,521
907,-6340,4530,4505,-919,-650,-1140
908,-1783,-6344,955,-48,-670,-931
909,7978,2656,7537,1353,-1302,97
910,-1231,5382,4351,-294,1645,-1963
911,6293,-5169,-2774,-1665,1853,-807
912,-1587,-6276,2408,935,-340,-1343
913,-5705,4537,-1898,-1234,-744,1936
914,4854,1674,4949,-1815,-1248,-1435
915,4423,-4317,-2494,-531,-1287,-837
916,5515,-1491,-3319,1293,340,771
917,-5005,-6344,-4243,-1539,1676,-553
918,-3514,6260,-3501,337,-120,-1654
919,1649,-3245,-7376,40,1405,-830
920,-7973,-2005,2472,-1186,-644,-909
921,-4318,-2495,-4931,-677,1598,-1741
922,213,6291,1283,1242,1959,-1144
923,-4288,629,-6320,1246,-78,546
924,2008,-585,-7363,-1240,-945,-765
925,5643,3639,-1954,798,958,-1428
926,5762,3670,2373,-1622,375,-181
927,-5155,504,-3574,-1849,-65,1839
928,7042,-3654,1122,-1047,1346,323
929,-7748,4338,-50,-1411,1450,998
930,-4605,5513,3891,1699,1003,1092
931,1062,214,86,486,-172,936
932,7624,7133,-2184,1651,1789,-777
933,-3784,1667,-688,-631,480,511
934,-508,-1709,-1036,-1423,419,831
935,-5705,-245,1767,-598,684,-1177
936,6372,7670,385,-1785,-361,1746
937,-2170,7307,5980,1931,1238,602
938,5807,-5963,-1992,1851,-865,-767
939,-5651,-1730,6752,1265,-319,-1386
940,657,-5585,-4911,132,1224,-1726
941,6142,3636,-7202,1454,-1115,1308
942,7092,-7532,-993,-1212,-17,686
943,-3559,-2758,-6336,-775,1698,-814
944,4944,-3715,-2556,907,1110,-1853
945,2603,4155,-411,1968,-1219,1819
946,6132,-978,-3799,409,-820,659
947,3187,-4979,2971,1271,721,762
948,5721,-4746,-436,1129,1105,681
949,20,-5378,2795,137,-1842,1256
950,-6872,3028,-6562,1576,1457,-939
951,5068,913,4304,200,-1599,-1625
952,-758,-3714,4075,-1699,-194,-521
953,5514,2222,3061,-1642,-1620,533
954,-7492,2025,-858,-1354,1331,1684
955,-5939,5788,-789,-1091,293,-439
956,5445,3199,-618,755,-138,776
957,-6122,5796,-7721,-525,-939,593
958,-3072,-499,2042,1006,1751,-1790
959,2733,1227,-4666,186,392,-1741
960,2304,5348,625,-884,109,-1010
961,-3104,-2048,-759,-63,-1842,-327
962,3658,-4660,7017,149,-866,911
963,3152,2148,-5928,-1718,-1529,-464
964,661,-3962,3210,1471,1020,1980
965,-6245,7040,-161,1247,364,1693
966,3817,-2889,-4959,-1786,-722,-966
967,1608,1024,-2712,548,1031,798
968,-5619,3535,-7493,434,-30,-26
969,7654,-3223,-3313,1121,-51,-283
970,-4398,9,2197,1896,-84,-667
971,1778,48,-7683,764,-230,1029
972,6294,-6765,-5843,-231,-60,545
973,3261,6921,-598,1636,535,-681
974,-859,-6009,7203,1306,-1955,-577
975,3724,-5340,-1273,-956,1546,1277
976,-1586,-3068,1245,438,-288,309
977,4461,6124,1772,1952,-298,-849
978,-4936,172,-4974,1529,1641,1847
979,6521,-7308,-4083,1521,-744,-1556
980,-4073,-1635,-530,-85,1245,1393
981,-4375,4722,-1578,-970,-1361,-400
982,6294,-5498,6709,-761,-1843,-190
983,-191,5965,-6449,-515,1110,-711
984,6217,-1574,6305,-738,-1223,-966
985,-3748,-4548,6312,-1582,1577,1568
986,-2887,2009,-978,-1342,-985,-356
987,-6613,-1483,5427,-521,-197,-1193
988,-1161,1242,-5727,-1797,372,-1380
989,-4100,5763,7843,1987,-1447,-790
990,-158,2114,6582,1522,869,-1399
991,-7877,-3268,7203,1080,-1200,1323
992,-4472,4577,4790,242,-1586,1272
993,-6726,7266,-876,-1528,149,-950
994,-3183,1372,3333,-205,841,-366
995,2389,1014,-7006,337,-1748,1257
996,399,11,422,1461,602,-30
997,7530,1286,1065,-1133,451,-572
998,4909,-2962,-6126,-1533,83,1729
999,-2126,-2116,6285,-26,1978,-1281
1000,-4058,-7720,4117,915,1316,-698
1001,-7730,3488,5635,1427,-934,-116
1002,-7402,-1031,-1796,1571,1132,-727
1003,3316,5043,2709,-1770,491,-1464
1004,-5597,-4899,-4524,-516,1515,-465
1005,6424,-3652,-179,328,-416,-1504
1006,-5843,-4361,5844,421,1867,-570
1007,2684,-2631,-5343,1870,247,1016
1008,-4194,-1050,-1563,83,1113,-1414
1009,-5033,4806,7472,-63,-493,1135
1010,648,-762,-5918,89,-451,293
1011,-7398,-24,-6803,1618,242,687
1012,-3174,7798,4109,660,-557,-1015
1013,-3367,-7789,-7023,1131,-669,-146
1014,48,-6761,-274,1627,1115,-1822
1015,4697,-6381,-7888,-553,-413,-679
1016,4748,-6134,92,1590,18,-484
1017,4391,-4316,3295,1778,1069,-1127
1018,-2342,-4134,6302,-394,-689,-261
1019,1132,-3796,4210,432,1322,-379
1020,212,5266,6225,-889,-742,-1996
1021,-4262,-1149,2416,1657,1112,-1842
1022,1415,3220,4910,220,-1552,677
1023,-799,-5462,2365,1151,1234,1788
1024,-1676,-4355,3662,-1309,877,163
1025,170,-254,-5901,-288,-882,-1673
1026,-98,-5639,-4300,-1948,1568,735
1027,-5422,-4255,-5429,188,-914,-966
1028,-31,-2889,-2865,947,-9,735
1029,6637,-224,-2582,-1125,1631,-1221
1030,15,2131,6346,294,667,-223
1031,-2923,4752,-2500,-575,-614,1147
1032,7400,-7770,3661,-1950,-1241,-855
1033,-5275,1206,3634,-468,1152,-998
1034,-7363,-1997,-2305,-1497,-1977,127
1035,350,-2136,-2160,-393,477,-206
1036,7824,-7909,1296,375,425,-1465
1037,-4264,-2278,-5330,185,1574,-297
1038,-2523,4912,-3135,-1610,1207,12
1039,3131,5733,6600,-1571,1658,49
1040,-5856,7391,-1773,1004,-345,-545
1041,713,6620,1332,-699,-203,450
1042,-3756,149,3201,-1588,1576,-268
1043,-4785,3424,-7160,-977,-694,1223
1044,4019,-2765,-5089,-972,392,-1430
1045,5325,-1601,-4120,581,-820,-1099
1046,-4442,1034,-6771,1824,1461,529
1047,4690,6677,3892,-1594,478,-1185
1048,-7925,2591,3091,1459,1833,-1988
1049,6052,5092,-6243,335,-772,-1123
1050,-2312,2122,-6939,536,-1670,-567
1051,-3441,7401,-4047,1786,1009,-495
1052,6343,-6209,-3846,-1031,447,-1697
1053,-3323,-4574,4773,-933,996,-142
1054,-6880,-2950,-6105,-1619,-344,-829
1055,-2810,-5185,-7229,1042,-818,-933
1056,3552,-99,-6599,805,6,824
1057,3821,3978,-2831,-1827,1782,1708
1058,-7895,3554,-7473,791,680,362
1059,-4618,-2666,3663,-511,1170,1349
1060,6254,-4676,1885,1608,-1248,-1322
1061,-7985,-3800,4009,-997,-655,-1739
1062,-6133,354,-2130,1320,-1154,-145
1063,6745,2561,4768,271,-1365,-1052
1064,5796,2593,-7642,458,1258,1105
1065,5700,-6635,-4411,10,94,-1323
1066,7978,-725,4155,1509,-905,1314
1067,6523,5634,6738,525,1410,-639
1068,-5138,6732,4080,1142,-1285,-1328
1069,-444,2314,1714,1500,1317,-1097
1070,-5640,690,-3691,1349,309,-380
1071,3305,261,7667,-837,-1570,-290
1072,-7587,7381,-5206,1550,-1843,-393
1073,1848,-4022,4306,-1187,37,-319
1074,-5964,-976,6515,1592,305,-1552
1075,3116,-6806,4555,1879,-1973,266
1076,-6388,-7938,5257,-999,-827,-184
1077,7293,-1122,7642,-310,-1749,973
1078,-7328,892,-5367,-1795,1816,1557
1079,-5057,6275,3425,495,-1099,-1766
1080,-4543,917,-4670,-40,1058,1419
1081,-4140,-6486,-5629,-1846,-779,-1986
1082,-273,-4884,7470,1566,-1430,1770
1083,2377,5892,1200,-883,942,185
1084,7393,-1989,-857,1258,-1125,-185
1085,-1868,7521,2780,-1160,1099,808
1086,-59,-6838,-3589,1020,1662,-1076
1087,6240,-2524,4500,-1588,-38,672
1088,-2937,235,7463,389,1930,-1080
1089,4747,-5530,-1023,517,16,-1829
1090,3367,-195,2415,797,192,1411
1091,5824,3364,3455,343,724,907
1092,3707,-1236,-5771,535,-238,-131
1093,-5758,2145,5359,-1964,-538,36
1094,7427,-45,6394,121,279,1341
1095,3783,5568,-4032,28,-347,524
1096,-1426,4190,-6988,1414,349,275
1097,-3383,-3464,-7935,-1806,1747,1540
1098,3429,-6623,6951,-951,1779,1944
1099,1670,-1692,-2984,1,-468,1662
1100,1949,-7540,4853,1991,-353,1126
1101,-6789,-4517,60,1909,-379,-744
1102,-3766,2756,-2968,-1085,-1777,593
1103,-2408,7836,-4709,185,-475,1504
1104,3069,-3391,7913,-1877,-255,-1943
1105,-5229,4272,4355,-141,-1180,802
1106,-6841,4349,-1720,-1537,-1691,-179
1107,785,368,90,476,7,-3
1108,1885,-6032,-3506,611,-1133,376
1109,5912,6526,4345,-227,-1223,-334
1110,-7988,-7282,7258,1760,-1208,1969
1111,6704,-4707,3331,1285,-232,1923
1112,3658,-5342,6828,586,-801,-189
1113,-5468,-4932,3682,-1521,-1523,-1397
1114,1807,-2302,-2385,-1140,1532,398
1115,-5573,3275,6599,1672,-415,-629
1116,1637,5193,-112,646,-336,250
1117,6746,1921,542,-121,-7,1556
1118,-4056,-2484,-4967,-1124,-383,-832
1119,6766,7265,-2528,443,-282,-351
1120,-3187,1550,5492,1072,207,1374
1121,-2566,-7606,6126,-954,1651,799
1122,-7378,4382,-5305,1856,1373,-1030
1123,-3852,7818,-5381,-962,309,-1703
1124,4465,-6794,-3448,-1402,756,309
1125,-7431,3208,6158,-1203,433,1351
1126,2739,-2495,4979,-1224,803,1977
1127,3399,-6340,-6754,1978,1408,1129
1128,4765,-7924,4356,605,-1087,-1263
1129,-304,-307,441,-1218,1299,1834
1130,-7225,2572,-7041,-1843,896,787
1131,6182,6556,-6846,1852,-1615,-255
1132,2797,-7573,1079,-1267,-1716,1170
1133,2147,638,-3327,-1942,-23,368
1134,-832,1764,-2219,419,-1456,-74
1135,2391,-352,-1356,-406,-225,157
1136,3926,6018,3976,1388,-153,-211
1137,-5651,-105,3397,1623,-763,549
1138,-6999,6185,1158,-762,172,-1161
1139,-785,-3585,-6642,1331,641,112
1140,4607,-7639,149,321,-354,99
1141,-1002,-3598,-2832,1896,-677,1802
1142,-569,-6380,-6058,-1205,-1397,1736
1143,-4886,-1397,-2258,-1347,1262,923
1144,-7706,-7868,2980,-605,446,1277
1145,-669,5001,-1417,1659,729,-460
1146,-6270,-5176,-3500,-1041,1272,1266
1147,1787,-6190,-6534,-456,1511,-1160
1148,-4739,-2609,4209,-911,-1877,-1668
1149,1181,-1759,2064,572,-1805,1330
1150,-4470,6161,4561,-188,1509,1049
1151,1761,7158,4929,-187,1820,-1360
1152,-4015,3781,3395,645,-1098,-1576
1153,4977,-2690,-2699,1046,674,-891
1154,3651,-6565,-5654,-1281,1451,1083
1155,6046,-2404,-7773,590,-1712,-664
1156,5912,1306,-7907,-892,-576,1011
1157,-6145,-6395,6307,43,-484,954
1158,2966,2545,5441,1460,-274,440
1159,1054,-1801,-7953,1263,314,-234
1160,-5570,4742,-3840,316,-842,1379
1161,-7388,1106,-325,-391,-1650,-222
1162,7595,-7295,4048,1802,1123,162
1163,127,-2886,-6845,-1706,1987,-564
1164,-6412,4693,-6437,-758,-1584,-559
1165,-848,7520,1865,-293,979,727
1166,5236,-3054,-4276,-826,1343,-895
1167,2373,5091,1596,-911,799,-240
1168,853,-1336,7311,296,1821,1171
1169,3137,-3239,3374,134,-704,-716
1170,3333,5138,-6676,-1544,1817,-816
1171,3627,-3991,4379,338,1988,1564
1172,-7426,4715,-1432,1128,859,1163
1173,-1819,-2726,-677,-674,289,-1199
1174,2009,-6655,4217,-673,-591,699
1175,-6956,-5614,-6639,-467,-55,217
1176,4924,-3084,-7984,-1847,-1681,-380
1177,4408,-1044,2440,-218,-1864,-1674
1178,-648,96,2733,-1482,434,654
1179,5937,-1539,-7855,-832,-638,237
1180,-7963,-1320,-6687,719,527,-566
1181,2973,-7490,195,-1728,-1969,-1233
1182,7633,-1444,4790,1870,1079,-81
1183,7630,-4207,-5588,683,1470,-1020
1184,4092,5518,-6654,-1212,-1648,-749
1185,4080,-386,-3632,-1844,860,25
1186,-5535,-7219,-6020,-1617,-1151,-1252
1187,7201,404,-94,-1076,-1483,-801
1188,-4340,-3581,4736,517,1492,-627
1189,4133,5937,248,664,-1165,550
1190,-2017,3612,3997,-1098,6,1817
1191,-402,5766,3971,-820,1689,-1774
1192,-2728,2757,2722,920,423,-97
1193,3696,3124,-365,-780,736,980
1194,5105,1546,7156,-1663,-1268,1928
1195,2077,-5218,2797,-1231,-954,-747
1196,-7068,7778,1038,-1971,-1175,-1196
1197,1013,6234,-3567,1841,-1638,-422
1198,6774,-4536,737,1474,1662,459
1199,-3880,-5223,3431,776,714,-432
1200,1597,-5784,-485,180,-349,-561
1201,-540,-1139,-6153,531,1565,1226
1202,7186,-1473,-3324,1753,-1757,1476
1203,-7025,-811,4972,372,1234,1119
1204,5942,-6125,2516,-1913,-1994,-749
1205,7347,3314,3902,886,1730,-155
1206,2256,-2864,-7018,1974,1323,-1239
1207,-3137,-7822,2634,-1963,-1287,-124
1208,2451,4135,1709,1459,1606,1473
1209,-1531,1898,6597,-1596,-627,-1433
1210,-6721,-2272,-7219,889,760,-318
1211,2632,1983,6214,1788,-1093,1659
1212,-1102,5690,-5880,-430,469,-180
1213,6079,5983,484,631,1242,-225
1214,1227,-3755,3140,-1570,673,373
1215,-5415,6579,3893,-286,-672,-587
1216,-1634,-6810,7545,-1431,-82,1325
1217,-4673,7767,-2526,1074,-695,1236
1218,-4891,-6891,-5042,-1972,-1926,-1187
1219,-7892,3191,-2888,800,-601,1613
1220,-7154,-4573,5144,1142,-927,1853
1221,-6151,3776,3559,-1068,-1725,1963
1222,-4168,7557,-666,-1037,1282,739
1223,7715,7146,5378,-414,-468,656
1224,1565,-2838,5280,678,-619,-271
1225,-2538,5920,-2052,-298,-357,1250
1226,-6856,7323,6724,-1584,-1591,-675
1227,6791,-210,5452,-1780,244,1418
1228,5651,6289,-7708,-679,1924,1407
1229,496,-6099,704,1026,116,-1589
1230,4695,-6692,6827,-1802,183,-440
1231,1384,-3041,1350,304,633,-1913
1232,3590,6058,3235,1477,1761,458
1233,2862,7747,-335,-1383,-218,1818
1234,-842,-4672,-6714,-1479,-779,1366
1235,7160,1123,4142,353,-365,1526
1236,-4048,-4182,-6715,-370,-746,-986
1237,2363,1977,3569,600,239,163
1238,-5081,-733,2824,-1331,-1885,-1063
1239,-1939,-3018,2755,-811,-1752,1172
1240,922,2957,-4788,-385,1197,-1494
1241,-7756,-6139,-4710,1087,1997,1654
1242,-3362,-5199,-6361,1979,1470,244
1243,-3791,-927,56,1177,-416,1334
1244,-980,1168,-3992,-1581,-661,900
1245,-4341,890,-6382,1484,-538,-15
1246,-6636,-1034,-913,-120,-1311,-296
1247,-2732,-1901,6035,-132,-1469,-658
1248,-2503,-3231,4975,-1718,-748,1332
1249,-6214,7836,-506,1156,-1661,927
1250,-6969,-617,-3227,-855,523,1093
1251,6040,7721,-5473,611,1905,1768
1252,-3966,1576,7376,-1792,726,1965
1253,4259,5439,3264,1645,513,-946
1254,-5368,-6111,-6207,920,-572,1361
1255,3688,7044,-2118,1800,321,755
1256,3878,-3166,3806,648,615,1771
1257,3331,1521,4310,1506,595,-1464
1258,-5934,2706,4638,-1196,-1731,-1744
1259,-7399,-1233,-4016,-460,909,-50
1260,-1572,6200,6767,599,-1032,-1210
1261,-654,4136,2784,938,359,183
1262,-3709,-1434,-6231,387,-1723,-692
1263,733,6934,469,-672,638,291
1264,-4398,-6744,3508,-1774,1231,-383
1265,-32,-2440,4802,209,-264,148
1266,6768,-6934,5750,562,722,1317
1267,4311,5381,7224,-1844,-878,999
1268,-7549,-645,2950,-1904,-1023,-1705
1269,-4371,-2704,-1710,781,-935,302
1270,2466,-2497,-1279,-368,-1790,871
1271,7391,6876,-6456,666,-184,1025
1272,-6632,-5223,-7748,-1133,-1947,1957
1273,3217,801,-1823,1729,-413,1851
1274,114,287,1732,-1809,611,-816
1275,1949,-7980,-1646,1619,155,1029
1276,6427,-3554,6452,-2,1737,1701
1277,-1942,1071,-7808,66,-1331,1287
1278,4506,-2739,1062,921,642,-280
1279,-7247,-5162,-6742,1535,-1152,1421
1280,-7260,5992,-3258,-1915,-636,-200
1281,-2464,1222,-7977,-759,-1001,-1781
1282,6019,3330,-3768,1550,1362,1128
1283,-3740,4971,6078,-1447,-1632,-483
1284,313,-4754,-4339,1161,1532,-814
1285,4961,-516,806,-1326,-1187,-1151
1286,1435,-5846,-6931,-1702,-676,-1776
1287,-295,-1265,-3518,-951,779,-1566
1288,2086,1019,1820,878,-1725,-158
1289,-3813,-3885,-2574,1970,-1674,1958
1290,779,635,2000,126,1171,-100
1291,-117,1763,2986,1543,252,1791
1292,7029,-1920,7309,-1846,-1283,1994
1293,5141,-6978,39,-252,-1145,-1889
1294,140,-2769,-2043,-107,111,-1446
1295,-7951,5572,-5375,506,1502,-1344
1296,3021,5168,-5574,839,-619,-1069
1297,5448,-3451,-544,-212,1050,-1546
1298,4432,-6171,6527,93,1852,-390
1299,-5905,6278,5852,-596,-1666,435
1300,2940,6385,-371,1378,-1511,1191
1301,-1397,-1575,-2798,-1163,-675,1513
1302,2266,7620,-208,-1540,-221,79
1303,4728,3312,5856,731,428,-287
1304,2605,-418,1222,1870,-1272,-1050
1305,-2951,-7948,5557,-1889,-591,-1330
1306,-6515,7008,-7179,544,-1080,493
1307,-5009,870,-4035,558,1706,487
1308,839,-233,3541,204,1981,-256
1309,202,6832,-6948,270,910,288
1310,2472,5609,-6091,-841,-896,-871
1311,2911,-237,-2951,161,-1900,-698
1312,1743,-3835,3921,741,-1125,856
1313,1089,675,-2250,-1628,502,-1354
1314,-5091,-3630,-7391,-729,722,-1866
1315,1745,-1802,7267,-396,-558,-281
1316,-4501,3135,5192,1366,894,570
1317,-5363,-7665,-3314,-1852,1242,1049
1318,-3883,3875,-7039,-1861,-202,688
1319,6241,-3779,3993,-1406,-1166,1809
1320,-3927,-2726,6996,-649,1397,1896
1321,3916,-7489,3268,1540,-312,-153
1322,687,1430,5735,-1565,-1533,-298
1323,500,-134,-3679,143,-1402,-1150
1324,7789,1449,6641,-1487,775,329
1325,-2422,917,-7265,-1700,1174,-51
1326,1535,-1271,6468,435,1185,1544
1327,-1752,7432,3970,-918,-366,-1995
1328,7810,-3463,1292,86,1345,-375
1329,-5243,1030,-1516,984,-658,-1965
1330,-3047,1500,-581,-1000,-90,-54
1331,-887,4889,-3753,945,-1117,646
1332,2966,-2803,7326,-1843,-1229,-655
1333,-223,-3894,-541,-447,-667,-282
1334,6007,-5777,4372,-1672,-95,195
1335,-4910,-5578,-5083,-52,-588,-552
1336,6403,-3807,3822,-523,1091,-927
1337,-1175,-2886,-653,677,1211,-408
1338,-2584,-6055,235,-313,1430,-1371
1339,-4928,1750,2470,-150,-1725,1736
1340,-661,-3653,-7079,1803,520,140
1341,2002,1248,-6558,-482,282,-1094
1342,5739,-317,2362,1260,14,-441
1343,4292,1033,4226,1137,247,-1369
1344,-6935,5049,4094,-270,137,-552
1345,-4337,1932,-3460,-396,-236,1591
1346,2145,-7075,-3711,1071,1165,783
1347,716,-1433,3911,1145,1094,1616
1348,-677,-2634,2461,-1993,-1370,-1284
1349,-7005,-6700,-4445,1350,-1658,-1508
1350,-4196,-7107,5591,-1863,-1429,1471
1351,1753,1800,6721,323,83,58
1352,-5031,-7815,-6831,-1115,1077,1362
1353,3764,1757,517,-38,-1703,277
1354,7017,-5664,-6167,-186,723,1644
1355,1237,3453,975,1283,839,1981
1356,5398,-6032,-1342,-1790,307,-980
1357,6002,-3575,1729,1707,664,127
1358,5318,4057,3816,-668,-583,544
1359,-7647,-4472,-581,-1612,152,808
1360,2458,132,-2232,-1940,1984,-508
1361,-6408,1887,-5710,1244,-1847,835
1362,-645,287,-7256,753,1415,1144
1363,-7127,3833,5263,744,-1649,-48
1364,2362,-3716,7086,-213,845,435
1365,-57,1561,-2489,-346,1967,-1822
1366,-6996,3889,-1800,-1344,1337,1812
1367,6923,4371,6402,187,1872,-1467
1368,992,5514,524,-1915,-547,1064
1369,7493,-6123,-5948,26,-535,-887
1370,1909,50,3147,-1484,-75,-1092
1371,2693,5756,6638,-818,1952,1313
1372,-104,5513,-5339,1323,181,1045
1373,7881,-3851,-2985,1252,-1709,-950
1374,7607,-6846,3709,1666,-1959,-191
1375,167,-741,7873,721,-1325,1654
1376,-6272,-5763,7817,-823,393,71
1377,-7767,5048,-4763,1667,-1933,-1472
1378,6532,-1813,5353,1110,737,-516
1379,-2207,3346,-5502,131,-754,-547
1380,-1037,4711,-6769,-389,-1493,-1005
1381,6892,2641,5458,1502,-1660,594
1382,3941,1424,-1543,-1669,-107,1254
1383,-1867,1958,-6035,-526,220,1000
1384,-7839,7671,-4924,-589,1121,738
1385,5126,-2132,-819,-1304,476,1868
1386,-6954,-157,7846,1310,-1418,-1936
1387,-3135,3874,3534,-1768,447,1805
1388,-2611,-7767,7705,266,-1616,-1576
1389,-2795,4977,-4702,1190,-824,1428
1390,-1007,-345,5786,-975,-48,-1040
1391,957,1226,-3486,-1493,926,-901
1392,-6088,1636,6517,-1687,-1767,-1450
1393,871,6242,169,-1784,749,1961
1394,4095,1278,5200,761,-1983,-718
1395,-5646,4687,-1670,1278,-632,-110
1396,1495,-854,-618,257,-216,-1346
1397,-7569,5564,-142,-863,846,-1854
1398,3750,-2585,705,-367,1780,-741
1399,5062,7146,-4823,-1051,793,1581
1400,-411,4862,-613,-90,-822,1239
1401,-5140,5552,1206,374,1761,-1156
1402,877,4394,4744,294,1509,1250
1403,1231,1874,-6134,1849,209,-1403
1404,-258,5952,-212,1182,1447,904
1405,-6532,7650,3831,726,1611,-550
1406,-2087,-6292,-1286,-1473,1036,-166
1407,7838,5439,-232,531,1728,200
1408,-1617,1355,-3927,-4,780,1674
1409,7116,3516,-6068,-1643,562,1582
1410,7549,1231,3098,293,261,-1092
1411,-7928,-6095,-5839,1843,1523,-1499
1412,-7802,-6681,-5026,-856,-1922,-491
1413,4914,-799,-810,-220,-553,-173
1414,-7787,-3314,7645,1033,-645,1513
1415,1630,6031,-5520,1406,388,1797
1416,-5902,-3074,403,-205,1395,666
1417,-5723,6989,-3234,-1691,198,-1390
1418,-4692,-4439,7372,299,1852,-295
1419,5273,-2606,-4946,-1926,-993,1524
1420,-7738,5086,-6371,921,-1161,-164
1421,-6321,6428,5097,1108,-1884,902
1422,-3495,-7337,-2111,-598,-568,703
1423,-4239,-3673,2448,-1947,-1142,1030
1424,6488,-328,-2442,-827,419,-1539
1425,1926,-921,1401,1220,447,-1111
1426,6636,-5315,2653,-1822,1950,550
1427,4501,4561,-4370,1023,985,1342
1428,5197,921,-3083,1770,-1023,-1134
1429,-7216,4734,-4921,-958,-257,485
1430,2672,-2208,-953,584,-1434,951
1431,-2306,399,1142,430,718,1784
1432,-6356,6989,3397,-644,-1110,-1597
1433,-1240,-4942,-549,75,-1052,1218
1434,4595,-1962,-2879,-626,326,-1254
1435,1096,7821,7132,1304,542,1467
1436,5628,2551,-4306,1136,260,1175
1437,760,6347,-4345,-958,-866,-884
1438,7711,7734,6152,1439,1568,793
1439,-6314,6053,-5616,-1062,-527,-1936
1440,-5782,-4814,1717,542,1988,-490
1441,-17,-3723,4324,-1337,-1717,-85
1442,7312,-4778,4452,-1298,-928,706
1443,2649,-4378,-3252,-1820,-211,1264
1444,-4326,-2497,4159,516,1145,1338
1445,-4902,5459,891,-777,-1198,1337
1446,2349,-4842,5410,-1186,1027,-366
1447,808,4391,-2274,-415,1009,84
1448,6431,1456,6279,728,800,1934
1449,-268,-5685,-7559,-874,1373,1897
1450,6753,-4263,-7642,284,1598,-1706
1451,7369,-5748,7630,845,162,1840
1452,4299,-5760,2761,-42,-1251,484
1453,-6534,-6390,2683,526,-1259,493
1454,5081,906,-4508,197,-1991,-383
1455,-4180,-5102,1828,-1103,-1780,-797
1456,-5869,-7387,-1388,356,-717,-1823
1457,-7031,-3641,3548,290,636,-693
1458,-2751,5349,-764,346,-217,-949
1459,6874,-4048,-1625,1718,-756,-849
1460,-5700,7808,-6159,-1534,1324,-473
1461,-4844,-1757,-4302,-41,-1495,1675
1462,4598,4758,-4712,599,959,1287
1463,1317,6199,-2590,-1394,170,385
1464,1817,-5903,-7251,1679,-98,-1209
1465,-5435,3486,2844,341,1455,1127
1466,564,-4154,-5782,-522,-94,-1351
1467,990,988,-414,1283,-1545,-1439
1468,-4045,-3871,-911,1516,1661,-1697
1469,6631,2648,-6914,942,-1453,1864
1470,3395,7978,2109,-937,-12,1812
1471,7482,2421,2107,1194,-273,587
1472,5453,-3352,-7196,-1821,933,1578
1473,3028,4902,3077,595,-1545,-338
1474,-4964,-4870,513,-1708,227,-623
1475,2143,1383,-5677,-1242,1769,1559
1476,-5590,4191,-6393,1716,-698,-1650
1477,3533,7724,-6015,942,1669,292
1478,-2161,-891,-2301,-1602,-1463,336
1479,2466,-4597,5972,-1699,758,492
1480,-4066,-5399,2100,445,-1890,-354
1481,3087,4176,3412,-1658,-135,78
1482,3978,-5908,3296,-1017,-1892,-144
1483,6520,-364,7426,-230,-261,1035
1484,-2081,-3171,-1077,887,-332,-96
1485,4757,1924,-3113,1638,-1045,1671
1486,3819,-97,6529,42,796,-1056
1487,5050,-500,4816,-1450,-1454,-1177
1488,-2654,-3492,-6028,-210,-65,-667
1489,-916,-4356,-5257,-810,-1461,-1439
1490,1319,7478,2853,-1656,1440,-80
1491,-7142,2877,221,658,-1173,-1070
1492,-6614,6914,-2961,799,-1019,938
1493,-5274,5842,-7691,778,620,382
1494,2611,4632,3116,1694,-1558,-771
1495,6883,7012,6430,-1219,-1777,-1275
1496,2787,6948,-3904,495,-1369,628
1497,4194,140,-6017,-563,-241,-727
1498,6895,-1237,-636,-54,-101,-355
1499,-4655,-6004,-4585,-64,884,1428
1500,5562,-3191,5417,1888,1042,662
1501,-3636,-615,-2937,314,-1150,1881
1502,6044,-5320,3942,-681,1545,-939
1503,-132,-402,1341,-304,-1328,-1824
1504,-1208,799,-4896,-1887,-1389,-1693
1505,-2632,-3050,-749,-671,1235,-284
1506,-1850,6602,2449,-135,-654,1390
1507,-6688,7818,-3137,-1849,-989,667
1508,3486,6211,-1030,-940,1637,-1726
1509,6382,6266,-1670,-641,-165,438
1510,5855,2526,-6196,447,1956,534
1511,1929,-4762,3745,-631,-860,781
1512,-749,7074,-4897,-147,-886,1329
1513,-2341,-5541,2699,-149,-1829,-230
1514,2570,-5053,-32,133,-1096,-1854
1515,-2506,3466,2834,901,-221,-1365
1516,7864,2522,-403,943,1987,-1163
1517,5204,-2034,2271,1936,-1140,-1183
1518,667,3976,-3056,460,1401,957
1519,5079,7193,-1536,1051,1002,-786
1520,3158,-6686,-81,-705,-102,519
1521,6452,1104,-451,35,203,371
1522,7858,5588,1209,-353,7,1688
1523,-1883,-2239,7779,-1197,-1923,-391
1524,713,2811,191,-337,-1911,-1684
1525,-6377,-920,1764,-1521,1954,-1915
1526,-2930,4559,-7016,1076,-775,1755
1527,-1277,-457,-1603,115,574,940
1528,-3668,-3538,5715,-1489,-638,-537
1529,-7719,-5767,-5361,-265,-1192,-1942
1530,3952,-328,-6804,438,634,-202
1531,-3222,-3098,6715,-687,-583,1354
1532,-7064,7548,-1932,-188,-1798,45
1533,7059,6,-2113,-1449,-1127,-489
1534,2513,6111,-4694,1242,706,1037
1535,1832,-3300,-1433,-1275,1390,-356
1536,7725,-5063,-1425,-690,548,878
1537,937,2014,10,378,1640,953
1538,4820,-501,-2188,-203,428,-741
1539,2449,-3759,6668,1169,-1536,-820
1540,-624,-4649,-601,-1166,-1479,78
1541,-4400,-5868,-379,-1852,-831,729
1542,745,4629,1779,-647,1551,1471
1543,6392,1214,-784,-1391,-1851,-467
1544,-6098,1353,1468,-588,-1593,-766
1545,912,1723,5251,1709,-1757,-520
1546,677,6932,4162,365,679,1699
1547,5041,-3218,6881,-194,1335,-287
1548,-2323,2168,920,813,-1859,-1078
1549,207,6824,-110,-443,-1004,-557
1550,7791,4786,6824,10,-575,-915
1551,5452,-2887,987,-1993,1833,-1409
1552,-7677,-3851,3740,-1518,-1019,1371
1553,-862,-1553,208,-1869,-1503,1690
1554,3820,-4320,-2481,-157,-1068,-920
1555,2840,-3289,-4367,-1877,-104,-1279
1556,-7538,6228,1356,-1373,-1806,-374
1557,-7843,1298,-2365,-516,-1352,-1102
1558,-5430,1055,6782,-1195,-748,459
1559,-328,6480,-4999,137,1632,-1950
1560,6058,-2093,-7380,-578,-1620,1232
1561,2277,2796,4571,-1055,-1682,1712
1562,6828,-142,4310,347,-559,1436
1563,-503,-6911,466,529,333,-864
1564,-1000,-7036,1400,-1883,627,-382
1565,-3155,6548,2900,717,1399,-1891
1566,5245,-1181,-6398,491,-544,-197
1567,2850,4880,2923,693,47,-1412
1568,1592,5009,3644,-1969,1126,-858
1569,7214,-7306,-638,1529,-1559,-982
1570,-7713,-1762,-4387,953,418,-1720
1571,-4504,-5281,-2617,308,215,-1827
1572,-6435,1821,-2295,345,1934,-601
1573,5082,762,-4848,-981,1820,-486
1574,-3626,1413,4774,1986,1761,755
1575,5157,4051,-2601,1130,14,581
1576,-7410,5570,3466,-1544,-1398,-1227
1577,-4247,960,4759,905,-756,763
1578,1760,-4568,-656,-688,654,1328
1579,-7163,643,4269,-817,1309,841
1580,-5171,7312,-1100,1909,-378,842
1581,-5730,4310,-5450,1980,69,1852
1582,-5468,7050,-5892,562,766,-638
1583,5558,3975,-1392,541,-264,-1920
1584,-6992,-2679,1495,-266,1820,-353
1585,1353,7193,-6009,-807,-668,-1315
1586,-4124,-7248,-3030,1616,-730,-1749
1587,-4810,-6914,-7892,-1968,-748,-365
1588,7162,3296,-631,1711,1178,-1281
1589,-4525,3745,-3027,172,-1487,656
1590,-4733,7611,5339,352,-44,-1152
1591,-2339,-5346,1463,-1523,1615,-316
1592,-6623,-7269,-4838,1513,-1585,-1086
1593,-395,-5905,-249,-886,-79,-1271
1594,-1826,-6438,4762,580,-374,915
1595,6095,-4757,-4245,-1760,1941,607
1596,591,2325,-4650,-1878,347,155
1597,-4954,-6031,-5159,-599,-455,-463
1598,-1419,-7800,-2702,1099,-1688,1057
1599,-2304,3806,2589,1630,415,1805
1600,-2666,-4118,6795,-284,1200,-875
1601,-4769,-3445,-1402,-1285,842,-131
1602,6288,2575,4932,-1518,490,-136
1603,-2509,-5968,3356,-1100,903,-1613
1604,817,-3272,-3887,-611,32,-752
1605,7804,5639,-4025,908,171,1534
1606,-767,6422,2008,1971,1431,-1588
1607,-366,1192,2551,958,1020,1838
1608,4183,5833,1224,-949,-1564,-174
1609,-747,513,942,-1220,-153,-1021
1610,-7019,3762,-903,617,-596,-199
1611,7993,6073,-7462,-265,-613,-839
1612,4744,5987,490,-1971,922,-38
1613,-7158,3963,-4993,-1476,-1591,-1288
1614,5324,-3051,4798,1018,-1991,1097
1615,5346,-1339,150,717,1165,885
1616,-4488,-7806,-5351,-397,76,-1369
1617,-7292,5896,7467,-170,-1024,1565
1618,-2055,1486,1879,-1686,135,207
1619,-1636,2807,5716,-747,-358,-1684
1620,4472,-5986,-2426,-474,-1801,-570
1621,1370,7273,-5529,946,-1219,-722
1622,5967,387,-2401,-1001,-613,191
1623,-630,2967,6975,936,-1784,1964
1624,371,2265,5936,-1974,-885,1814
1625,1094,-3064,1952,1145,1684,-1915
1626,-3661,6208,-7929,-1802,-303,857
1627,3588,4107,920,-1370,-1059,1944
1628,-7788,-7109,-1473,-1404,-1174,1882
1629,-4516,4798,6295,-140,-1581,1863
1630,-720,-3830,1346,12,-83,1726
1631,-3871,6407,-1181,1590,1962,457
1632,2781,3962,114,1861,-721,-632
1633,6085,-635,2431,-883,-722,-1621
1634,3384,-2680,-4922,464,515,31
1635,492,-6724,-3828,-656,-340,-247
1636,3941,-4031,-49,-119,-1809,-813
1637,-2435,-4854,-676,-332,-743,-1673
1638,-3219,2431,1739,1759,-172,1029
1639,-2520,3428,-1620,856,-47,-1196
1640,-5044,-3903,4738,-984,743,177
1641,3965,6937,-5375,-340,1718,1569
1642,-6253,-7727,3283,1229,-725,-1522
1643,-400,-2544,-3832,1865,1211,-1409
1644,-5013,-4347,1380,-1540,-437,718
1645,5249,-2687,5058,-1889,122,499
1646,-1423,-6051,5944,-294,168,-1159
1647,307,-591,-5215,-658,1627,12
1648,-7807,-870,-2484,-690,-966,1202
1649,4121,3563,605,-459,1841,1737
1650,-6854,6886,6458,-913,415,-254
1651,6841,-7208,-2757,1973,157,1734
1652,-4642,-7389,-877,-1413,1017,999
1653,2866,1281,3685,-444,820,-1229
1654,2600,6849,7473,1770,135,-1723
1655,3840,-3865,-7849,-1799,-1227,574
1656,-588,-7322,-970,-1234,-593,-406
1657,-7565,7292,513,-641,157,-1308
1658,6243,2461,-3702,1185,-1699,398
1659,-2089,5686,2569,492,1317,-834
1660,6000,-1390,4249,-1422,1835,-1899
1661,-5723,-2153,5941,64,-1643,602
1662,2813,7886,-4614,689,1333,-1560
1663,6437,2066,6475,-1824,-1568,-1995
1664,5760,-7048,-325,-1053,-1782,1926
1665,65,-7273,-7554,319,-302,996
1666,4859,-4130,3866,755,-914,-1832
1667,-2879,-5022,6617,1391,1216,-1385
1668,7843,6489,-5434,-1705,728,-909
1669,-1838,2818,4837,297,1097,-676
1670,1783,5499,-7787,-1650,-605,1752
1671,2380,7063,-1300,1079,-1506,1691
1672,-5588,3757,-7045,1880,1306,-1647
1673,369,-2290,-6229,1049,-360,323
1674,7770,5835,-6100,862,1966,594
1675,-359,-5928,1514,-38,-327,-176
1676,3283,-3714,7391,1820,-764,-1721
1677,2262,3770,2208,-358,-267,-507
1678,7242,104,-7828,1854,725,-1374
1679,4633,6491,-1456,-1299,1442,374
1680,-2499,-7937,-3130,-1550,-649,666
1681,3513,4380,7654,-1171,229,1637
1682,7593,-6444,-6867,152,-308,1047
1683,4050,-7414,-3722,1161,1886,625
1684,179,1759,-6097,-483,252,559
1685,2996,-7801,3132,-1913,-275,1759
1686,-6489,-3145,-6583,-737,305,1320
1687,-4420,-4635,7118,-953,1377,1518
1688,-2432,-3081,-7684,1332,1888,1363
1689,-6936,-3627,5986,316,-1482,-107
1690,-233,-7681,1030,51,1925,720
1691,-4721,-7741,-7056,1524,1215,730
1692,5278,-3187,2815,-549,1935,90
1693,-4800,-7591,-2150,-1725,-1068,504
1694,-2635,-4038,-1328,1059,1291,949
1695,358,5759,-330,720,-654,-887
1696,-3021,-3730,2950,-1789,-865,-1909
1697,-3478,-6864,3408,-20,576,1886
1698,-1229,-5310,1786,-792,-826,-1416
1699,-523,-7771,-7781,1113,335,748
1700,7377,1935,-3011,-1055,520,1541
1701,-3137,-4227,6681,-745,-1712,1956
1702,-2923,2115,-7817,1264,1796,-916
1703,5594,2530,-5765,1359,1336,-92
1704,2837,-2247,5361,-611,1958,1513
1705,-1910,4394,-6779,-738,-398,-1696
1706,4778,-1259,-3236,863,-1590,-338
1707,-5736,-7715,-6740,-314,1515,1017
1708,2336,-4298,3130,-265,-937,524
1709,4101,-2115,5943,1930,858,-1606
1710,4981,5424,7104,968,-596,893
1711,7454,5174,-5134,-548,1733,1108
1712,-7059,3831,3176,1689,227,1742
1713,6278,6768,-998,196,-1183,740
1714,2555,-1273,-3380,77,1466,321
1715,4,-2510,-7870,1551,814,56
1716,5400,-1757,6993,522,-145,-296
1717,-6356,-713,7223,914,1106,-182
1718,7352,7235,5721,-507,564,-1767
1719,-2963,7657,-7193,-192,1980,-849
1720,-4100,293,5248,-337,-93,-1786
1721,-5511,1098,-6227,-1037,-1559,-1594
1722,-1914,4572,2815,856,1722,299
1723,5195,-6547,-2384,-702,1496,84
1724,-7401,5256,-1532,667,-1619,-914
1725,-4926,2685,4535,1086,-1106,316
1726,2246,1803,-2513,-419,981,1630
1727,-5964,-7466,7279,-1927,-463,1761
1728,-6449,-4955,-6052,-1068,378,-1166
1729,979,-7143,-2189,-1924,633,1143
1730,404,-7957,-5485,-1051,1741,-1767
1731,4625,-7451,6326,1143,-954,-1786
1732,6410,-4111,-1695,-1172,-322,543
1733,-331,5724,1113,601,341,1298
1734,2105,2440,-926,91,1345,154
1735,3920,5062,-417,1080,-259,872
1736,-1362,-7282,4522,487,378,-1270
1737,-1230,-6251,3382,1388,-1157,1991
1738,-770,-224,-6724,-467,-318,631
1739,4348,2879,7802,1020,-1844,-788
1740,-5400,-6999,-6395,-1754,-782,1842
1741,103,5855,-6042,-1919,-335,1989
1742,-1120,5500,460,-609,-706,275
1743,7982,3376,-6083,654,1785,275
1744,-3430,5132,-3145,-1999,-865,-1411
1745,-6159,-6553,2409,-1969,-682,-1927
1746,6696,3122,2722,1989,-1535,633
1747,3356,1128,4761,955,489,-1259
1748,-6042,-4469,460,-1299,-140,-1289
1749,-3211,-1477,-2493,683,1984,-1464
1750,-4203,4541,7682,-1492,-495,1163
1751,-3584,-3793,6293,1858,388,1008
1752,4904,3984,5581,795,-1779,156
1753,1395,6995,-3460,-1448,-1431,-537
1754,-221,1789,-1450,-345,1008,1396
1755,-7677,3921,2790,715,-785,508
1756,4385,3564,-4143,-1478,343,-1673
1757,2073,428,1659,-1482,-1282,-915
1758,-4127,-7694,-4271,-1627,-1727,1779
1759,5039,1393,-2798,623,1902,1808
1760,2231,-2505,5850,776,855,-1691
1761,5510,4081,-6139,565,1861,-208
1762,-5571,5461,7714,1832,44,1223
1763,7230,6815,1671,1498,-1426,-1069
1764,4329,-4875,-5307,-431,-663,-965
1765,709,-3300,-2501,-1476,1192,-221
1766,-36,4982,2025,-919,565,1814
1767,4866,-5473,-4442,-330,-1590,-689
1768,6989,-2314,3995,1753,-3,160
1769,-2109,6451,5747,-1583,311,38
1770,6591,7435,-6994,1398,1678,8
1771,4885,6870,3737,-1259,-111,1284
1772,-1763,-5928,7156,40,326,372
1773,3912,4400,-1668,303,643,-239
1774,-7988,6711,-1371,-551,-1822,636
1775,-7920,4045,-6303,-1502,1127,608
1776,510,6940,-3619,-1394,206,1742
1777,6470,6020,1183,694,1904,1032
1778,261,2614,-7798,471,452,1693
1779,5977,-2137,-4289,-901,1516,1783
1780,6215,-4766,-5118,98,-1322,-190
1781,3155,1657,2290,-1533,1838,-1470
1782,-5797,-6356,3254,-1604,-966,-552
1783,-2338,-3108,2580,-222,-1064,780
1784,14,-2788,-6045,-1610,517,1879
1785,4730,-5637,5800,-1641,1200,-1733
1786,2561,-5971,-4276,997,-1505,-1534
1787,3652,-7301,3828,-1042,-1821,206
1788,7851,6092,1125,-845,-552,-1994
1789,5616,792,-1428,1201,984,675
1790,6269,-907,-7401,-453,680,-1789
1791,5631,-1530,4400,577,1355,1243
1792,7250,6771,-1435,-1987,360,-876
1793,3165,4180,5494,1800,-1378,-1703
1794,-6190,4603,-6583,-685,1685,1271
1795,-6936,4511,3267,-1641,1697,1132
1796,-422,3685,1292,-438,583,-953
1797,-5830,2375,-1670,221,1939,1581
1798,-7370,3378,-6465,-411,-1869,1773
1799,-2304,-7942,3132,28,1788,74
1800,2673,-6147,1472,528,561,545
1801,7613,7212,-6532,-804,534,-260
1802,-5590,-4048,2340,-159,1209,926
1803,-4948,1794,-4855,259,-1893,-1121
1804,-1485,-1324,-4728,1182,334,-15
1805,-4385,-1558,6555,-235,1606,-279
1806,-2585,2045,-6241,-1117,1250,-111
1807,4105,7947,6998,-222,-1062,-667
1808,2037,-3453,-2658,-443,-1958,736
1809,-2431,2254,7775,-624,-601,1369
1810,6809,7677,-768,-1420,-327,1845
1811,5735,-289,-6887,1260,1248,5
1812,7460,-4971,1252,-503,928,1156
1813,-6681,3163,7751,-1253,345,-1760
1814,-2617,4810,-1164,-1179,30,1759
1815,6897,2313,-7034,456,1190,752
1816,2591,-2642,-1503,172,-777,1856
1817,5291,-328,5941,-313,-1178,-1108
1818,5969,-1520,1946,-178,873,-1247
1819,6320,2841,6533,-978,-1502,1965
1820,-824,84,-47,-1473,1810,-890
1821,3059,-2467,-3453,33,222,-1297
1822,2345,-5013,2999,-1021,-1046,-1896
1823,-5593,-1110,2750,-1305,1450,-1765
1824,-5028,-7964,7690,-1397,-304,1992
1825,2287,-221,-7502,-533,-1716,-1182
1826,5983,-4213,-5433,-1182,-375,-236
1827,6253,-1171,-5700,518,-622,1643
1828,2177,-1697,-3313,-340,1952,-1446
1829,-2487,1199,2899,-1406,526,1991
1830,-3239,-3638,205,-100,734,-287
1831,4536,-5281,-4723,-537,-1257,-1102
1832,6483,-4589,832,495,692,409
1833,7095,664,881,819,786,-1866
1834,6031,2076,-5898,-1240,362,-309
1835,-2814,-6666,-4556,1956,1181,-340
1836,4885,-6725,4522,-86,1985,-597
1837,-6708,1208,1656,29,116,-377
1838,5707,550,-6033,-842,1858,1737
1839,-5120,-181,-7898,1514,870,1862
1840,-5114,736,-2886,376,-623,-1997
1841,-7450,-5167,2017,1723,-1288,1834
1842,1140,3483,5014,-1249,-392,-1147
1843,-1123,-2431,-1586,-989,1284,-122
1844,-5449,-5732,3202,559,-1581,-221
1845,616,4455,7506,1141,-1260,99
1846,5534,5331,4367,-1535,-274,-797
1847,-3478,7201,-7949,-1951,-1696,1620
1848,-2735,-3648,-4554,-827,-1279,-1246
1849,2368,-7202,3425,1327,-859,-1987
1850,-5444,-7003,-3119,211,723,-1966
1851,-3519,5949,2353,503,-1501,962
1852,-1540,1231,4340,-85,-60,434
1853,2073,-6506,2053,653,-493,916
1854,-1755,3903,200,628,-606,291
1855,-6677,-1725,-5010,705,-951,1884
1856,-611,3852,6817,-970,1604,945
1857,-3459,3724,-7582,1833,1630,-964
1858,-5682,-5820,-5771,-489,-1873,-1156
1859,-6540,-546,-2323,1282,-1628,-785
1860,-5075,-420,1054,538,844,1515
1861,2832,-168,1204,-1728,101,1310
1862,-3685,-5818,3073,-1195,373,-478
1863,-6037,2221,-3096,-512,-1386,688
1864,7618,1221,2389,-763,-448,-631
1865,-5741,5544,3994,734,-925,-1410
1866,4047,-6951,-423,-1363,-1248,-685
1867,-7534,2078,2894,1307,-1185,339
1868,5453,-7388,923,-1196,793,251
1869,2530,2226,-5352,1372,-1907,937
1870,6937,5362,-2451,-407,612,-405
1871,1360,-4334,-1822,-447,-495,1361
1872,-4835,-4243,-566,-1853,-929,806
1873,-7141,3418,6628,-123,1161,-109
1874,4681,-6147,-2662,891,1788,81
1875,5441,-7483,5407,987,-1566,-1625
1876,3156,230,5629,-68,-1468,317
1877,-6403,-3592,-2884,-1914,-1135,1170
1878,3723,-3663,-2993,-4,1455,-852
1879,5729,7767,2748,-57,1208,-132
1880,-5634,-5008,-5231,-376,1401,-1589
1881,-5788,4319,7963,317,1540,109
1882,-1123,6609,7022,-54,1098,1791
1883,-4420,-6044,5210,848,-1628,-1086
1884,6779,-3737,1881,-720,443,1804
1885,-247,-1897,-252,-1409,-1744,921
1886,-1642,-6474,5597,1697,608,615
1887,2130,2951,4741,-1161,-134,202
1888,3233,5153,2910,1068,-799,-1309
1889,4350,-7591,-2124,-1607,-652,1543
1890,7122,-6922,-6908,-691,-617,-42
1891,3448,5911,6965,1838,-1690,871
1892,-766,-2207,7879,1300,1402,1436
1893,4371,-4254,-7641,-1645,818,-1280
1894,-187,2939,6683,233,-177,398
1895,1365,7073,-1101,1230,-1978,-287
1896,4138,-1286,-4391,-1903,766,-766
1897,223,2276,-1324,-1118,1198,1056
1898,-5040,7330,6835,62,81,484
1899,-1017,2809,-3089,-962,1561,-100
1900,-2423,2956,-2295,1158,340,862
1901,296,6998,-3493,-1236,-1283,439
1902,-4429,-4321,4154,-395,170,-626
1903,7989,-6042,2746,-1487,-55,1862
1904,-3970,2910,6806,-294,1164,996
1905,2945,2246,-6478,-1760,861,-918
1906,-5642,605,-4022,-1883,1852,978
1907,1240,-7764,-6986,-40,87,-1534
1908,-2439,6253,-5936,910,-1304,-1718
1909,-3156,-4040,967,994,-1750,573
1910,-2166,4034,-6638,1678,-739,-1424
1911,2977,3775,1030,383,-547,-1510
1912,-1907,7522,-7741,1321,-1426,1373
1913,302,3027,7711,-1327,-1183,496
1914,4157,7553,-3746,-1344,1525,-1759
1915,7090,-804,5586,-310,11,116
1916,-3048,5761,-7501,-175,1685,1722
1917,6729,-1996,1219,-419,678,1273
1918,-1380,4831,5759,-954,1343,-1509
1919,2513,1285,1759,721,-1892,-513
1920,6983,-3561,3680,-1319,-762,-918
1921,-5842,-2051,4246,1152,1406,1315
1922,-2505,596,-2577,-1539,180,216
1923,2317,2994,245,-1399,1421,488
1924,-1018,5146,-207,-576,-1729,1558
1925,-5904,-7514,3044,-496,568,1125
1926,1570,3318,765,-1097,-1782,1325
1927,-3944,7083,1090,1643,-577,-757
1928,3144,-931,-4297,1125,1367,281
1929,2216,7585,-3783,1920,1335,993
1930,935,-5838,2123,-1233,-1452,1534
1931,3360,3403,-2978,1565,-193,1359
1932,-1798,3124,-4901,312,-497,893
1933,6513,-5116,4531,-670,490,1846
1934,-6809,3030,6771,1160,-1876,-436
1935,4566,-7728,-3071,-1980,-689,925
1936,-2123,-7608,2312,879,104,-1996
1937,-3395,-7955,3576,-400,-1790,1964
1938,1113,3817,-6124,553,-921,-1216
1939,-5813,-618,-7814,-1306,365,-150
1940,730,3996,6342,-1821,576,-1244
1941,2787,6522,-4209,35,1861,1264
1942,877,-7721,3141,-228,826,-875
1943,-5888,1615,6176,544,-1560,-1866
1944,7746,7566,6457,-1426,1597,-1012
1945,6443,6388,7772,1056,-110,-370
1946,-5056,4334,4089,-226,-923,-878
1947,4156,5078,719,-216,-253,-1098
1948,3398,-4167,6176,-493,1228,-311
1949,-7558,-862,1575,776,814,280
1950,1275,3335,1410,1305,-604,1088
1951,4179,-1104,244,61,1267,1708
1952,-5660,4713,-7614,1714,289,872
1953,6779,-4739,-5822,-336,980,1528
1954,-4466,4324,-1879,1456,912,380
1955,-1983,-7405,4026,1282,44,-656
1956,-7281,-6400,6969,-1967,1584,1873
1957,6531,2378,-1582,-73,1441,889
1958,4610,1618,792,-331,-888,1877
1959,5419,4262,7676,850,1502,-251
1960,3020,-6075,-1610,171,-521,1470
1961,-1841,-7309,-2749,-359,-234,-33
1962,4176,1961,-7945,1750,-1645,1863
1963,-7998,-2840,-4749,1296,1900,1084
1964,1328,4258,6841,-13,-964,285
1965,6567,-4461,2985,-503,-601,-1646
1966,1683,6158,163,-1132,-1460,-290
1967,-6812,-2199,2663,334,-320,-1963
1968,-2378,1252,5624,-1482,-1971,-391
1969,581,192,-548,-1299,1596,-1728
1970,-5750,-5172,-3180,438,1425,-544
1971,-2702,-7145,-3757,1488,-481,-1823
1972,7538,979,-3571,1443,-1120,-1793
1973,475,-696,7625,1583,547,-696
1974,-1545,-5299,3684,-937,1864,-1723
1975,6238,6355,2762,-1065,-1739,-1176
1976,-987,-2472,-903,-1978,-940,-378
1977,-1765,777,7700,1757,1492,-116
1978,5549,-6493,-6261,-1611,366,1858
1979,-5929,-4463,-4779,1942,-1940,-236
1980,5714,5249,5253,-1465,-345,-1573
1981,-2995,-5292,1416,326,1965,-179
1982,-6177,-4468,4284,-1323,-1445,1007
1983,-3435,-3615,-3720,1546,-68,1793
1984,-4921,6162,-3563,855,1542,1185
1985,-265,6461,6631,-1974,837,1497
1986,-3970,-5536,-7929,-786,24,-1330
1987,-614,-4964,-5812,579,1023,1553
1988,-6471,-1400,-397,198,-1674,-966
1989,-3244,3657,-3087,1708,716,-295
1990,5888,824,7060,-1479,-1358,-826
1991,622,-2227,1758,1230,-1832,-1785
1992,-582,6306,-302,-959,-133,485
1993,-5653,3516,-6399,-430,-1188,-805
1994,-7327,-290,-3237,149,954,-987
1995,-1492,-1215,-7126,-362,488,1866
1996,-7736,4489,7007,-571,-1281,-1534
1997,-1685,-7564,-1912,1774,860,1100
1998,6436,-7325,7483,35,1643,-1683
1999,-5364,2902,-3622,-1377,-1986,1245
2000,3500,49,1698,1371,-686,-1511
2001,-121,5367,-4395,745,-550,254
2002,5285,4937,5335,1593,-1143,-1979
2003,-105,2485,3555,1823,-1685,1730
2004,-1576,-767,-7505,-254,137,680
2005,-7401,-1298,-4262,-804,1921,-1926
2006,2087,4610,-1573,-1870,924,805
2007,3385,4032,-581,-59,-961,-297
2008,-6170,-5979,2584,1930,-1462,-1253
2009,-3796,-5193,6215,882,1894,-1994
2010,2363,-7582,7426,261,-1441,-1708
2011,-3300,-7920,7834,18,1050,1612
2012,-727,-1647,6986,-1992,-1589,-1443
2013,-5095,-7347,4531,-7,489,938
2014,-4968,-4393,-5040,-996,219,1926
2015,6268,4684,653,-1089,-1460,766
2016,3675,-5071,-7673,-137,-998,-1437
2017,-2066,3119,197,-862,602,750
2018,-3834,-2626,5333,-1918,-453,-820
2019,-4606,6985,5770,1388,-811,436
2020,3904,5735,5769,-1846,1671,-1423
2021,5757,5978,-2958,-1300,-103,-665
2022,-5311,-3589,713,-1783,356,1551
2023,-2912,-3423,-2930,-512,659,-1444
2024,6697,-3850,317,-1542,-1312,1522
2025,-2482,-76,5111,-1354,-433,-514
2026,-3556,5227,72,183,-1589,1741
2027,-676,2131,3907,-1474,-743,-1105
2028,2495,7896,1368,1253,200,1890
2029,7575,-406,612,-435,1219,1850
2030,-331,5555,3307,-1204,-895,1361
2031,-230,-4813,-5650,-1139,1973,1633
2032,-1551,-6685,-2052,110,-1880,238
2033,2188,-4450,-6592,-856,1460,-959
2034,-7882,5459,-4981,1104,1839,-504
2035,-5775,-267,-73,-426,126,113
2036,-5296,7148,-1157,749,1511,1363
2037,-4857,5536,-771,-1516,-529,1964
2038,-7546,1476,-4948,-414,1934,-344
2039,6845,-255,-375,-1984,1088,-526
2040,2822,-7835,1614,585,-1635,-795
2041,4714,4155,-1231,13,1893,-794
2042,-7491,-1017,7842,-1904,-863,1997
2043,1414,3036,3593,-1791,-548,-120
2044,-7488,-6665,1394,1721,1550,1498
2045,-2263,3814,-1204,-1219,-40,-1254
2046,303,7774,-7394,920,548,-563
2047,2591,-877,-7223,-150,569,-685
2048,-2460,-5791,-2888,240,1456,-754
2049,-5399,-6879,7061,820,117,953
2050,6159,-4433,-2553,168,1169,1024
2051,2217,-7788,-7320,-1646,460,-1321
2052,3643,-6816,-1060,-388,-799,-1911
2053,5814,4184,-5501,-1817,98,1176
2054,1081,-3191,4737,-454,-776,-1799
2055,-7344,-3416,2547,-908,-596,527
2056,-6604,6473,-46,1743,-1084,-414
2057,-1131,-3503,-7132,1846,1616,1377
2058,1104,-2252,-4829,-8,-373,-989
2059,-2546,7620,1242,-1597,-86,-1230
2060,-4044,-5774,682,210,1673,-1045
2061,3571,7372,-3033,463,1325,-1288
2062,-3948,921,2423,536,169,603
2063,-3446,6762,-7628,-1825,1910,-348
2064,1106,6584,5263,-699,526,791
2065,-4028,-280,7113,-16,-161,-226
2066,-4110,-3839,1053,-1377,-1550,-207
2067,7057,6799,-2787,-907,98,597
2068,1477,-6266,7574,-419,-1868,472
2069,2624,7014,4468,1073,1429,-1492
2070,2757,5003,4336,-989,225,-931
2071,-1792,-5520,-5154,-1928,902,1894
2072,-4533,6895,-6658,-616,318,1828
2073,-4976,-7214,-7373,-1146,1332,-1543
2074,-472,-6830,-582,-281,-68,-514
2075,3272,-6415,-7071,-1846,858,-1555
2076,1683,1267,-2206,1399,30,-981
2077,4743,-7243,-1678,-1441,1018,477
2078,6854,6439,-1102,1653,1480,-1496
2079,2565,-2486,-6197,1218,-1402,-107
2080,4006,-2690,-4861,-1883,117,514
2081,3432,-5979,-5788,698,-883,541
2082,-329,1062,3462,-195,-1434,-1030
2083,-3477,-3029,-4167,1128,802,1022
2084,-512,3649,7406,-1782,-165,-451
2085,6239,-736,-348,-501,189,1584
2086,875,3206,-7600,-1776,-256,698
2087,-4055,-2777,5789,1852,855,-488
2088,-242,-2537,-4966,472,354,-1238
2089,2476,-5192,-4016,1418,-552,176
2090,-267,-635,-2287,16,1817,962
2091,7144,5108,-7593,-627,1772,-1489
2092,-3651,-3799,-610,1829,-76,1638
2093,5700,7548,7799,-1767,423,1983
2094,-3552,-4453,1788,-1733,-1967,-1707
2095,-1521,-1325,-3267,-444,-222,-778
2096,6242,5015,-5198,288,159,-1282
2097,6660,-5891,6406,1780,-1111,1113
2098,-6212,7973,6619,-1631,-1105,1507
2099,-7616,4328,-3777,-821,1327,-1889
2100,5134,-3282,4672,-28,-1738,-1021
2101,6497,-929,-3790,-282,-1816,-909
2102,-1379,6189,1364,557,783,1150
2103,6307,2616,1170,853,1197,1897
2104,-1211,5329,-2391,-1096,1854,-1760
2105,-4823,-4247,-4802,-38,1285,-899
2106,6058,3665,4487,-810,-932,-1619
2107,5929,-1274,-493,125,-772,1620
2108,3889,7476,619,-1983,1487,872
2109,-4532,4902,4144,1856,-179,-1157
2110,-5917,7483,6842,508,-332,-717
2111,7141,1155,-7783,-102,1980,-1106
2112,-7297,3292,-4577,-1434,642,689
2113,-2350,1570,-4665,1275,993,-1338
2114,-1346,-6142,-1949,675,91,205
2115,-6685,-4944,-641,660,379,77
2116,-792,65,445,649,840,-856
2117,-5725,-5162,7511,822,1328,837
2118,-171,-424,-515,-901,-563,-854
2119,595,6236,-458,-785,1726,-618
2120,7447,6645,-5073,-851,-1881,-882
2121,-6566,4777,-3552,1408,-794,-755
2122,494,1089,4334,-697,-1279,1822
2123,2407,3121,-4607,-1308,1831,81
2124,-4226,5891,1997,254,102,-670
2125,-1650,37,1258,-1424,823,608
2126,3425,-2434,-5896,676,16,1416
2127,3305,-5554,-7404,17,-2,-1965
2128,-6310,-4943,-4878,828,-1554,1131
2129,274,3916,-6800,1043,733,299
2130,6217,-7672,507,-847,1005,1461
2131,1268,3974,-6400,-1850,1444,-372
2132,4112,-5843,-6799,422,-605,-3
2133,-7018,-7469,3718,-1534,-1723,1513
2134,-6487,6797,4476,-1281,455,1557
2135,-93,-4422,7598,1146,-1672,436
2136,-4252,-2016,461,543,-1209,1554
2137,7119,-5728,1234,572,1940,1936
2138,6979,5396,1248,-1301,-914,-1112
2139,-4099,5929,-7656,621,-358,-992
2140,5825,-3327,-4409,306,-909,-1518
2141,7201,5478,5001,1538,-1687,-1014
2142,2908,1145,6076,-138,-1656,1888
2143,4565,7839,2926,144,-1333,108
2144,288,-15,6250,442,-1745,491
2145,6409,-3036,3528,1518,469,-1532
2146,178,2461,5909,1788,-500,1656
2147,6452,2922,-4482,963,-886,895
2148,757,-1996,-4723,1488,1045,131
2149,6179,-2676,1871,-1261,-478,-715
2150,-15,-2280,5749,-1887,-492,-1162
2151,486,7913,-7384,-800,478,1765
2152,1970,-4460,-4207,756,242,726
2153,-4085,-5074,5158,1393,1748,150
2154,-4815,-4077,-4660,148,-391,224
2155,-5175,-6770,-1796,-1067,278,-722
2156,-7653,-3869,7947,1165,-946,-25
2157,3797,-1269,3251,-948,-655,152
2158,-7667,-3804,-7926,1543,-1641,1625
2159,-1000,181,6518,-435,93,-914
2160,-5594,-983,-7864,-815,-1201,340
2161,-6683,1049,-6340,1182,-1258,-556
2162,-3464,2487,1953,206,-1911,-1443
2163,7119,2279,1174,-1350,-1110,93
2164,7869,2251,6823,456,571,-487
2165,3301,-2017,-3571,-390,508,-731
2166,-5782,4481,1684,-1554,-1255,-862
2167,-4580,-4944,1148,-783,891,280
2168,-6566,-6915,-4067,1445,-107,117
2169,-1266,3215,666,823,1028,1123
2170,1390,-7410,174,-1183,-1685,1248
2171,5778,-2694,6379,658,285,915
2172,5239,4656,3844,1060,1635,1816
2173,-2465,-2813,-538,-1947,-1911,1783
2174,4137,851,-5590,-672,-1660,-121
2175,3725,6577,6739,1439,-687,-1050
2176,7939,5107,-6624,-1472,-515,-1670
2177,7222,2114,6337,524,-697,615
2178,-7543,7117,-430,687,-1236,-701
2179,3995,1625,2388,-1341,-12,1773
2180,-1978,1991,7123,-1581,-146,1297
2181,5521,7069,4799,1398,1280,-613
2182,-1552,-4296,-6960,-138,1737,-518
2183,3134,-2774,7759,1899,1333,-1004
2184,-1760,-5556,6534,564,1686,1305
2185,7178,-5394,896,546,-1513,236
2186,-3184,4321,4044,1835,-412,999
2187,-1485,-7953,-5159,380,-1091,-1796
2188,-7949,7655,6863,-752,-13,893
2189,231,-4789,-6182,1980,391,1881
2190,-4183,7161,7612,-350,681,653
2191,3694,-6189,4225,-814,1123,-1232
2192,6159,-335,4689,-1963,-1111,-416
2193,-6150,2696,7211,-1553,1871,1063
2194,-4044,2440,3463,1571,-1254,-456
2195,-512,-2955,1590,-33,-1318,-1959
2196,-5659,-7084,-2848,-153,-1204,705
2197,5261,-5865,-4010,1627,469,906
2198,849,-3441,-1070,1045,-1030,-1440
2199,53,2603,-7423,-1466,1744,671
2200,-1740,-2888,5007,176,-266,-1146
2201,-647,-7898,261,-120,-1832,-1383
2202,-1863,1205,-4404,1396,1247,1892
2203,4548,-2207,5179,-522,-842,-83
2204,2960,6608,3133,417,1879,302
2205,5339,-2452,-6611,913,-604,-93
2206,3169,-152,1980,-1391,1607,-1451
2207,157,-5814,1438,-1145,-1523,326
2208,-2644,4,1384,1280,-290,-1379
2209,4856,4236,-1435,1621,-467,1365
2210,1220,3172,6803,1100,1133,1631
2211,431,-2208,-6127,1854,449,287
2212,-7405,6799,6435,1159,1709,1943
2213,5293,-1981,-6116,-1001,1062,251
2214,-5548,-5203,217,572,-1063,1873
2215,3782,-2625,-3578,1259,-1060,-1696
2216,400,6194,3037,1701,711,-675
2217,5448,-3440,-3974,658,-536,1307
2218,-2730,4604,-1756,-178,729,-272
2219,-5968,-656,451,1107,-488,-546
2220,-7048,4831,-6606,1177,-258,1803
2221,6335,3437,-3754,1316,-409,172
2222,-3566,-6919,-6197,1181,-765,1093
2223,865,6627,5526,48,815,1711
2224,-3347,-7247,-3488,-1269,-1341,-324
2225,4603,-2394,2897,-1310,1854,579
2226,4210,6011,1405,237,-562,1149
2227,-6389,-7170,1109,-1232,-1890,687
2228,3410,-3811,-1003,59,720,1009
2229,-4411,-5572,6060,-1461,547,-1454
2230,-6624,-5052,-7479,212,1787,-1388
2231,945,-5151,-6984,1021,-1944,-1719
2232,6066,1557,2035,-330,146,-1246
2233,7338,-4668,1087,-1075,84,-235
2234,-173,-7723,76,1890,733,-588
2235,2464,-1159,4354,1897,-6,-1390
2236,-7616,1318,-4775,1919,-1593,-1516
2237,-3032,189,1356,-1742,680,1700
2238,4848,2554,-2776,-1332,1155,871
2239,-4359,11,373,1968,1022,1226
2240,3800,7942,-3043,-1236,-1654,532
2241,-2756,-4130,-658,1043,714,1425
2242,7493,-7407,4220,1338,-1070,1341
2243,5881,-3735,-6534,-1910,-1810,1761
2244,3966,2857,-268,-1195,-1754,-246
2245,-5042,-3334,5687,-1223,-205,769
2246,6406,561,683,-601,-145,-1055
2247,-6261,2976,-5720,1822,-1626,-1569
2248,6015,-3047,2594,-98,1917,-705
2249,6404,2215,1176,510,-556,-148
2250,-2815,-3626,6865,-1878,-878,1209
2251,-668,5588,-247,-1749,776,478
2252,6186,-7458,-2938,950,-1629,908
2253,4932,-6842,-5684,-1207,-1945,-1988
2254,-6216,-7577,-1211,1152,301,-600
2255,900,-731,4560,-1064,-1173,1367
2256,2964,6207,-5687,139,313,772
2257,4408,421,-3223,323,99,-1210
2258,-4452,3747,-4938,-1222,-1170,510
2259,-6494,-1903,-4940,723,-1618,683
2260,1578,-6751,1847,1380,-571,801
2261,2667,-2964,-2992,-1851,1686,1762
2262,-954,-1072,-3599,1581,844,1868
2263,4287,-4327,-1221,941,1466,-84
2264,299,3681,-97,-884,465,404
2265,-2386,2219,-4596,1644,913,1196
2266,1805,4069,2647,-832,882,1957
2267,-5595,-1862,-2208,-238,932,1080
2268,3125,-6745,-6134,1527,1853,1799
2269,210,6842,2275,1583,1454,-1131
2270,7129,142,3017,22,1394,1144
2271,-200,-2118,5745,230,-504,1441
2272,3408,-2083,5787,1119,-804,-419
2273,-3659,1332,7258,626,-955,-721
2274,1738,5290,7836,-1321,-696,-1119
2275,3903,-4561,-7301,-989,-1531,595
2276,-1036,5841,5254,1284,-483,-680
2277,4487,5064,-3381,-614,193,529
2278,-7587,-6445,4399,659,1811,1025
2279,-286,-2846,-5051,439,915,730
2280,-1918,-4967,-2012,-1534,-1899,-788
2281,2896,3540,4492,935,-1219,-715
2282,2611,-5774,2331,-711,-171,-165
2283,7454,-1485,5995,-1864,1753,-1133
2284,-1848,6452,-3411,-1971,-1450,-155
2285,-3854,-2970,2698,-1545,1900,1103
2286,4611,-1408,1762,1564,-272,950
2287,-1230,19,-3241,-1039,-1710,-1606
2288,-7001,-1502,-4173,109,205,-1823
2289,-6854,7398,-255,-809,892,-481
2290,-7630,5678,-1709,-1199,-446,-65
2291,7987,610,6806,1081,-887,-3
2292,-7322,-4971,1272,-852,1084,-1622
2293,-2499,-3131,-2798,1988,-1675,-876
2294,2125,1811,6841,1015,1521,1552
2295,-3516,-6377,406,503,150,333
2296,-4362,5133,4281,1036,717,-835
2297,375,-6987,2938,655,1569,643
2298,1787,-2145,-4570,1651,-1088,696
2299,2865,-7289,-768,1601,48,1388
2300,7130,-7165,-4306,-1566,-1678,-761
2301,-124,-1869,-4777,-1842,741,-1659
2302,-7005,7495,-3637,196,-1438,-1321
2303,7242,-3820,5819,122,-850,642
2304,-5711,171,-1042,1404,1894,-15
2305,-3480,1465,-397,1663,-1930,-1244
2306,-4513,4719,-3159,-1015,-112,-4
2307,-738,-2787,2943,-1315,-260,-897
2308,2512,5046,-1454,-372,144,-1120
2309,4526,7485,-4738,-667,-112,874
2310,-625,-7357,1875,261,-1144,735
2311,-2071,7947,-3924,961,-740,950
2312,2748,-4884,7871,1346,-400,1550
2313,-6697,7232,4863,-1291,-1938,-1025
2314,4888,1133,-7913,-33,604,-1982
2315,-333,-3574,-7337,-637,1254,-589
2316,-2701,-5337,-7522,1914,1838,-883
2317,-1934,3712,7029,76,1423,565
2318,4591,5564,205,1911,1837,-795
2319,1161,-3161,-7006,388,-598,-1956
2320,-2737,-3214,5017,462,126,539
2321,-276,1790,419,476,1477,295
2322,3086,2079,-3751,-1034,1493,474
2323,-4149,549,-1989,247,-1656,-1036
2324,-7749,-5140,7105,162,-1313,-1078
2325,5170,-3233,-658,-472,1751,-1530
2326,6990,4403,-883,719,811,1393
2327,-3238,-7798,-6835,1690,-182,-1381
2328,7670,-2038,4060,-41,-1068,985
2329,-335,-482,-5086,320,-1713,-1326
2330,-365,6123,2509,-604,1692,575
2331,-126,-3751,-2459,-772,-1099,1392
2332,4113,3512,-4580,608,84,-1088
2333,-4604,663,6007,548,132,1126
2334,-4738,7215,-5844,1190,-166,128
2335,5825,4232,7253,-1152,978,150
2336,4281,-4829,-2615,-113,510,1448
2337,-1881,-287,5802,1257,1915,-781
2338,7859,5989,6643,748,674,-35
2339,3445,-7675,4876,87,-1637,683
2340,7153,-7156,125,-995,-1665,-304
2341,-5374,-571,5457,389,-1984,-1540
2342,-3575,5464,-3584,1758,557,1730
2343,5501,3167,7821,-1916,-1501,-163
2344,5111,-1808,1778,-931,193,-405
2345,-7117,7889,-10,1872,-435,-63
2346,6421,-6884,6543,-1634,-1477,-1612
2347,-1349,5216,1096,-797,516,1807
2348,1297,-7130,-4597,380,493,970
2349,-176,-4277,1409,-350,905,1734
2350,2195,1112,-5921,1293,-880,-1465
2351,-163,-6970,-1652,182,-890,-8
2352,4390,6501,4434,407,-1356,1802
2353,1310,-11,-6212,-208,-1467,-1775
2354,-6444,-1738,-6282,1997,102,-419
2355,-6509,-842,-7031,27,-1320,1988
2356,-6369,7994,4284,82,1437,-678
2357,-3637,1095,-2436,-1513,589,-1700
2358,6111,5998,4246,1303,-763,770
2359,-1723,-5726,6228,-661,1693,-1360
2360,-5312,2766,-7947,-589,306,-1068
2361,-1097,7719,5178,661,-359,1367
2362,7854,-3623,75,-138,-1927,-98
2363,5742,6763,-7761,-939,-940,-1188
2364,-6837,-6817,2556,724,1779,45
2365,5126,4689,6944,-1755,-1743,-66
2366,-6801,-668,173,-1778,1923,943
2367,622,3652,-7475,931,1941,-546
2368,6424,484,-1415,1205,-1881,-1347
2369,4834,-6119,3382,-520,-1203,243
2370,-654,-5573,4201,-1273,-511,-135
2371,6192,-6665,3409,1543,-1468,1735
2372,-3085,3533,4997,-1093,-1752,1730
2373,2724,-2690,1099,141,320,1234
2374,-5809,-6020,2339,211,-1589,997
2375,-4774,4404,-946,-1518,-1108,995
2376,3876,2949,5114,1511,-1688,1142
2377,605,930,6612,-1737,-804,1993
2378,-7200,1812,-4735,-861,-176,1527
2379,1068,6715,-2898,1034,1189,-1092
2380,2210,5879,-6214,335,-1616,-103
2381,1594,-3902,-3341,-1192,459,-1156
2382,3165,-7358,7498,933,-529,-779
2383,972,-1754,-2016,151,-43,405
2384,6630,58,-4639,-719,1250,1305
2385,-521,2108,3257,1203,1863,1872
2386,-401,5168,-7159,-1182,-485,-1195
2387,-7825,-2993,5885,-1745,-1144,207
2388,-1825,1763,-2678,1941,1065,1774
2389,-7451,2903,6321,-1559,-234,-1705
2390,2762,-1769,2227,-1311,-767,1167
2391,-5015,-3115,5427,1924,1577,-1035
2392,-3728,-398,-7196,33,-1565,-1834
2393,-2221,-1801,5479,336,499,1520
2394,-4689,63,-7892,207,-1107,1361
2395,1621,-4588,-7378,-164,-250,-244
2396,-2282,-5732,-3040,-402,-846,1474
2397,718,-2192,-7498,-1068,-374,1043
2398,5691,-7563,4542,-469,76,395
2399,-1215,184,-4072,177,163,-1829
2400,5553,2659,2016,-1352,1108,1825
2401,1473,1315,-6676,-243,1903,1998
2402,-4679,-3090,-4802,-543,1781,1429
2403,-6448,3807,1897,-178,-1943,1173
2404,-3973,3014,-5219,682,1419,-1990
2405,-7421,2277,-6181,1130,-872,1731
2406,7863,3971,-2113,-423,-980,-397
2407,5092,-4566,1655,-787,786,1531
2408,-1658,2719,-802,308,1923,1043
2409,4657,4467,1474,-932,1844,-1563
2410,1542,7798,4127,-42,1938,-321
2411,-7335,-4365,-2952,-362,385,-492
2412,3061,581,2696,-429,-1395,1632
2413,7914,2264,3763,1055,206,1392
2414,-6249,-6842,3900,1281,-1340,1330
2415,-6945,1645,-6251,-1441,-1426,1298
2416,4525,5962,-1767,-1054,783,-402
2417,6804,-2146,6786,1821,1798,1916
2418,-4110,-3757,6881,-1471,-1246,-68
2419,-134,-7373,-561,-1871,1492,-1885
2420,-6128,1638,1889,-663,678,1884
2421,5219,5967,4268,-574,952,1977
2422,-54,7528,-7769,1794,242,295
2423,-244,-6338,-1885,-1848,-1394,-256
2424,3997,-3372,1352,-498,-522,1167
2425,-7875,7828,3597,-1472,-1604,-291
2426,-779,-7962,485,1072,782,1992
2427,-4759,2222,6940,-1327,1285,-1223
2428,-3576,-3606,-4570,1189,1094,-1072
2429,6890,276,4825,1433,-1192,-1039
2430,1630,-1047,-1023,1928,-289,1345
2431,-3602,537,2470,1442,-550,316
2432,-6518,-7860,6006,24,-679,-598
2433,1987,-3422,-4319,1439,1354,-1820
2434,-3995,4351,3571,-1267,791,915
2435,2951,-7566,-2310,1246,1025,-1128
2436,-1023,-5055,6128,-1705,591,-207
2437,4624,7265,6804,-1025,1755,1382
2438,3009,-7639,-1799,-946,786,-11
2439,1537,-363,-4903,1076,-369,1112
2440,-7248,-2680,3164,-1378,1928,-1005
2441,-58,1035,5661,-1590,1890,-1776
2442,-7314,5562,-52,1227,493,-292
2443,-1277,-4068,-3439,505,67,-384
2444,-1590,1637,547,-1039,-1464,1948
2445,-3408,-7866,4028,-1415,636,-926
2446,-6084,2914,7108,1287,823,-417
2447,-5513,-7879,-5094,-975,680,-1898
2448,-645,6431,-7468,-631,1192,-312
2449,3348,-2151,-5590,1500,-602,-77
2450,-3311,2099,1137,-271,-86,868
2451,-5271,-7335,5967,1572,79,-1914
2452,7254,4223,-3300,-811,284,1814
2453,4257,-7929,5702,-783,34,-489
2454,-2484,-6973,-1131,-1149,-1429,-162
2455,-1263,4553,-7093,-1980,-1554,-1064
2456,1320,1138,6793,-815,1934,1867
2457,-2650,5305,-6825,62,-496,433
2458,-7565,7342,864,-765,1761,-1462
2459,2601,-547,-34,-348,1353,-317
2460,7902,-2558,885,-34,578,20
2461,3546,1047,-745,606,1730,-1937
2462,528,-5541,3783,1412,-1319,-643
2463,309,2169,424,-39,831,-571
2464,2155,4662,-6085,149,-542,-978
2465,-1238,2718,7610,457,1383,1412
2466,7801,-7694,-2091,-565,-598,-410
2467,4793,-3580,296,1846,259,541
2468,-2012,-3663,2938,-1438,-636,1455
2469,3581,-1516,1974,597,1252,86
2470,4958,-3576,-3887,-1416,124,-1997
2471,1891,-689,4154,-802,-1732,-931
2472,-2673,-76,-7078,1943,-507,1398
2473,-6423,-1721,-4821,1182,-863,-750
2474,-7365,-4532,4363,60,1006,30
2475,-5547,4762,2756,1720,204,-78
2476,2667,-3503,4135,179,-1539,627
2477,3043,-1350,-3098,-70,-173,-1401
2478,-7456,-7934,4584,-1558,1434,-541
2479,2761,2405,6249,-1515,1301,-741
2480,-244,2566,-3892,1632,1697,784
2481,4393,7958,2084,-556,-370,-51
2482,4669,-234,6558,-366,-1840,-934
2483,7712,7610,-1007,1963,-775,-1896
2484,-3819,1616,7335,1230,553,-1031
2485,5146,-2878,3277,1302,-1653,1724
2486,5094,6826,3296,1155,1356,369
2487,3337,-7967,-6333,134,-1920,1386
2488,5658,4563,-4944,-1219,-797,-1644
2489,-5782,861,6882,328,-356,1168
2490,6348,1044,3283,1613,294,-1073
2491,4172,-2024,2433,745,-438,1781
2492,-5893,943,-2743,-302,488,468
2493,-6092,4216,-2772,-1783,-101,1782
2494,-5121,-4367,-4105,-1144,381,-1253
2495,3569,499,1222,593,1908,-32
2496,7859,6645,-6175,256,498,-1419
2497,1604,-3855,2808,-43,-970,186
2498,1059,-4491,897,-806,1275,-291
2499,-5634,6817,-6463,486,441,-1416
2500,6392,1885,-3393,1006,-1675,-1241
2501,-2840,4536,-1559,1694,1326,-1600
2502,-1866,300,5897,1232,-120,-1446
2503,4163,-3741,7837,1490,774,1383
2504,7022,226,4622,-1638,-618,-750
2505,-6349,-6032,701,-1377,436,347
2506,-6565,-2805,-1201,1239,492,961
2507,2197,-662,-2605,-496,273,1860
2508,-3970,-1500,1504,-896,171,-1627
2509,-521,354,345,1001,-621,1466
2510,3140,1937,-142,-639,336,-1509
2511,-6236,3292,-2039,1601,232,995
2512,1434,2427,3647,-1358,-1803,657
2513,-5355,-546,4435,-1039,-1994,1599
2514,-7898,1429,492,981,-919,21
2515,2494,-1023,-4176,455,-862,-411
2516,-2258,-3551,-2482,-1222,-790,-1244
2517,-5560,5623,2811,-14,83,-950
2518,-3439,-5010,-5653,-976,-1913,-1148
2519,-1899,3414,4774,-1076,130,-1267
2520,7338,5147,5273,1993,-793,-1349
2521,4923,6878,1954,-239,1726,332
2522,412,-7665,5616,1625,652,-201
2523,-2436,-3781,-7326,-1449,-519,1084
2524,4911,-6274,-975,-1356,-1162,758
2525,2965,1941,-4945,-927,1010,756
2526,-5807,7493,-2407,-465,-223,-478
2527,6498,-3195,-3742,501,937,1851
2528,1666,-3189,6953,-319,1771,1369
2529,-2779,3689,1278,-1343,613,49
2530,-6099,3410,-6122,586,1610,-835
2531,2166,760,7801,-1363,-1929,-726
2532,3484,-1010,-79,-1902,-260,-671
2533,1993,-3190,1762,-1937,1794,1946
2534,-3048,-2619,6569,1564,-1843,1253
2535,779,-3442,-967,1975,1551,-549
2536,5814,2334,-663,-714,1165,-1108
2537,6690,46,112,-137,199,-343
2538,-377,5165,411,-1035,-255,-1795
2539,-5577,561,-1535,469,-1531,1111
2540,7645,-5761,1929,-725,-1190,811
2541,1196,4895,7579,-1419,931,-996
2542,-7388,131,-1111,1221,-1554,-385
2543,6228,2029,6140,1120,832,1766
2544,-6184,4453,5145,-1363,-528,-83
2545,4251,-2089,-5913,510,1894,1516
2546,5893,4330,-6011,-1207,863,1227
2547,1494,-2367,-2795,1391,1291,-1076
2548,1325,-5721,-4646,-1467,836,-983
2549,5195,3931,1657,1742,-1573,927
2550,7721,-7597,-7485,983,-403,-1220
2551,714,-1067,-2522,-124,1450,1490
2552,-1769,-2370,25,-717,396,-828
2553,4775,3444,3600,-70,-345,1610
2554,-7727,-1848,5115,898,-1686,816
2555,-3302,2378,4929,954,1827,-1392
2556,-7585,-6065,4954,17,231,691
2557,1812,-5597,5722,565,1237,-1766
2558,-1354,2456,785,467,1619,156
2559,6947,6872,-2792,-122,-871,-63
2560,-7873,-5653,6068,-1851,35,483
2561,6406,-3259,530,-459,683,563
2562,2150,-1429,310,1684,-800,-771
2563,-7023,6519,3111,128,-1973,-1455
2564,-5772,-5786,-7630,1398,-335,-989
2565,7278,7303,-261,743,594,-1517
2566,-3089,4977,-6163,1728,-961,376
2567,-3517,-68,-5618,960,801,-1485
2568,-1461,60,5894,-33,517,725
2569,5218,-5784,-2994,-1333,-287,1239
2570,-4662,-365,-6318,1800,-1470,1484
2571,-4552,4732,6811,-1882,249,222
2572,6207,-2135,5156,183,-10,-816
2573,-4212,223,654,769,-1912,1648
2574,2368,1569,7414,-14,-1285,514
2575,-4360,-2534,4245,-339,1294,-614
2576,-4684,-1824,-3860,761,138,-1196
2577,-4260,5598,7506,1893,684,254
2578,-4536,-5071,-7472,-420,-82,119
2579,-5535,-5705,7626,82,-1669,-1711
2580,-1493,-1785,-1363,205,151,1367
2581,7081,6870,1223,1367,-1725,1927
2582,6370,-2917,6766,766,1651,-802
2583,-2784,2851,4208,-1438,845,-1075
2584,343,7874,7754,325,586,-830
2585,2201,-883,-5623,-1365,1949,-1911
2586,1191,-7088,2306,1578,-21,364
2587,4881,-6041,-3534,-1003,-1561,-546
2588,-7707,6528,7728,84,-1236,-116
2589,-7373,-7601,-659,406,865,419
2590,-2713,-694,-3453,-254,1931,688
2591,-1288,7895,6138,553,-1101,10
2592,-615,3571,2314,-400,-1764,-2
2593,4365,2356,6179,1919,-265,449
2594,106,-1983,3910,-923,-598,340
2595,-7211,-3561,7289,-1054,-869,-1963
2596,968,-4048,-3607,-660,-1748,1547
2597,2291,-2801,1670,-590,250,2
2598,-5059,7834,-6232,-888,-425,-911
2599,-2737,7175,5989,-1955,560,-1814
2600,1946,5158,3407,332,-1440,1058
2601,-4360,-3977,-865,-1584,-1506,451
2602,-5968,3824,2082,-533,-1109,-1327
2603,-729,4486,6823,1534,-1227,-13
2604,-6383,-611,-5768,868,1373,-966
2605,6279,-7061,4033,1261,-1043,849
2606,-648,-485,-5408,-1014,-959,-1983
2607,7691,6905,7932,-597,-746,-575
2608,-2073,4779,-2482,1127,1988,6
2609,4722,3380,6646,-244,480,12
2610,-1818,-3561,-3639,-1239,341,1446
2611,365,1155,3560,-1050,654,843
2612,-1286,-3261,-2936,-1772,891,-568
2613,-1050,4923,-3259,1072,507,-1761
2614,4577,-6532,-2791,-1308,-1094,-837
2615,2976,2081,6002,331,1058,484
2616,-6983,-7670,355,488,-1978,1479
2617,5601,5322,-6525,-890,-112,-353
2618,-1603,-6168,6065,-1578,205,-394
2619,-7917,-2060,-648,-714,789,-1572
2620,7823,-4982,2757,550,-559,28
2621,-6983,-1362,5478,1070,395,492
2622,-5948,-3216,7791,44,-1866,1626
2623,2290,-3805,4800,22,-1264,27
2624,2677,-715,-826,-784,-22,-5
2625,2714,-6880,7557,1516,-538,-874
2626,900,-1248,-3344,210,-1925,488
2627,5565,-7072,-1366,-1671,89,-1469
2628,-3121,-6371,6098,-94,-866,1157
2629,-5170,5992,3283,169,1977,1215
2630,3490,7880,-2170,-709,-613,-1228
2631,-605,2785,-5283,363,-142,1125
2632,212,-1333,4896,-433,853,1745
2633,-3852,-1000,3376,-513,1936,-1664
2634,6781,-7748,4883,933,1081,10
2635,3410,7914,-2146,922,-921,1578
2636,1066,-6045,-1837,889,48,-1531
2637,1609,-6184,6252,1228,-1120,-438
2638,1332,-2224,46,25,-542,976
2639,7423,513,3854,1688,731,-1894
2640,7585,4762,1104,-1840,694,-327
2641,4544,685,-1529,1726,-264,1701
2642,-6153,-2385,-2183,-518,-275,-869
2643,-2995,5259,7147,1322,557,-293
2644,1421,5900,-2935,692,-1338,-1260
2645,7298,-7767,-1475,755,-275,-385
2646,2096,777,3500,465,1198,-1342
2647,456,2340,2212,732,1320,355
2648,-1750,4399,-5386,-1595,-15,-177
2649,4332,1872,1098,19,-1545,-783
2650,-930,-4528,-163,1804,903,-1186
2651,-1197,7194,-617,-1303,804,-1699
2652,5910,-4922,3013,-1414,619,-305
2653,5269,-1304,-7392,-1246,-582,-253
2654,-6514,-1356,957,-310,1056,992
2655,-4102,-945,1246,-853,1708,-1744
2656,7625,-1254,3287,1565,-298,0
2657,5414,5527,7344,1528,-1775,-110
2658,-5811,-2909,6406,1614,899,-487
2659,4841,-820,2730,207,-1654,-956
2660,1418,6515,3426,-15,-463,-256
2661,-7336,-6451,-3555,873,1370,-1378
2662,-3892,-2455,-3664,720,1578,-1669
2663,-2157,-6308,5015,723,-491,1069
2664,-499,1658,-4423,-642,1784,138
2665,5063,7154,4133,1975,283,-135
2666,-933,7569,5449,1692,538,1687
2667,218,-1485,1248,204,-1538,-675
2668,-6650,-7911,-7495,916,-401,1381
2669,-6506,-5105,-4007,58,1624,510
2670,7710,-5305,-5610,-111,-645,-501
2671,5022,5317,2648,1057,-1844,759
2672,-4702,-1995,2373,-497,-898,643
2673,6955,-748,2292,1999,328,-1006
2674,7524,-1554,-7767,217,1407,-311
2675,-4658,4077,4673,-1056,-1550,326
2676,-615,-4893,-7003,14,-1233,585
2677,-2666,5406,-5671,-1943,-1315,1501
2678,4253,-6511,-7843,-1834,385,-1593
2679,7525,-4530,1125,-668,843,-422
2680,2694,-6370,5430,643,-1247,-425
2681,-3949,5259,-1356,-1654,-1001,-875
2682,6824,994,1233,-629,-766,32
2683,2305,7898,-1439,421,-1393,-762
2684,-781,-3497,-7526,1221,359,1932
2685,5488,7920,-5994,-1227,-499,1714
2686,2086,-886,4876,-176,-1829,-1399
2687,1909,2531,-3591,801,751,1543
2688,-4671,210,7302,-989,1236,1980
2689,-3579,4378,-7001,1487,-273,1154
2690,4615,-4022,1624,-1844,1342,-739
2691,-330,2254,-7454,-105,1113,-578
2692,-3751,4475,-412,1293,1523,889
2693,-1481,-4981,6831,657,-1724,1882
2694,7131,1246,7926,-1607,-996,1292
2695,-1625,982,-4332,-1330,-102,1870
2696,-2552,-27,3183,145,1409,-1956
2697,2117,4825,3474,-389,1873,-440
2698,-5819,-3066,-758,1077,-433,1203
2699,-3442,2567,-7580,-946,1974,685
2700,4993,-4421,-3161,-1336,134,1569
2701,-1718,4290,6296,1370,654,1824
2702,-528,-5137,-1446,-583,817,1896
2703,-3557,7795,5229,-641,1731,356
2704,-3408,-71,-6634,1264,1407,-178
2705,2685,6647,240,655,1342,1984
2706,-6938,6465,2872,-294,900,664
2707,-6183,7654,-7380,-196,-1812,656
2708,7660,565,-6837,-469,-496,1000
2709,-3023,-1439,153,812,-1127,1575
2710,7732,4748,1081,1106,38,-312
2711,-6862,-7881,5542,333,775,377
2712,-876,-224,5157,-1428,1137,-78
2713,-5729,7835,-3663,233,1298,816
2714,-3414,4673,-7715,-203,-1634,-1075
2715,2817,63,-7182,-368,-796,62
2716,-4607,6506,3997,1319,550,1711
2717,-5774,-5814,-2056,-353,83,-1108
2718,5077,-3731,-7634,1455,1534,926
2719,3870,3289,-7475,1697,1883,-395
2720,-4245,-6053,1798,594,70,353
2721,1707,-4807,6009,406,-614,174
2722,-7236,1859,7245,1680,-1501,1170
2723,-5764,2292,1831,-336,982,590
2724,4626,-3483,7094,-1744,-901,61
2725,-7084,5262,-2799,1663,-292,-688
2726,-6133,-187,570,1875,1678,-487
2727,-2800,1012,1187,-1393,-252,-763
2728,2968,-4336,599,76,-1241,-507
2729,-3606,1738,6167,625,-1178,1553
2730,2376,4001,-3451,-242,1157,-1137
2731,6735,1045,5984,-1465,-53,878
2732,4482,705,739,-749,-1738,599
2733,4277,-6941,-3014,-1904,377,-107
2734,1509,647,7698,-1606,-1157,14
2735,7413,-4141,-5162,-1926,1732,1233
2736,-3931,3275,-5620,-827,1455,358
2737,5350,7817,-6383,-511,-1851,-712
2738,841,2199,-587,-1496,-670,-557
2739,1941,2614,5299,-182,-1034,1472
2740,5660,5985,4729,-865,1602,-493
2741,6047,-3225,-6184,295,-856,-366
2742,481,-4245,7795,113,1966,511
2743,6249,1258,-1938,-1751,182,1195
2744,4355,-6219,-3324,-265,1064,1788
2745,-2070,-6860,6441,-1033,-247,-93
2746,-3096,-5115,3131,411,1819,-1462
2747,1439,2571,3580,-1814,-72,1602
2748,-7341,2431,-3618,-1663,-1563,794
2749,-6810,-2066,-2835,1838,1389,1319
2750,7555,-1074,-2664,-906,951,-987
2751,-7300,-5143,-2887,-449,1083,1076
2752,-7645,4732,-763,-455,-1443,2
2753,5026,-3079,3058,52,1079,-137
2754,2252,6021,-1970,-903,1383,-1936
2755,-194,-7920,1648,742,1256,-1154
2756,134,6174,-5351,-687,372,-1610
2757,-3419,2489,-4667,-1901,-159,1336
2758,3681,-7848,-6255,-822,-1963,-578
2759,-2522,4202,-5532,-485,-1940,583
2760,-7413,-1357,-6668,743,-1200,599
2761,-1852,4187,5453,-1729,-1133,-354
2762,-1391,-5205,-7565,-523,-1778,-447
2763,-7358,6019,632,-1899,1441,137
2764,4214,-1779,-5591,1985,1544,-98
2765,-2309,5473,-2864,328,-1490,1487
2766,6220,-2968,5859,1061,-639,456
2767,-3593,7650,4824,844,-285,-392
2768,-3321,4075,7910,-66,834,-464
2769,-4350,-909,-3163,-670,-670,1490
2770,-6453,-3234,7821,-1555,-1811,-1346
2771,-7575,2288,5562,-1949,903,-1246
2772,1365,-821,-2153,1774,-999,-909
2773,2981,3633,-2673,278,-1992,1641
2774,1206,7917,3478,41,261,1807
2775,2290,-5435,-5906,-301,-466,1262
2776,-3996,-7025,7033,1383,-1044,88
2777,-1138,-6143,-1186,342,402,-1535
2778,638,-596,-6218,1104,-1639,1298
2779,-7823,-113,2324,307,81,-1932
2780,-6365,451,2943,-987,152,-1455
2781,-4925,6091,5309,656,-1305,975
2782,-551,-2387,-2083,1356,-176,-203
2783,-635,2060,7692,-1268,-1496,1768
2784,3827,7497,-5411,-1309,-605,-1954
2785,1841,-7717,7880,-756,-618,12
2786,7895,-4845,-2058,173,684,657
2787,4813,-7246,7476,-981,283,-1318
2788,1663,-3759,4583,1432,318,-1836
2789,4704,-75,1300,-1379,-1006,1998
2790,7184,282,-4537,177,-768,-309
2791,-2898,-445,121,-1812,577,-564
2792,-6991,3123,3081,1404,1818,1453
2793,-515,7611,-7290,763,1033,-1958
2794,-3507,-3339,-5559,-748,225,1871
2795,4248,1794,3020,1872,-1287,84
2796,-546,7632,2618,-1439,1388,-580
2797,7333,7120,-2332,285,575,981
2798,-2644,-673,2888,-1110,-1455,437
2799,6883,-1829,-6407,-979,202,1523
2800,2087,4190,-909,1565,1577,325
2801,4545,-4698,-5925,-876,-957,840
2802,1197,-6922,3920,1034,1467,-251
2803,543,1582,4822,-1781,1214,-225
2804,-6393,7286,-4926,-1554,1006,-1724
2805,-6212,-3491,-2129,1177,1306,-1898
2806,7739,-1285,-4724,-44,1069,664
2807,-2492,3184,2117,761,-767,110
2808,6072,5503,7011,-963,-1047,-182
2809,7154,6821,5980,-785,-1809,-1211
2810,-502,1232,6530,-1988,-1754,-24
2811,-6696,-3891,1578,1967,-97,126
2812,850,-404,-3714,-535,858,773
2813,3713,268,-4780,-662,-427,1421
2814,4843,-4904,-4217,-935,-898,-223
2815,-1603,-5889,1088,1330,-647,-1755
2816,5274,-1892,7958,-1089,-856,-904
2817,5682,822,-6272,15,-862,1786
2818,-7502,6221,-5503,-14,-659,259
2819,-6669,2406,1444,-1763,1879,-1332
2820,1170,444,1972,-1379,-136,-107
2821,1682,5214,-5226,697,-506,394
2822,7853,-1368,2933,-681,878,-1240
2823,7922,1474,-5054,736,1784,-837
2824,-1744,-3283,-5891,-1269,1129,1671
2825,576,2519,-6958,1244,1694,-1787
2826,-4669,994,-1414,-1967,-1515,-984
2827,-5727,6581,-6445,1082,-1053,-488
2828,-5132,4970,-7478,985,193,-1347
2829,5437,61,-2575,298,793,-787
2830,6475,-6177,5915,1140,28,1835
2831,-7375,5600,7434,1251,1397,1127
2832,5680,6318,-4751,1756,-1073,-1170
2833,925,7383,-7655,-121,-620,-121
2834,-4165,-2974,7001,-1653,-1089,-767
2835,-2072,-3159,4246,9,1694,-63
2836,1317,-6641,4582,708,-862,-1142
2837,4428,2568,-7520,1081,-1297,-1978
2838,3314,-4399,-4243,1090,-590,1085
2839,-323,-1592,7016,236,-803,678
2840,-4480,498,3924,-399,492,-460
2841,3850,-5579,-4196,-215,-1457,-976
2842,-1685,1430,4239,1435,853,829
2843,-3568,7400,2217,-1242,-938,897
2844,-6911,-5821,-2114,-817,-1476,1095
2845,-7327,2996,-2923,-1075,-1989,1728
2846,5442,5371,2003,-241,1921,1663
2847,-4171,-2430,7397,1245,-1272,-972
2848,7571,7484,584,558,-1603,-1659
2849,-351,-4386,2485,-87,473,-1903
2850,-4745,-4567,2336,-1862,-1283,705
2851,1077,7545,-6826,1384,-357,1741
2852,5286,-6959,-2652,21,-1958,-216
2853,-5733,6967,-201,948,-1939,-1607
2854,7582,-2478,-3903,-1966,-1385,-1177
2855,4239,-4499,6909,105,556,-270
2856,419,1510,3130,573,-1363,-520
2857,217,4841,2460,-1312,-1228,-1382
2858,5097,-2789,-98,-827,617,1965
2859,-2712,988,-3090,1681,853,1553
2860,-1043,-2507,2575,1346,42,-297
2861,3427,-6770,-2856,398,-813,-1212
2862,-1549,2446,-3180,89,-889,1882
2863,-5156,-4448,4681,-890,-322,-1037
2864,-7465,2604,249,-598,-1947,1052
2865,-432,6064,-4024,-327,-1350,-1165
2866,-2631,3855,6438,884,-2000,940
2867,-4381,-6740,-7809,-224,-1299,-1016
2868,-1518,-1340,1885,-206,1465,-1322
2869,-6945,1776,-70,600,1949,628
2870,-1779,682,467,-811,-1949,555
2871,6254,6026,-7162,1601,1115,1022
2872,5923,-6198,-2554,1581,866,-986
2873,5108,7119,6017,-494,-1242,75
2874,3987,-1397,7223,-1302,1794,1028
2875,6623,-6542,3578,342,749,-1832
2876,2022,1959,-631,11,-105,-367
2877,-5600,-816,-5154,1544,1199,1580
2878,-7282,6477,-3589,1280,1580,1978
2879,-310,1794,258,-1638,-577,245
2880,5149,3834,5233,-1296,-1311,-179
2881,-6644,2590,-3763,-673,-467,-1816
2882,7649,6298,2199,1197,-124,1369
2883,-4523,-4543,-521,130,-1583,1595
2884,6424,-7395,6875,-182,34,361
2885,-5716,6822,-1919,-1917,-1413,661
2886,968,-1308,1380,-653,477,-1418
2887,-338,-3048,177,-1768,-663,704
2888,-2073,-12,3580,-255,-707,463
2889,1591,1534,-6652,488,-1476,-142
2890,2925,1753,2549,765,535,476
2891,-1346,-7029,-926,85,1006,671
2892,6704,-270,6303,-1719,75,63
2893,-1599,6584,3541,1849,769,1529
2894,-2870,415,6525,-1297,1761,1719
2895,-5111,656,2402,-1013,1594,-459
2896,-7409,-7793,-7125,1767,330,1228
2897,-633,1281,7834,-1290,-887,263
2898,999,-554,2814,-280,891,-354
2899,5938,-5564,4738,-1578,-720,-1963
2900,-2389,338,1130,-16,-500,1080
2901,591,3238,-7725,-883,-1656,-64
2902,1427,6332,1606,1723,-980,-283
2903,-1486,3541,1703,633,1683,1294
2904,1089,4923,1335,1216,-1365,1075
2905,4259,-7940,-3822,-372,476,513
2906,-3136,5165,2580,-1782,720,360
2907,1254,2950,-6081,-1900,36,1465
2908,-5291,2128,-38,-44,-774,1306
2909,-2702,-7667,-1278,1698,-1367,1298
2910,-1079,-5270,-1187,-745,-1368,-298
2911,-773,-4708,5015,128,1334,-1393
2912,-1676,-798,-55,1241,1580,-469
2913,-6257,7483,3413,-556,543,1874
2914,5252,4177,4810,104,1595,1779
2915,-1058,7662,-4731,-1416,-511,-1111
2916,-452,-712,1296,1412,-1410,1079
2917,-4729,6946,3758,484,-883,-1145
2918,1012,-693,6377,1373,-1961,-681
2919,-5163,6844,-2543,-1448,-1446,1904
2920,4230,7882,-4886,-442,-922,-700
2921,2645,3803,5256,536,-1260,79
2922,-7439,1777,7906,1565,185,295
2923,-3798,-7504,1168,-1286,1629,572
2924,4790,-5964,-2858,-1694,-672,1376
2925,349,6599,997,71,1673,503
2926,-7473,6549,-4683,251,-1480,-537
2927,-5915,1829,498,1299,-409,1267
2928,4959,-5213,-1748,510,-1925,900
2929,-2218,-3137,6219,-1047,-594,-1477
2930,-5987,-6466,7041,1866,-48,-274
2931,-3482,2788,-4437,-747,-847,1695
2932,-6887,-2220,-3000,-1639,1109,-1523
2933,3467,-5816,7037,1004,934,33
2934,-6705,5333,1133,227,-836,552
2935,3441,2998,3617,-1193,-1021,1740
2936,4404,6749,-4739,192,306,-646
2937,-2637,203,698,1335,-1947,-934
2938,-4719,4755,-5648,1823,-673,837
2939,1034,3852,2360,-1857,-1219,678
2940,1637,-1909,-5564,-1524,1697,692
2941,-7953,3085,7410,206,-498,298
2942,-7919,3652,7088,-955,863,-184
2943,-2199,5438,-637,968,797,-450
2944,-1153,6462,5171,671,-764,-69
2945,-4515,6568,-453,-1104,-412,1658
2946,-3358,-5800,1442,1253,399,1399
2947,1380,1977,2183,-230,1073,-115
2948,-7904,-2494,7145,-1230,1056,1727
2949,6414,3457,-3559,-247,-962,-1202
2950,-596,6192,5525,-442,1206,-46
2951,4020,4526,-1261,-1505,223,-523
2952,-2569,2575,-4814,604,789,848
2953,4249,7133,2235,1929,196,-265
2954,-3018,5476,5070,-1862,977,358
2955,-3697,-1219,2712,1079,749,-352
2956,-5332,-1337,5375,-1330,-760,-543
2957,5427,-5364,-1625,-204,-1416,-1816
2958,6187,6180,755,-50,-1512,513
2959,-5925,3576,-6415,-1966,-1895,1903
2960,2887,-4964,-5544,-1886,1269,-1967
2961,2474,-4081,1004,1632,498,-149
2962,4063,-4519,-2777,-1928,1134,-26
2963,-1204,4985,-3224,932,540,-281
2964,-788,-328,6365,906,414,-87
2965,-5355,-5231,2866,216,1222,-765
2966,6487,1148,-7374,-887,244,-510
2967,-3488,5513,-388,-383,-656,1123
2968,516,1779,-6930,1555,-1881,1476
2969,1648,-5437,-3765,-131,1562,1770
2970,-3369,-488,-7685,885,-192,1787
2971,-5338,5149,-2952,427,780,302
2972,6014,-652,1180,-263,-198,-545
2973,677,-3132,4607,1363,1776,1695
2974,-4259,-2909,6371,-1860,-453,-1110
2975,-109,3650,-27,-445,383,859
2976,-6140,-5557,215,-902,-1653,-1635
2977,2761,-1978,3706,1340,-752,1053
2978,-540,-5294,-6112,1299,940,-1951
2979,7139,7240,-2729,858,-1342,-1113
2980,-2126,-7623,-6784,-277,-1441,309
2981,3077,1266,-2151,-1079,1785,-998
2982,1938,-235,131,-1824,-20,468
2983,1308,1421,-4926,-1765,1449,-1466
2984,3931,-5204,-7650,-1160,405,-367
2985,1328,-5022,-3,-1587,-1885,-1404
2986,113,309,6525,10,-268,-1333
2987,-1094,-1857,-2038,1181,-1545,-1676
2988,1114,-7209,-3605,-210,-240,-669
2989,7829,-355,4428,758,880,-489
2990,3174,-3400,7666,1840,491,-261
2991,2509,1278,-4066,-993,1911,-1107
2992,4059,6882,1751,-1362,1242,1708
2993,-4285,-6973,-6920,-1027,1415,-729
2994,-4812,542,-2637,-957,1956,473
2995,4492,-2016,-1678,1014,1548,-1754
2996,1101,634,1442,1052,1369,807
2997,-6566,909,5525,713,1736,662
2998,-3614,743,2730,-1635,1786,-1968
2999,4672,-3503,4929,264,327,412
3000,918,3505,-4546,-623,223,157
3001,2425,-2385,-6376,1304,22,-1271
3002,6850,-4615,2588,-1009,679,-864
3003,-6215,3178,4095,532,1819,-741
3004,-1734,-4187,-7705,-1021,1150,-1467
3005,7012,1,3076,-750,395,-1358
3006,1159,1464,-6304,-269,-880,-72
3007,-756,2167,3392,747,1527,109
3008,-4885,531,793,-1873,-811,-1197
3009,-4211,-5046,-2930,-416,1714,-1348
3010,841,-3512,-2484,355,1860,524
3011,-6605,942,-7,1696,-680,320
3012,-7384,7011,603,1289,89,190
3013,-2282,1423,-5083,-993,-1950,291
3014,1697,-3448,6575,137,1493,672
3015,-7873,5745,2849,214,493,606
3016,2269,2823,-4662,828,-776,-1709
3017,-3333,-5053,36,-523,-1912,1704
3018,-3898,3201,7876,1282,-605,1562
3019,3467,11,2616,626,-1687,1255
3020,-2922,5748,5693,-942,747,52
3021,2064,5308,4668,-237,575,354
3022,203,3229,-2158,-334,-1999,-794
3023,-2504,4983,-6665,-1773,1951,107
3024,-1066,-6570,-5239,-439,-264,-383
3025,-7349,6138,4302,1109,-671,1740
3026,4580,-5842,-5199,1772,-1191,1967
3027,-7542,4096,5074,1672,371,-1656
3028,5954,-6386,-7104,-1238,-1601,-1443
3029,1771,-3386,6735,1982,-1981,141
3030,-1389,4978,1988,984,951,1994
3031,-2212,7002,175,-48,-793,-1794
3032,-2992,2883,-3692,1055,599,-1090
3033,-3046,-6415,4427,949,255,-1679
3034,2787,-39,5764,1694,-194,-248
3035,-5372,-5122,5560,-1910,-1592,-201
3036,382,6221,-3874,-1630,-1419,-736
3037,473,7755,-2673,-46,1499,1465
3038,7349,-7778,5260,402,1437,302
3039,-7505,-7306,2420,-1129,-1287,-559
3040,-4506,1097,-1263,-1351,722,-1243
3041,-7043,1323,4376,745,527,1481
3042,-3102,-3040,-4243,277,-409,-763
3043,6438,-3114,-6432,-89,-1582,257
3044,3826,-4646,-2227,1711,896,-1532
3045,-2139,3933,4868,461,1006,430
3046,-1596,-6145,6736,-842,968,-414
3047,-2267,6223,-6526,99,-312,823
3048,7747,-5008,7574,936,-915,-835
3049,-690,5083,-7439,-514,591,-1213
3050,-3131,-6294,-2275,756,-1395,1375
3051,-2408,1132,3912,115,-273,1189
3052,-7359,4714,2993,1007,-625,-1367
3053,7587,3933,-5940,-562,-178,1640
3054,-3612,4018,2886,590,-445,736
3055,-6680,3792,7943,-1692,-664,-105
3056,-1702,-3397,-4543,-849,159,-1959
3057,7032,-1508,210,-50,-1126,206
3058,437,3815,503,-772,611,-1943
3059,-2272,-6002,-3791,-1686,1993,-672
3060,255,-924,6308,1385,306,-750
3061,1199,7769,-545,-942,1999,-92
3062,-7751,-1201,1576,1544,-1733,-1770
3063,-2938,-352,-1793,-86,-821,590
3064,5973,601,-7654,1555,-192,-1497
3065,-4861,-1258,273,-1789,1857,277
3066,-2546,-7211,-3213,-1905,-1355,-1880
3067,-5724,-3083,6336,820,985,1582
3068,-7837,-225,5301,663,-1085,-1016
3069,1806,-3933,-1775,-708,1362,1746
3070,3105,-111,6063,-1452,-1054,-282
3071,472,-3427,-7787,-1309,-576,-645
3072,4633,6069,2390,1870,687,-967
3073,-7753,2966,438,-1360,-1100,1893
3074,6374,7216,-4816,-574,692,-610
3075,4435,1467,5766,-322,-769,-933
3076,2042,1898,5117,1395,514,-417
3077,640,-1786,-6172,1070,1629,-1328
3078,4679,2385,-2471,144,-1710,-856
3079,7638,-5658,-3876,-1738,322,-284
3080,-7126,7429,-1781,-1715,927,1643
3081,-3285,-7127,6679,-422,-1690,-20
3082,2829,7667,3040,398,-799,-184
3083,4271,7050,-1704,1715,-1802,166
3084,3998,4216,2746,-1630,686,-145
3085,-5181,6060,-3450,-1590,1028,1219
3086,-6062,6200,5096,-1901,1083,962
3087,2820,-7579,5209,1417,-1235,-21
3088,-2947,3115,7397,-645,-431,-946
3089,442,-1862,-6758,-1841,345,-591
3090,-7883,-391,1431,-837,-35,1550
3091,4264,-1824,2027,-581,1718,36
3092,3910,-4676,-3029,552,-1161,-1138
3093,-7045,7257,4918,808,-290,6
3094,-7475,6436,7681,475,279,542
3095,-6677,6095,-2469,-703,-1865,-654
3096,-3228,-5223,4076,-1539,-792,-1719
3097,3202,-5690,-4456,1558,-165,-89
3098,-4676,4578,6215,504,1148,195
3099,-296,1785,6997,607,547,1505
3100,4278,-4000,-5110,-759,-281,-907
3101,-4843,949,6853,-875,1400,1472
3102,2138,-1270,-90,-1101,-236,-683
3103,7204,4537,-6923,1093,1774,272
3104,-4952,-3678,-7291,850,605,-580
3105,3203,7201,4218,-1443,-833,-948
3106,-5097,-1470,3928,530,1345,-1447
3107,6418,470,7873,370,601,598
3108,-2351,2550,-697,313,1403,38
3109,7588,-1575,431,-1479,-285,-1336
3110,-5457,-4946,-1962,-1358,1611,295
3111,-4707,4039,7758,-1204,-1794,-1838
3112,-1433,-2570,459,-2,1031,-1970
3113,2408,-347,2261,-1481,-1984,-94
3114,-6469,7895,1389,1486,1818,1001
3115,-228,7320,1063,-231,-1948,-255
3116,6322,1669,541,1760,-1134,-250
3117,-4989,-552,594,716,1132,1598
3118,6250,-4532,6458,-1792,-1631,1768
3119,-2969,-7258,4852,759,-993,-566
3120,973,5889,-2010,-1334,1507,-859
3121,-1215,-3019,-173,1363,283,1680
3122,390,6009,1330,-1472,-320,-1663
3123,-2754,5929,5503,-1349,-1054,1948
3124,-4128,-2161,843,238,87,180
3125,7012,3291,7039,1530,451,986
3126,3337,-278,-2531,-569,-1227,-1373
3127,7544,-4979,-4587,1828,-1405,145
3128,680,-3126,-7547,-767,1878,687
3129,6404,-7878,-7974,570,461,355
3130,-6526,-5487,5769,-1039,-1984,-1439
3131,4024,-5578,-3907,-677,1285,1662
3132,-5682,1379,-911,-330,-294,141
3133,3651,4683,-5766,-595,-1457,645
3134,-4339,6707,7521,1580,-722,-758
3135,5819,-505,6035,-1179,438,1228
3136,6441,7321,-2021,401,-1853,285
3137,-223,-4696,-1238,-1665,-17,-1821
3138,-6113,-3771,-5702,1016,360,-702
3139,5606,-2884,-5417,1395,-1363,-1033
3140,2515,-5176,-3618,878,929,828
3141,-4718,581,-7603,1528,635,1568
3142,917,-7544,7593,1659,1141,-64
3143,-5826,-5333,3229,1682,320,1419
3144,3488,7950,-2303,1825,1220,-1124
3145,-3199,-5948,-1925,-16,-406,-1111
3146,-133,-1182,-1723,-681,1890,-2000
3147,2647,7525,-2183,1417,-911,630
3148,1916,4937,-5477,40,569,196
3149,-7545,-195,-3499,-723,855,1922
3150,2789,-2014,5374,-152,1318,-1334
3151,-4985,-3875,-3529,1388,-1254,-222
3152,4048,-5467,-1047,1429,-1921,-974
3153,-2870,6716,3086,-1724,-178,1200
3154,3891,-3017,5071,1222,-844,87
3155,105,-3442,-7319,1228,-866,1979
3156,-1356,204,-3528,1924,41,-154
3157,-1565,3028,5772,-1377,1869,1392
3158,4871,-5685,1818,-1221,-1570,1463
3159,-7317,3936,-7803,-1294,1959,1265
3160,5370,1077,6871,-454,1364,-1564
3161,-3674,-6083,5536,-271,1585,1696
3162,-5428,4474,873,730,-177,1350
3163,3528,-7575,-5170,379,-1573,487
3164,-1859,-6552,3634,-334,-976,-965
3165,-281,-6960,819,217,1532,-504
3166,1189,-569,-307,1693,-443,-1183
3167,-442,-4586,1506,-1124,919,38
3168,2254,-7754,7298,-1105,-1256,1121
3169,3756,3600,6414,1582,1179,-457
3170,3390,2363,-2007,943,-1163,1269
3171,4425,3861,7213,-1484,-700,-280
3172,6837,-1103,201,-19,1459,12
3173,3427,-4065,-63,-1057,-1491,-1511
3174,-6994,-1511,-7350,1421,1760,-696
3175,-5942,4130,4249,-1007,-1236,-812
3176,7255,-2005,-5928,-365,1952,60
3177,-6851,-4986,-5241,-1874,-1816,1458
3178,5016,2232,-5454,1595,-1371,778
3179,7258,143,-5601,1933,1492,66
3180,7983,6214,6198,-1379,-988,522
3181,-3339,-7237,-7982,-1203,735,568
3182,730,-2461,1897,1743,1203,-1438
3183,5949,-7929,1962,-918,-1012,1573
3184,6589,-95,3837,-408,-541,1536
3185,-3045,-419,7815,526,938,-1269
3186,-1914,1346,-6453,-84,-440,-1717
3187,-5188,6049,-5949,323,1800,-1196
3188,-4916,6639,4878,36,1849,621
3189,17,4072,-6731,718,1355,387
3190,-6660,-4758,-5277,-919,485,-342
3191,2428,2350,4050,-1196,-664,1389
3192,4467,4970,-4186,145,1282,52
3193,2239,-3976,-2511,-1932,-350,-1044
3194,-4593,6229,7991,-765,142,-816
3195,1908,3967,-7435,-1874,912,596
3196,5135,2704,7814,-27,165,-441
3197,3170,-2719,424,1388,-742,-181
3198,125,-22,-3494,-1155,1765,1053
3199,-838,-6264,-5601,1975,807,1785
3200,3481,-6195,2003,772,-925,-1035
3201,-6954,7860,5852,-1245,-1801,-508
3202,4355,-1849,1289,-1936,-1791,1120
3203,2502,-6212,5529,-490,-272,123
3204,-3911,2785,-3459,-1929,-832,657
3205,396,6954,6310,259,-1496,1848
3206,-1078,-5845,4040,-1968,868,-1592
3207,-4430,-3951,-3664,1706,1984,-1014
3208,-1335,-1526,-6504,-1912,154,-580
3209,-5159,383,7805,-867,1739,-1680
3210,-5807,-5372,-6115,581,906,693
3211,1519,-7582,5208,-1936,768,-434
3212,3355,1921,2532,1,-1309,727
3213,3555,-1698,3704,1886,948,1977
3214,3847,1670,3912,-1960,1993,1641
3215,3990,2033,3821,-1855,1289,-1373
3216,1771,1415,-2362,831,-1999,-595
3217,-135,6806,4575,308,-1078,876
3218,-6609,2166,-5668,-254,1767,1629
3219,-5594,4289,-4813,-1722,-671,-1569
3220,1200,-4641,-2044,1542,-192,-698
3221,7965,-3954,-3223,-1346,1723,-1211
3222,-4963,-6871,-7344,1909,509,615
3223,-1657,1926,-3481,589,1053,162
3224,-7441,2683,4085,-701,1105,-65
3225,5293,5263,3938,379,1976,-1351
3226,-6763,-5292,1523,-1445,-1046,500
3227,5935,-5942,-6862,-1648,-28,-1233
3228,-3283,1590,-4322,-1083,-1727,-746
3229,7225,4112,4232,-742,1256,1846
3230,2489,-4430,1955,-46,602,1504
3231,-7239,-2705,5867,-1546,1638,-833
3232,-5454,-1833,6284,-1934,544,1978
3233,278,859,-5805,365,1106,1790
3234,5998,-6311,2636,-990,-423,683
3235,-479,-7837,2073,219,-1338,-286
3236,5810,-4092,-627,1187,644,823
3237,-1286,-3440,-5487,-1222,-1780,-1834
3238,4047,-1044,-717,382,862,-1124
3239,-2879,-2794,3468,-646,-971,-504
3240,1981,-5334,7083,-1784,1544,1332
3241,-454,-1839,-3959,-24,256,1484
3242,-7900,5706,7899,195,331,-1770
3243,-1241,-4967,6985,-481,-942,1213
3244,-3332,-4215,4804,-633,693,-791
3245,1672,3842,550,-600,684,-601
3246,7543,-7983,3551,-1331,931,-1378
3247,-4758,-1831,-7894,1745,-424,881
3248,-2489,1018,-809,383,1884,-1074
3249,-6206,2345,-3546,-241,643,-409
3250,3426,-2863,4703,-321,-968,-1704
3251,4522,7499,-7880,-724,250,-137
3252,-6405,-3410,-2803,-1609,-222,-657
3253,3824,-3108,484,1714,-523,545
3254,-6619,6851,-4796,-76,1003,-249
3255,757,-2310,5351,1657,-1197,-817
3256,-1214,-196,-3650,-87,283,353
3257,-4838,-261,6086,-792,-1066,102
3258,4587,-7377,972,827,-485,1096
3259,3650,3779,-4499,1805,-679,907
3260,-5261,7323,-4872,1344,-841,-1014
3261,-7722,7664,785,1633,1798,1728
3262,1488,4731,-120,722,278,923
3263,-6144,2066,1787,-828,-1129,1762
3264,6313,6310,-2065,-968,-233,570
3265,-1718,925,-4450,1712,-768,767
3266,-6465,-2782,-234,-1749,1562,194
3267,-1464,7549,6767,793,600,-1727
3268,-3509,3667,2518,-54,-711,1681
3269,-3249,-4962,-5556,1934,1171,-1342
3270,4222,-4671,7662,-1796,-1016,1607
3271,5742,1676,-126,-987,-908,1086
3272,-7495,7790,-5494,-774,1201,1208
3273,-1451,2938,2683,-1961,552,674
3274,7265,6066,1294,1756,-1773,-1547
3275,-6008,3489,4348,921,-1150,1525
3276,3874,-982,-5913,-250,-433,63
3277,-5080,-2947,-3604,-500,1251,975
3278,5443,-5064,-7099,-848,548,333
3279,5167,-6468,-7420,1805,-700,-366
3280,-7295,6920,-5479,993,-1919,-595
3281,4511,6892,3944,166,-1948,-971
3282,5829,4446,2033,1702,1699,1735
3283,5641,7383,-4042,1971,48,-1792
3284,3996,3606,-99,1980,1311,20
3285,5925,-7052,3140,-1518,-682,-75
3286,-7287,1950,6983,1290,1353,1942
3287,6467,253,3160,-1683,1944,-1940
3288,-6178,-3923,-3185,867,-727,103
3289,-22,-4140,2048,111,325,-1857
3290,-5992,2316,-6724,-449,785,-1912
3291,2404,6899,2406,292,515,110
3292,-5309,5445,-1419,1891,896,-1088
3293,3478,-1399,-7626,922,-584,790
3294,-2202,-1544,-6959,-1059,1747,1927
3295,3446,-4791,1195,1469,940,1945
3296,6014,-5115,-7152,862,1698,-369
3297,-574,306,-6081,1560,1226,-91
3298,-5642,-483,4336,1721,-1310,1147
3299,-7813,4077,-6144,-384,-1264,406
3300,2681,-5964,-956,-134,-386,1467
3301,5956,6999,-5970,-662,1528,-1685
3302,2797,-1596,148,556,255,1717
3303,-6322,747,307,-388,1858,-961
3304,-1125,-7315,-4643,-827,-1400,-1484
3305,-1010,923,6384,-666,1058,-1427
3306,-6449,-1759,5980,-401,-1251,-272
3307,-3899,-7724,-7353,1273,-301,1781
3308,-1309,2622,-2689,-368,-946,-1997
3309,-140,6612,2474,-50,-1927,736
3310,5596,-502,5443,-387,1464,1370
3311,1801,45,-4267,1704,-57,-523
3312,-5789,-3464,-2666,-996,-1210,-1661
3313,-3910,-4832,-5611,-440,1175,-1077
3314,-1304,5447,-3921,721,287,1572
3315,4177,-1509,408,-1286,-244,-1745
3316,-7507,-3627,-1292,-1480,-36,-1326
3317,-2302,-2102,-417,-344,-1623,-1789
3318,2448,4960,6195,-682,-786,1951
3319,-5241,7757,268,-438,-1252,-1124
3320,-303,5211,1659,1843,-1493,1793
3321,639,7155,-1482,1927,531,1330
3322,3589,948,3786,-1178,-754,1204
3323,3623,869,4795,-95,-150,-752
3324,6382,353,3257,-1482,-1877,311
3325,3177,-1447,7684,728,1551,1210
3326,-4025,-7036,2161,-540,-1871,-1997
3327,-1577,-1411,7484,1062,-508,-1970
3328,4294,4905,7083,-505,-174,1546
3329,-1397,-691,-2247,-1466,1134,-129
3330,3248,-6850,-4161,1806,1951,-158
3331,5596,2904,-3597,-319,-1026,1973
3332,6016,-7388,1211,-964,-991,-684
3333,6903,7976,-1798,-1040,-1737,771
3334,-3761,4113,710,562,-1947,-1645
3335,2045,7959,-2762,-1294,452,-398
3336,4128,7344,2889,1913,1990,-1286
3337,2963,-6687,-902,1874,1997,-420
3338,7073,5279,1456,-1749,-709,1850
3339,-5188,6772,-6627,1669,-575,-1667
3340,6911,-1143,-6315,-1041,1254,770
3341,797,-4433,-2142,-1783,-536,481
3342,5460,276,-2605,-406,928,-384
3343,2479,-3424,2499,-466,-1452,-1517
3344,4615,2785,-3212,1730,1466,1542
3345,-1091,6297,-2994,-156,-1428,-1836
3346,-3955,-1453,-3403,-1070,154,-1455
3347,-5719,-922,5538,-1215,614,1117
3348,-3897,-387,-5856,-342,619,-1896
3349,-2267,3378,-5185,951,-1275,1628
3350,-4734,-509,6052,64,1836,1374
3351,4228,2520,-866,-417,-1347,1294
3352,2026,2919,6178,-912,712,1026
3353,-1300,-1817,-5097,1564,1065,-811
3354,1166,-7951,1865,-1121,-368,1117
3355,4430,4140,-3803,-1143,881,703
3356,-1932,3523,-3702,1429,1330,461
3357,1342,-2768,-1923,1854,1208,1685
3358,-6060,7271,3810,-1176,-263,-1038
3359,-7319,4687,5385,-65,-1922,720
3360,-522,-3967,-5359,1650,-1594,1171
3361,499,-6745,-7982,1276,-1254,357
3362,5174,-7664,3596,-141,1523,-579
3363,-4709,-5108,-3903,-1300,-643,-1329
3364,2068,-3606,-4437,1286,595,-577
3365,-719,64,1630,899,438,-1415
3366,-493,3259,-272,878,-1464,-967
3367,1859,-1686,5031,431,1294,-1512
3368,7218,2290,-7044,-41,1395,817
3369,-2582,7091,-5638,1497,1660,1764
