Sample,Ax,Ay,Az,Gx,Gy,Gz
0,3696,-1183,-5351,-1146,1585,1689
1,-5939,5354,4286,-366,-267,256
2,-7066,-7746,5244,300,1235,1554
3,-5527,1251,7779,502,-1356,-1280
4,377,7721,2460,-915,-350,-1433
5,2715,6849,5050,-1766,-1361,1015
6,-215,-1817,6163,-1994,523,-1169
7,-3322,-3771,-7221,1801,-654,171
8,6004,7417,2570,-1756,546,441
9,-3134,-6071,-5984,1398,1926,1433
10,-2910,-466,-6944,-1550,220,1514
11,3245,-7278,-4831,-1788,-95,-570
12,-6029,3246,-3989,1878,94,-1531
13,6814,-2407,-429,1496,-1253,1013
14,2324,-6363,-7075,-508,-1702,1755
15,-3891,7859,3122,1457,-139,822
16,2803,5779,2807,1859,-604,189
17,-3669,4384,1291,207,-797,384
18,-5767,-3119,7796,223,-1644,399
19,-3066,-3336,1283,743,-484,74
20,127,66,-4375,-534,-235,1756
21,1308,2902,-2394,1582,-1302,329
22,2184,-4323,239,-1170,-5,1527
23,-7401,6560,-6478,1229,-520,-1369
24,-7982,1413,4457,-856,-815,-206
25,6571,6160,-5754,-335,-1810,606
26,3084,-1070,-6786,-693,-957,510
27,-157,-7998,-7200,-570,459,-9
28,2060,-7725,2670,12,-1500,-1070
29,6012,389,-2784,326,1556,141
30,93,-7919,-1230,-417,660,-770
31,1341,-3682,-7302,1430,419,-1472
32,4650,3647,-1999,-783,-1918,-591
33,-4222,-1068,624,847,-29,-1582
34,-467,-3454,-4675,-1019,1384,-1255
35,2109,-1711,7457,-116,-469,-212
36,5213,7081,49,-1501,286,-1166
37,-7094,-5813,3152,624,1664,-1970
38,-6796,-5156,7320,180,-103,879
39,-2390,-5699,4823,1959,-389,-192
40,-7116,2699,-4211,-334,129,-98
41,7246,-393,1990,1670,1386,102
42,-5683,4532,-819,-1863,-265,-107
43,3371,7262,237,-1847,-1187,1831
44,-6596,1852,-3771,-1498,1280,1467
45,-3385,5958,-5631,-1467,-1930,735
46,898,-7498,-6315,-1860,106,992
47,5040,4763,-4633,1784,-876,-154
48,934,5970,2400,433,1263,106
49,7979,-4456,-2446,1271,-1885,1426
50,2606,2535,1325,-140,-1550,-1363
51,-1794,-3997,-1649,-876,-1585,1079
52,7336,1406,6571,-61,1867,-1561
53,4183,-3081,7753,193,1326,1069
54,-101,3832,5550,1506,-1503,1949
55,-1494,6371,4749,-1198,-8,421
56,-4940,128,-6798,1956,-695,-1539
57,2491,-6924,5339,-1449,1347,1226
58,-6094,-930,-6416,1273,-584,-144
59,-3743,813,-2863,1368,-1760,109
60,-4083,2433,385,1526,283,787
61,-3233,-87,3316,1941,-270,-1678
62,-4735,2504,-5779,-172,945,-157
63,5506,3688,2887,255,517,-205
64,-2308,6812,1813,-302,1273,-625
65,5914,1136,-7771,1163,407,-1840
66,-4307,-7666,4819,610,-1593,107
67,149,-2779,-2885,-49,-1033,-513
68,-1143,1158,-1802,-1339,-1425,-479
69,-4911,126,5472,-301,722,-1278
70,-3436,7294,7633,-1682,-1704,1200
71,-244,-7628,4457,132,-620,-1038
72,5855,3126,2180,-1126,-1263,-400
73,6388,1219,7117,485,912,1907
74,-6974,-6352,7353,-1567,-1905,-1948
75,-380,-4513,-4771,-810,-1854,-1751
76,-1896,-2581,-1682,-1704,1552,-203
77,-6414,-395,1881,-167,-734,663
78,2268,-987,4139,-295,-1038,-202
79,3052,-6241,-4391,1023,-356,-1186
80,-1035,1888,-5146,-1763,-130,547
81,6564,-1080,-7550,1310,520,-499
82,820,-2266,1851,1036,934,585
83,4899,-5035,-4901,-1244,-359,50
84,-3121,2968,5889,349,1909,-314
85,6658,-3878,3258,1776,1477,667
86,-7644,7591,7168,-1790,1993,536
87,1712,6320,3542,-621,-1299,1730
88,-5166,4427,-2000,946,-46,-1280
89,-5601,-5395,-6959,-922,1722,63
90,165,522,-5877,1667,608,1462
91,-7570,-1523,-1904,1815,-100,1947
92,-2748,-5560,7521,-106,1961,1151
93,3039,-3065,3282,-959,1695,-1872
94,859,-382,5039,-252,-402,835
95,6303,5919,2185,317,1825,355
96,4305,-4944,-6838,1428,313,-1218
97,-1663,4383,3255,-427,-1908,-639
98,310,2884,-2711,1522,-484,1735
99,3855,-6592,3807,-1101,-1418,1569
100,3251,110,4835,-1900,-984,74
101,1289,-1566,-2228,745,1926,1431
102,-4641,4153,-7171,1573,234,1443
103,-3106,596,-5996,-1612,-310,-954
104,-2881,3882,-695,1721,1795,-304
105,488,-4060,-444,1097,-600,183
106,-6723,-4907,-5918,370,-711,371
107,5737,3378,-3186,182,1914,1752
108,3121,-484,-895,-1214,-1852,-1531
109,3860,-6448,-7590,1529,367,717
110,-130,-697,-4602,-797,993,1124
111,-809,-6947,-4200,1422,-832,-758
112,2347,-5722,-742,-1360,1666,1596
113,-7750,-1794,5377,766,-799,259
114,6712,3487,-1406,593,1335,1434
115,-3311,-7456,-510,-445,1986,1995
116,2026,-2227,-7541,788,-1717,-1546
117,7486,-2374,4438,1122,-305,-1606
118,-1889,-399,-5953,-1776,1540,-1240
119,-1344,4754,-867,627,1811,-1445
120,-2094,5316,-5553,1919,244,541
121,3345,7213,3272,-1562,-1546,1515
122,5614,-2082,-721,1356,670,181
123,7505,-6612,-1217,-434,104,886
124,-2367,5395,-6415,162,-24,-1293
125,483,-7492,-4858,270,-617,-724
126,-2447,4703,-2896,-1009,1494,-784
127,-3756,-6120,7853,-1952,217,1977
128,3008,1681,-518,947,1915,302
129,1205,3501,-6964,-1067,648,455
130,-789,-4375,-4705,-1606,409,-1738
131,14,3230,7274,-930,1057,297
132,6678,-671,-1372,-1596,1837,-10
133,-3121,-6286,-7683,-1795,-177,-1000
134,-7593,-5245,2358,-1877,479,482
135,-7859,3112,-1221,-1771,1102,-1705
136,-3233,-5854,-1666,603,-1024,215
137,-3930,315,6031,-1953,1593,1177
138,-5958,-258,-2135,1428,-129,1216
139,3082,-665,2566,72,577,145
140,-500,-6743,3891,-236,1028,-1303
141,-7047,-626,-84,-1664,814,1640
142,-4040,7000,6226,358,1731,361
143,-2595,1191,-4862,-1325,218,1377
144,6323,-5111,-5973,1183,77,1326
145,-6120,-5030,5199,1897,-1285,-328
146,1567,-4777,3652,1372,-612,857
147,2183,364,-6927,385,129,928
148,-7775,3230,-960,-118,1812,-547
149,-7689,630,6468,-1697,872,938
150,-3505,3322,2173,-1220,908,87
151,2538,2453,4510,403,17,446
152,4942,4919,-2699,1932,928,-1353
153,-977,7819,-7050,-271,1057,-1531
154,-4082,-1168,-7759,-1182,920,1448
155,2278,6686,1670,-1374,-1380,1612
156,5950,5279,2881,-1710,-198,-1423
157,6890,-3357,2491,1324,-137,-1068
158,-2266,-582,1712,1407,-1087,-413
159,2966,-1598,2794,1708,-443,-79
160,361,-2617,7344,-1637,-777,1189
161,5804,-1947,-143,904,-419,242
162,-1287,-4938,-5882,1168,685,-780
163,-2497,-3818,-774,1309,1679,1123
164,-4497,5829,-256,376,-1026,1224
165,3989,1427,-1946,1947,1837,-745
166,844,3486,2109,1518,-1384,-369
167,-955,1317,7855,67,1819,1087
168,-231,2993,2674,273,-602,1852
169,735,-3425,5030,-1730,-726,169
170,-1158,-4403,-4890,-286,781,-1723
171,-4482,3898,-934,1376,-1716,537
172,3873,3738,-7387,-1399,955,840
173,2989,-7247,-3714,1407,1341,-1938
174,1647,-6893,5271,336,810,569
175,3720,-815,3801,-1720,1485,-1367
176,-7946,-412,-5574,440,1800,-1657
177,5740,-6964,374,-1411,503,1146
178,7134,-6055,-2481,1201,-329,799
179,-3615,-2398,-4216,1032,-1146,244
180,-7967,1672,-3851,-827,1353,-693
181,-2250,2182,2333,578,295,1473
182,-3230,-1374,2745,-437,513,963
183,4908,-3350,2385,1246,1969,-1258
184,-7620,-2268,5028,741,1278,-1100
185,-1147,400,-702,-1033,-1584,1805
186,-774,5491,2219,-1997,-92,-1471
187,3248,-2143,6461,1773,176,-1302
188,4319,-423,921,664,-1737,-1917
189,5044,3119,3280,-680,175,-969
190,1217,-1548,-7005,-1693,1219,533
191,-6187,-1600,2744,104,1598,-1493
192,-2624,-6025,1612,-936,-170,-1119
193,-439,-4848,3740,1375,1732,-1957
194,4148,1537,1713,-1668,167,612
195,2512,-1638,2793,246,642,1863
196,-2242,-1468,2818,185,-1689,1962
197,1033,-1042,-2505,-1466,1644,1663
198,3781,-775,-4332,-399,1299,1464
199,-4674,-7379,1206,-1325,1721,1691
200,2688,2113,-1060,-403,-1214,1328
201,-3493,230,2989,1331,1577,-281
202,1842,-1928,3597,1387,900,1797
203,3105,3353,4810,-1097,-1104,-1669
204,133,-4836,-1395,-1951,268,1530
205,5489,-7018,7143,1292,1588,1777
206,-1479,-3097,-2534,-1291,1977,-775
207,3731,5951,-3656,616,324,229
208,-973,-726,-6980,-124,1194,745
209,-7521,1795,962,-1449,-1747,-952
210,-4541,1405,682,-632,1843,1195
211,4093,5122,743,1408,-1431,1034
212,-6651,2028,741,108,-18,-525
213,-4536,-6883,-4934,1317,1816,-831
214,-190,2754,4232,129,724,1881
215,-2649,4768,-3629,186,1132,1865
216,6043,-7290,6034,314,76,351
217,-2475,3874,-2494,1049,-1637,1545
218,-3069,-6452,7198,-46,-747,274
219,4048,3112,-175,-980,-31,-1328
220,-2733,2720,-4821,-64,136,-265
221,-904,6996,-567,667,1492,565
222,884,-5107,7720,1076,-1271,1986
223,1427,-2258,-732,-239,-854,1461
224,1483,1234,7972,1188,-797,1072
225,-5777,144,5541,795,-1839,-1838
226,-2664,3821,4443,1853,1329,716
227,-1472,-6274,-2258,-1295,-275,-936
228,3646,-3039,-4960,-451,-875,-678
229,-1227,6401,-864,-1215,468,888
230,2417,-6631,4000,1583,-1711,1919
231,7753,6841,-7298,-1321,1469,1354
232,6624,7941,7451,-385,1781,-185
233,7918,2281,7859,1844,-1443,466
234,-964,-786,6141,-318,-1000,666
235,-7985,-5991,-7405,-1243,1253,-1916
236,7956,3981,546,1433,1619,-288
237,-4494,-7143,-5042,-1082,-274,925
238,-185,3672,-3730,-752,939,-796
239,3185,-3329,117,1762,1640,1148
240,-2926,-6918,2026,1303,-473,-1452
241,-1749,6665,-3099,1701,-1025,-698
242,-4331,-7637,-5922,-590,705,1513
243,-6485,220,-2975,-1040,-463,-1025
244,-7772,6889,5676,-1172,-1147,1579
245,-5228,7679,7223,-237,926,1915
246,3126,-4791,-3691,-1352,1197,1607
247,-6862,-2820,1328,1156,1728,1453
248,6008,-3936,1012,-449,-445,701
249,-5658,-3129,5123,529,-1498,-265
250,-4627,-3288,-1351,-1711,1634,-151
251,-1363,-2401,-7760,1744,1157,-1171
252,-7776,2826,-1103,-466,-1739,862
253,3708,565,390,-291,83,143
254,-2845,-5296,93,1262,-291,-948
255,304,-3026,-6862,-1136,365,193
256,-7443,-7519,-5139,-325,1721,-924
257,6550,-1606,5308,-1864,153,915
258,5177,-430,-6822,-1409,1994,744
259,-2766,-792,2192,-1364,-498,222
260,-2810,-6585,4742,-643,-1158,927
261,-6630,3626,7573,1162,826,-972
262,-3792,2039,-2249,418,-1959,-1590
263,6652,-2685,5132,693,-1646,-1884
264,-7409,4773,-6997,-137,-1434,-773
265,-1375,6321,-5439,1155,-313,-489
266,-4815,-1746,-89,-1231,365,1769
267,-124,-1769,3,-13,1174,-28
268,1495,6189,-6399,796,-311,-915
269,-5935,-5465,7947,369,165,-102
270,-6378,1542,-4582,990,1262,1102
271,6920,3984,2861,13,-1229,-137
272,-1589,3624,-3151,59,-440,-569
273,-2713,-4065,4665,-1458,-355,181
274,-2812,6772,-2449,-1853,-873,-107
275,6019,1509,-1931,-401,-1742,1204
276,2303,3778,-4709,1513,1669,-1330
277,1440,4322,4463,-763,1285,1613
278,2593,-2509,4290,-1029,698,94
279,1912,3389,-7309,1608,385,-1035
280,-5547,-5672,-1612,240,1055,697
281,-4007,567,-5725,-1053,-1690,-12
282,6580,-7809,-3867,1516,41,87
283,-1723,173,-7611,63,-573,1950
284,-2139,1713,3028,953,165,-1118
285,-3337,6380,-4346,1530,-362,766
286,-4825,2368,390,1302,953,1177
287,-218,6186,5374,1054,195,1891
288,5968,-5880,7577,623,840,-1448
289,7624,1938,-7373,1882,1176,-911
290,-6671,-1687,-6431,-79,117,608
291,5751,175,3359,870,1482,-1777
292,3989,-6578,5404,656,-1126,268
293,-4112,-5931,-7240,1702,1436,-122
294,-6933,100,7250,-1926,-704,-721
295,960,7870,-4961,-1998,989,695
296,-5326,3785,5722,-450,915,-964
297,3712,7774,2771,-992,1894,-1654
298,-5801,3623,340,855,1225,-816
299,3870,1197,4337,-1461,-107,1873
300,-4965,-6631,-6017,-351,-1198,-1437
301,7437,-698,-5436,-971,-1838,20
302,6146,3331,-7828,1963,231,-6
303,143,-7257,2400,575,182,-736
304,-1385,-803,-4252,-1889,908,-1037
305,4211,-6830,-7857,106,208,-235
306,4173,5848,73,-1620,-912,-616
307,4942,-4337,-6344,141,972,-1194
308,4331,1507,3742,-886,-910,-1887
309,-1799,-435,-4441,-582,130,1407
310,67,-7645,-3067,265,577,-236
311,-5222,-536,-991,18,722,1311
312,1838,-5616,3167,1892,-1114,-1419
313,-783,-4319,1345,-1781,-1726,-513
314,-969,2625,-6557,441,994,-1202
315,4582,-6796,-423,1422,-1303,-1244
316,657,-7283,280,-844,279,-42
317,5218,2725,3843,-684,-72,650
318,-1158,-3097,1102,1835,-1455,747
319,6909,-1530,-3201,-78,1807,965
320,-7869,5723,-974,1619,-674,1114
321,-5359,-345,7874,-1596,-425,-1526
322,-3916,4875,-5111,-1717,1713,-199
323,-3202,7513,-1263,845,1779,-1209
324,1577,-7150,-4285,-676,150,-1920
325,-6908,60,6826,-481,1455,415
326,7175,-2275,7153,1682,-1556,963
327,-1225,-422,669,-541,-1382,180
328,503,-4386,5196,-1491,-828,-440
329,-931,-6436,6939,-5,-623,-1014
330,5458,6645,7511,-1430,1347,830
331,-3912,-2574,4747,-1288,1971,-417
332,-6759,-4957,6454,1907,-743,-1577
333,-3213,212,-7568,39,35,-1713
334,-4160,-1334,-5528,996,1378,342
335,-6990,-1745,-3512,-291,-684,-504
336,279,4750,3420,919,158,-443
337,2640,-4522,5638,514,999,-1678
338,-3955,4545,-6549,-1386,937,841
339,3522,2419,-6045,1793,825,-351
340,6773,4837,-5981,439,-1628,75
341,-448,6781,416,509,-522,-1758
342,-4029,-4692,6898,-1682,-847,1853
343,3516,5754,-4309,-1878,-213,1657
344,-3864,755,-5715,892,-1626,-1536
345,-3755,6712,-1313,-134,-670,-71
346,-2269,-3982,4155,1742,457,1451
347,1816,-5556,-1695,543,-1733,-1296
348,5027,3125,1981,-1161,-373,1171
349,2202,-2162,-7163,1545,-800,-12
350,6268,5945,7786,141,-1826,-1160
351,-3249,296,4048,715,1460,-347
352,-4348,-7765,1451,1375,1944,1618
353,-264,3765,383,-1113,-1562,-211
354,547,6249,1426,-1849,-1675,-442
355,-4614,1865,5628,-423,414,809
356,-4359,-7434,-385,-1895,-1927,-1048
357,1079,-5418,-6420,-1244,1094,-670
358,5451,-1758,1912,-611,1053,-39
359,5005,-1385,-4802,-1742,-1522,801
360,-7180,7554,-7315,32,-1816,203
361,783,-3736,-5410,163,1924,-92
362,-3618,-140,-5495,-704,1481,-1919
363,7525,-4821,2009,-98,598,1252
364,1366,-1652,4329,-1519,1834,286
365,-2490,-5648,-5825,-1355,1942,-832
366,3774,-1288,7854,-427,1044,-1753
367,-5277,-4333,6427,-345,150,1819
368,-2480,2048,1592,-940,1301,1266
369,3107,4044,6199,-1865,-511,1585
370,2996,-7098,6468,1763,1087,679
371,-2410,5824,5049,-1566,-912,-1435
372,6642,-1953,2087,-1920,-1108,255
373,303,-4080,-6774,-361,-1052,-286
374,-7921,-44,480,-1073,-1082,24
375,-2322,4303,-5970,-1702,1215,-1088
376,-1441,-4213,-5869,-483,523,973
377,4603,1769,5617,379,799,1016
378,-1454,4816,4547,1007,168,1739
379,-5499,2965,3427,-1181,-1686,356
380,-6099,4160,6002,158,-1381,-1423
381,-3413,4427,625,-1534,148,176
382,3117,-110,1453,1548,-1194,-1128
383,-4084,-2484,7533,-726,1629,726
384,4299,-5576,-2423,-759,1348,1978
385,-1591,7198,-7119,262,1906,-120
386,728,-1605,-7533,409,-716,1392
387,2917,-5194,-4671,708,1282,1939
388,-5082,-2895,-3568,-473,1919,-1016
389,6081,722,4742,-36,1556,492
390,-3829,-1475,-5832,1175,-1436,268
391,-6143,-5982,2069,1851,-866,-1289
392,4418,6480,-5517,519,559,-1038
393,5278,2673,-5556,1084,1829,-1184
394,-7926,3997,-2108,-1235,1183,-720
395,6737,-4935,-3178,1446,-854,867
396,5791,1268,-1053,712,-1275,-965
397,5319,-3274,-7550,1267,-1006,-1480
398,7055,-4972,-1209,-694,676,-1794
399,-1943,-2569,2351,1957,288,41
400,5119,1234,-1964,543,365,1813
401,-7729,-4553,5628,-793,502,1762
402,3684,5058,-4999,643,-714,1867
403,7315,6611,-3679,1587,762,-1222
404,363,1272,1251,214,194,130
405,-5748,4498,-7413,1050,-778,-522
406,2236,3892,1519,-439,967,-1465
407,-935,5012,5372,399,1878,-1385
408,845,-6698,6574,-1044,-1996,-1823
409,4798,1203,-4486,1550,-666,-456
410,6986,5011,-7518,1060,1347,-247
411,1456,5727,-7318,-1156,-1404,1594
412,-1371,-474,-1669,1384,-1216,-1287
413,453,6093,-7241,-812,-933,1676
414,-4287,-2543,2647,451,1722,543
415,1943,819,2082,-922,1397,-519
416,-1000,-6140,-4220,-1284,1689,571
417,7875,-7922,372,-525,793,-1839
418,-948,427,-1163,-1720,1777,826
419,2689,2895,4045,1385,228,374
420,-7505,-3612,551,5,-1200,-607
421,-4891,7297,1368,1555,-455,1683
422,730,7538,3787,542,1028,1147
423,-6466,7140,-2061,971,-1506,-1800
424,7566,-7402,-308,-624,-1868,-16
425,6960,5093,1770,-1880,-1199,-1448
426,5055,-3529,-3486,543,1326,788
427,539,764,7116,-473,-140,495
428,712,-6610,-2646,540,-828,-116
429,2964,1711,-321,-1542,1753,-805
430,-1956,7394,5492,-1226,728,748
431,2272,-2119,798,1072,-1034,403
432,1918,5999,-7946,1965,1745,253
433,6499,-4118,-947,144,-582,-138
434,1385,4072,2960,-1301,-1251,-1718
435,900,-3410,-6218,-69,-416,-1303
436,-1779,-7766,406,1306,654,-1623
437,2733,4887,-3875,1480,-716,208
438,5932,-1584,-3416,-1886,255,-1452
439,6406,4598,3665,231,-132,445
440,-4108,3895,-5870,-1404,-1742,722
441,2754,2905,1915,-115,-308,-1636
442,1407,3257,-6367,418,1527,-706
443,-6931,-1293,-3713,1422,1040,-1124
444,4845,-3386,6824,1818,-1225,1894
445,-2892,-4544,-4892,1603,-129,-86
446,6303,-6589,1679,-1780,-1451,1595
447,-5770,6755,-4489,1409,-924,-309
448,-5951,-3251,3913,492,314,831
449,6653,-3435,6174,588,-90,-158
450,-2664,7100,3892,450,500,804
451,5510,3298,3143,977,1697,-1349
452,-3446,-7416,1524,1143,-1982,-996
453,2941,-6606,1173,881,-126,1857
454,-6670,2033,-2597,1258,-904,-390
455,-2233,-7730,6765,-402,-1827,-1516
456,-4497,504,1478,1716,1921,-1101
457,4227,-5137,3568,1323,387,122
458,46,7344,-4551,40,-1284,-347
459,764,-6926,-1097,1529,594,1621
460,-2680,7528,4144,-687,-346,-91
461,-5288,7333,7018,-524,-1918,-741
462,4372,-5743,-3592,-760,-1886,1848
463,-6331,2875,6395,-1489,1272,-548
464,88,5913,-3242,133,-1769,967
465,-1744,-1807,4801,-1933,-1372,-1474
466,-1327,-5484,1402,1164,66,1080
467,6755,-309,7853,709,768,670
468,7164,7878,4984,-350,1660,1855
469,-5999,-5120,-3405,1018,-1700,1921
470,2454,7938,3760,-1633,-976,1970
471,-2059,549,6976,16,1766,-75
472,-3828,-5421,523,1034,780,-1157
473,1804,4673,-7377,498,572,1940
474,3469,7601,-7172,1330,33,1895
475,-932,-1957,2125,-1438,-313,-1205
476,-6227,-6417,-3446,817,1720,814
477,4982,1544,2486,175,1138,-280
478,2945,-7658,-7484,918,1664,241
479,-4154,-4055,4802,1603,-1220,-35
480,492,-5947,948,-417,-493,-993
481,-2023,2504,-1335,645,1840,-1647
482,460,-4830,3537,-1019,206,1329
483,4007,3368,4113,1011,-1889,619
484,-198,4325,5935,236,-1685,1651
485,-5506,6581,5355,-1923,207,-1046
486,-4016,-1136,-5161,1999,-883,334
487,1115,-6265,4980,1162,-1577,-219
488,208,-3362,3914,1701,-652,1076
489,-3943,1267,-2204,681,-500,1873
490,-7038,-7052,-2421,1339,-670,1892
491,5156,-6552,-3014,713,-243,-1556
492,4202,854,-6794,-928,718,-958
493,3723,3429,-7141,1848,-1509,-612
494,7021,3934,4583,1571,-1079,-188
495,7302,1632,-1552,494,-149,-937
496,703,-1395,-1722,-163,1016,690
497,510,-3853,4676,-217,-135,-721
498,3889,1850,7661,1035,1266,640
499,5752,-5414,4467,548,-1372,1061
500,3008,-2879,-948,-63,648,904
501,7727,5559,1946,-730,98,-542
502,-3980,-5991,7333,1515,-1504,1676
503,-7872,2559,-3953,-1069,-1813,945
504,1005,-2914,6899,1184,-1407,-1261
505,5297,-4070,-6594,920,1867,-520
506,-6035,4114,1107,-1161,319,-1394
507,-7789,-7165,-4084,-337,605,-1200
508,-2924,-6760,4787,1472,139,681
509,-54,-5836,-1797,-717,-1966,1818
510,-2505,-4425,1704,619,1091,117
511,-1157,-1594,2061,-1145,1733,-1152
512,6849,2422,5238,1363,-2000,-1561
513,-304,-104,2266,-796,-1473,-1832
514,-208,2283,1303,1413,-1032,-865
515,2512,5086,-5180,147,-571,-1751
516,1086,1452,1147,-1415,533,-781
517,-135,-2290,-2346,632,-1756,-1366
518,6709,-1111,-523,77,1985,-39
519,7074,1404,659,-1223,-1833,1602
520,-7360,-3409,-7460,330,749,170
521,-5115,-3483,4103,-1629,262,-1027
522,7588,-4062,-1141,-1668,839,-683
523,-1617,-4007,-4022,1380,991,-57
524,3170,1876,-5258,-1617,817,-660
525,976,4079,6796,1897,430,-1803
526,2875,-4191,4005,-1380,730,287
527,-7313,-3521,-1611,1352,-585,-752
528,4723,3308,780,-1353,379,-1511
529,-6306,4125,6238,1256,-136,592
530,1660,5714,4270,103,-1411,839
531,-703,-7130,-6616,-1362,-1140,1144
532,4060,-1681,1821,-1177,1477,-1326
533,-7114,5083,2752,73,1459,-497
534,-5369,-3648,5122,-139,-1788,-950
535,-7458,-7315,3008,-953,895,962
536,3645,-1825,-3492,661,1480,-1164
537,1148,3302,7534,-348,11,1415
538,5807,5066,2814,427,1816,-1738
539,7803,1631,-7142,1127,-987,1516
540,4448,-2733,2568,-1388,-1590,-32
541,7995,1481,-6069,1202,421,43
542,-6080,2486,4769,1147,130,1003
543,98,-369,-4789,509,-390,988
544,5274,5611,7613,485,-1065,-1196
545,7613,343,2806,-1282,-54,194
546,-4440,3139,4084,1973,-1770,-12
547,-7695,-5953,3025,-1786,-1156,-220
548,7623,-5929,-5965,1795,1737,-1062
549,-1045,5194,5446,-1883,-262,-196
550,1356,5724,-5381,589,-116,-402
551,-2471,5281,4109,1260,725,243
552,3852,2873,3222,1906,540,1684
553,3311,-7195,5226,980,693,-99
554,-2384,-7443,-4117,-880,1432,594
555,3748,4281,7927,-733,150,-83
556,4403,4370,419,1542,53,1519
557,1456,-1819,-2420,-1036,-632,-921
558,6640,4169,292,-1893,-1408,77
559,-4721,6396,-7517,1727,-1899,-850
560,-6056,1301,-1965,582,-1902,1225
561,45,-32,-1876,1751,-855,1223
562,-7538,-5235,-515,556,424,116
563,6522,-6219,5965,-444,-96,-1922
564,-4419,3725,-5488,1339,-1980,-1320
565,-6159,-6330,-5845,1353,-1107,-506
566,-3624,-823,-4379,-1000,1153,811
567,-262,7451,3372,-382,114,-449
568,-2932,5163,-1478,1675,-1608,-996
569,5409,-4766,5169,823,-1252,-1747
570,-144,-1405,5301,-890,-460,-1490
571,7792,-2682,4038,-1360,1597,-983
572,1513,855,-280,-426,-1296,186
573,-6480,3673,-5557,-962,-55,1618
574,3494,-2780,-4417,-1465,-405,116
575,-3075,713,-7611,-978,-403,-760
576,-76,3588,-3643,-802,1444,1526
577,-3728,-2574,-1461,1001,-1336,-1541
578,-3758,6107,-4683,-1360,334,1265
579,-697,-3400,-3249,823,-160,-769
580,-6333,4418,7704,-429,-1855,-89
581,5350,-1102,-3813,-1488,-1792,860
582,-6453,1845,-3966,-1585,-1946,-1885
583,-2661,-144,-154,1627,1274,474
584,-4157,-3069,-766,45,-1737,-860
585,7442,-3915,4226,-504,-1109,-1218
586,5296,-1941,-3212,1752,-102,951
587,-7633,-1579,-4906,6,258,-241
588,-2232,6284,4840,1286,-119,1647
589,3572,-4417,-2314,1438,1642,1392
590,6413,999,-3262,-1528,1295,-1370
591,-4864,-7119,4404,-1372,-402,-245
592,4998,3323,-3614,-1325,-219,-1929
593,-4799,-4143,-2851,-1698,1125,-1385
594,4134,2868,-5335,1535,-165,-802
595,-1011,-1486,493,-1527,676,-1904
596,6574,3218,-2695,246,-56,1516
597,-3071,-72,1026,-1289,1005,-1898
598,-4645,5934,6047,-509,503,1816
599,5450,-6297,6695,-35,1413,1668
600,4839,3828,-7740,686,-886,-281
601,2049,7873,4698,1638,572,-1701
602,-3228,2221,-6583,1535,-864,-980
603,-2236,3045,-4093,-666,-1314,-1469
604,5033,4018,-313,868,1977,-205
605,-5829,-853,6068,1467,1238,-661
606,-5846,-785,5707,1958,-1247,1530
607,1923,7073,477,7,626,-899
608,-351,349,7521,880,1549,-72
609,6379,836,-6629,1784,1295,1615
610,6623,-4607,-3525,-903,1821,-1658
611,378,-283,-6600,-1154,-301,1750
612,-968,-5733,-6503,-1836,201,1971
613,-4814,6172,-6397,-1207,-930,1502
614,4427,7424,-3793,23,-1308,362
615,1587,6227,-6607,-55,912,622
616,-1865,-4239,3220,1109,-1507,1276
617,2429,-5770,-3784,1924,546,1739
618,201,7365,2301,-1862,993,138
619,3325,4535,-966,60,-1636,389
620,5959,-5092,-6435,1187,1438,-411
621,-3189,-6272,7662,-1899,1687,-149
622,7048,5235,3551,-1701,71,-258
623,-5089,-362,3675,1935,-427,-890
624,-3155,-7175,-5928,425,-394,639
625,-3318,-6112,251,1714,-1163,-1045
626,-3830,-6102,1220,-424,730,1006
627,-5072,7239,7642,-1178,-560,-789
628,7588,-5104,-6737,922,542,288
629,6566,-6541,-3920,372,1313,1785
630,7063,-2304,-7635,-670,-1417,1282
631,4914,7114,7775,1092,-1962,191
632,3657,2940,7319,-1224,150,1148
633,-1157,1471,-6992,-631,286,1006
634,-1387,1501,-6565,1773,-471,-598
635,-778,6644,-240,-542,1183,-105
636,-4110,-3803,5806,543,-1285,-817
637,-5748,-5123,2764,1487,-730,-1726
638,7202,4114,6308,-1770,496,1430
639,3235,6463,4992,69,845,673
640,1691,-3567,-4767,-1872,1944,224
641,-2807,-5931,-5804,1312,-761,-50
642,-7892,-4849,-4087,-1295,-720,-473
643,2612,7396,-6729,-236,1018,1595
644,-5264,-3836,-96,-1515,-870,-1868
645,4486,6015,3263,-1735,-1240,-535
646,5449,-1908,5297,1878,-1741,-1967
647,1216,-4370,5533,922,-104,-1464
648,63,-5329,-6637,-1805,-1229,-1214
649,-6873,-1950,355,-1213,217,-1702
650,-1886,-7754,-5566,-448,1957,-142
651,4073,3719,7198,1306,-369,-738
652,-6125,7246,7651,-555,-648,-360
653,1676,6626,465,1251,-1797,740
654,6578,-1740,5943,-90,1333,151
655,1092,-2590,5294,282,1756,-1619
656,335,7376,6618,1429,-177,-814
657,-6149,-4754,-1536,-1970,776,1022
658,-5630,-4521,2280,199,1968,-392
659,7026,4964,-3736,-170,-1669,-600
660,1831,-2994,-2434,-861,44,1707
661,3877,37,-3275,1905,1694,94
662,-817,-4592,1059,1031,1017,1928
663,5050,-1413,-6951,-1129,-1439,-982
664,-1119,3816,3990,-1092,-1134,-175
665,5207,-4906,2690,233,-1132,-1006
666,1873,-7264,4773,282,1438,74
667,5142,-1278,-4216,1563,1747,1715
668,-7200,-4743,-62,1723,373,97
669,-480,3243,-7036,-360,-1776,-646
670,-1909,2243,-2524,704,549,678
671,924,2937,4439,-1396,848,350
672,-2570,6896,2877,1580,-37,-1777
673,6285,-5189,2982,1792,1580,459
674,-4715,4772,4868,1031,1860,-1180
675,-1604,-6068,-1256,-1457,954,1105
676,428,578,-1257,-1067,1373,-244
677,-6877,-1701,7165,-1323,-6,1991
678,-1031,3890,-1410,-1724,-479,187
679,-2107,-4654,-7658,381,-746,-1120
680,1920,-6124,499,31,1434,613
681,7361,-729,-1809,-1356,-153,-265
682,202,3642,7023,-1470,704,-1683
683,-600,-7993,3027,-582,-1734,150
684,-7296,6276,4621,1046,-663,1756
685,-5514,5165,-4146,-71,-1479,33
686,4559,-7992,6868,-1627,-121,87
687,2583,-745,3949,-1082,-1543,1394
688,5525,-7815,1298,1027,-1734,1655
689,7875,5265,-3773,-272,474,-1554
690,885,-5575,-1957,1049,-1209,-447
691,498,-4862,-638,1318,870,165
692,6600,7385,3505,1787,-1501,-204
693,4097,1263,3723,1145,886,-572
694,-3147,4398,-1796,-991,135,-1147
695,-3031,-4653,-1978,-125,-1595,-552
696,7958,1742,1580,659,278,-916
697,-7205,-5214,-4386,-511,910,1511
698,-5183,1935,2464,142,548,-1407
699,-7182,-5466,-7986,-143,-1552,1136
700,-7589,2561,-5986,1124,-267,720
701,6636,-1235,1741,-1590,498,-1075
702,-1168,6177,-7725,-891,276,-826
703,1978,3004,4336,-343,1342,93
704,1880,-4970,-3857,1311,-300,1021
705,-7011,2439,1103,833,-595,-1836
706,-6949,-5067,7813,-604,-1411,-99
707,5511,-7432,-1977,-1288,699,-1774
708,-2412,7125,-3610,-1387,1920,1820
709,1468,-2866,1397,1633,1360,1430
710,-2927,-11,6880,-453,-111,1762
711,1974,-7923,-6301,-1530,-1078,-864
712,1272,-3878,-113,743,344,1318
713,-7721,1346,-3594,292,112,919
714,-5318,4317,4560,-435,940,1839
715,853,-6927,3979,-325,-1439,1156
716,-4538,4844,-6252,136,-75,-1493
717,3730,2527,-6340,1375,-1633,-1907
718,-5228,-5542,-104,-496,1345,1801
719,7733,1394,-4597,-780,-1122,1800
720,4931,-2661,-3018,-1698,-1526,-34
721,-4034,6869,7755,1557,-698,-1868
722,6729,-5818,825,-576,-1948,-352
723,7466,-3698,5825,1662,-1711,-1728
724,-4577,-750,-6393,-1206,-902,1006
725,-7842,-389,3209,-1698,1086,-1589
726,-1797,1019,1345,1715,-1286,-252
727,4228,7083,3876,50,1122,254
728,2157,5652,267,-1389,-779,1529
729,6819,-6477,-1156,-741,-299,-1310
730,-1693,-634,-7967,212,-1209,-1295
731,7043,1745,-4455,-820,-1696,1712
732,-4612,-6053,5851,577,1879,-861
733,-3373,958,2201,-1501,-954,1606
734,2172,-3127,-7370,1070,-210,-1777
735,1537,-6801,-5905,958,1839,-1176
736,-2462,5013,-4592,-543,-1726,-224
737,830,-4781,-1243,1482,1693,403
738,5273,-7809,6654,-771,1073,1376
739,3649,2742,2881,577,507,-349
740,2343,2841,-5907,559,1502,-1942
741,-4471,-5674,-1478,371,-1314,-1452
742,-4190,6171,5501,-350,1566,1589
743,5258,-1837,-7764,-604,-1461,-92
744,2892,732,6737,775,-1546,1576
745,5157,-2323,7755,1476,1427,-1771
746,-6574,-5952,-1644,-1848,-1554,-355
747,-4226,-2895,-6381,-1014,1063,-1374
748,1257,4352,6970,-256,676,-1385
749,4484,6957,-5663,-1367,1947,-250
750,-3638,-5668,3816,-1766,1399,933
751,5734,4275,-101,774,-100,268
752,-5429,-3344,2981,1464,349,-1204
753,3390,1624,5891,-1353,19,-171
754,1146,7811,-5936,649,-1632,1935
755,6208,-7906,-2471,1926,359,1808
756,-5843,-4740,-715,-1664,-1244,1084
757,-7573,-2778,-1549,-974,1841,-1648
758,-5514,-6158,6444,655,-1729,34
759,-6691,5198,-5859,-864,-1174,371
760,6189,-5216,1121,1196,-1172,746
761,-6643,6342,3570,-1615,546,-1230
762,1592,3920,5968,374,888,-613
763,-6490,-3576,6170,-49,-1166,250
764,-904,6739,-4047,-1295,-1539,1676
765,5845,-5999,2532,1461,1348,-1840
766,-6760,7200,-391,1981,-1375,-1978
767,4202,6638,-357,-1658,761,101
768,1835,1130,3560,-647,18,1987
769,2841,-7504,5902,-818,-1323,114
770,153,-1731,-3482,-1034,34,-1360
771,-4520,4141,871,-413,939,-1733
772,4043,4189,-325,350,326,886
773,-4169,-250,-1655,-109,-1696,260
774,3189,-3324,101,233,1567,-61
775,-3477,7465,5093,-1336,1862,663
776,-5315,4921,-7139,1300,90,1528
777,-3475,-4431,-2759,-1287,537,1168
778,3457,2991,6291,-1342,1667,-1584
779,-2639,6312,7213,-528,-923,-491
780,5958,-6542,-1888,1885,1821,1720
781,4654,5771,990,1956,-180,1767
782,5459,2133,6597,-992,254,1843
783,301,435,402,-1393,182,342
784,3511,5223,-3052,-169,-1556,-1721
785,802,-4861,1905,-966,22,-53
786,-2727,3119,-2714,351,1912,-148
787,2020,-1493,-1280,-1857,-277,701
788,-5400,-7338,866,1277,1164,-1546
789,-1641,-3429,3993,1633,1566,786
790,-3734,-6280,1325,5,-951,-427
791,3116,-982,1183,1816,1439,-1483
792,-6005,4716,-5885,-341,-1217,-435
793,3375,1598,82,-63,-142,-76
794,1037,7727,-944,322,-1142,-1070
795,4610,-7041,-4284,-1866,-1214,366
796,-430,5090,-3521,-322,413,116
797,891,-766,2443,-1124,76,-1775
798,-5536,5954,-3897,-1276,-1526,1079
799,5517,-2949,-6148,-1120,-795,-1988
800,4007,3839,-7123,-1299,-269,1467
801,-4787,490,5945,-1701,697,-1294
802,1667,-1291,2825,1290,-1173,1337
803,3745,302,4763,-638,1163,-516
804,2639,-6211,-2395,-18,-1756,1479
805,625,364,6514,918,1939,1746
806,6099,-1388,2719,-792,-850,-1091
807,-2626,807,202,-649,1562,-1118
808,5113,-6093,6862,1556,1888,1880
809,-5535,-1467,4399,-1668,-286,-1473
810,-6793,-6994,-5544,-467,-1493,142
811,5212,2131,-161,-1653,-1260,-1174
812,-3395,-2494,2615,1060,1526,1549
813,2386,-3756,5518,-1450,-9,39
814,-2241,7614,-6566,1858,703,-1879
815,6611,7689,7033,431,-734,1056
816,2789,-2214,7446,-1155,437,1739
817,6974,-161,-3609,1741,-487,-323
818,-4723,-7508,6707,-526,83,-1879
819,1561,-5736,4740,-1453,1228,-637
820,-4205,-2209,-5043,775,837,-1587
821,-7799,-5588,-1053,1328,-710,400
822,3853,-3063,-515,1794,-275,-36
823,-3750,1482,-863,-1917,-579,-970
824,-85,7581,-7412,-6,1926,-1557
825,4680,-7183,1315,-1049,1660,1058
826,466,-7704,6513,1557,1296,-1704
827,-2826,-2921,-1656,1959,240,346
828,5602,-4373,6059,697,-1218,-246
829,1141,3757,-5534,1904,-819,1121
830,1553,-6169,2909,-356,-1958,-1536
831,-1261,-5369,-3471,1332,1767,1517
832,-7150,-4632,-1691,1393,1636,-1235
833,-7517,-1693,-6235,-1921,-433,12
834,-7443,4619,2513,-223,-1074,-146
835,4197,7809,4674,1671,833,417
836,-2816,4044,-2131,366,1447,888
837,5744,-3118,-4792,48,-1638,-289
838,-7727,-132,1958,1729,1776,-1820
839,-6031,-3747,-3150,-351,940,663
840,2826,4565,-4232,1963,-896,-794
841,4999,1634,-5515,-582,-1246,384
842,-2937,-2564,2916,-1275,990,-247
843,-4549,3495,-1271,-231,1871,-1989
844,4010,-4209,-737,-277,-1319,1812
845,-6095,-5236,-1219,1213,13,1448
846,1194,1488,-7095,1997,-40,1592
847,3950,4336,1249,1634,-834,1725
848,-1063,7409,1619,1775,1958,-1649
849,-7435,7639,3876,-437,822,1479
850,1626,966,6678,1110,-715,-151
851,-3694,1206,-5460,1967,-1809,-1071
852,-1876,-7651,-7663,1476,-606,1422
853,4187,-440,1277,-1046,28,-736
854,1008,-6342,-2259,1757,-1617,1210
855,5463,2123,-2138,104,-1980,1280
856,7356,7327,6715,-1701,-694,-1070
857,267,-546,-5213,-411,1628,-1513
858,6489,-43,7138,1917,508,635
859,5325,1677,-1052,-123,-998,1037
860,-894,1733,7223,-1270,557,1875
861,-735,6273,-1135,-44,-340,1495
862,-1921,-5740,5882,402,-1162,-982
863,-6961,-3335,7747,-576,1582,-1013
864,4272,4335,-5843,813,1464,979
865,2361,3104,3148,187,633,-443
866,7251,-1654,-1216,-730,1011,-809
867,5699,4502,139,1454,1752,1628
868,-269,-5885,-3774,-1882,-237,1848
869,-7640,-1187,-7169,-1272,-858,545
870,5470,-664,6626,1450,-1158,396
871,-3646,1681,2951,-19,-193,317
872,3665,-7787,-7296,1806,-457,-1549
873,4170,820,-2672,-1873,-1481,-1460
874,6392,7557,-1630,-827,1742,-1148
875,3542,7133,-5393,-349,1453,353
876,-6326,555,-4733,1264,-1181,-1768
877,-604,-1517,-4486,1911,-1506,588
878,-7294,-1698,-2563,-55,627,1419
879,5274,-3196,-968,1344,1081,-686
880,1277,6909,7440,915,-735,343
881,-5300,6135,-5582,-1133,-999,312
882,-7341,-1342,7394,1642,1804,-671
883,6778,1732,4907,557,282,-1431
884,-7478,5803,-1830,-545,539,-59
885,-3221,3567,1292,-315,-831,-922
886,6237,-3158,-2259,-376,1882,-1668
887,5481,-5814,-5477,640,-1024,1303
888,6993,-7989,-4738,1949,-1547,1735
889,7794,-1490,-2113,1906,852,1665
890,-2054,4468,572,1313,-1522,1132
891,-1807,-7468,959,1305,-1265,-353
892,-5345,-3873,2955,478,1721,-1997
893,752,3343,3664,-332,-1564,101
894,4776,5015,3589,1369,741,1023
895,5375,-1887,-5939,1219,1334,-111
896,5145,4621,3423,-604,-776,-327
897,-4847,-7946,7784,1105,-1500,-1521
898,-7863,-6966,-7545,1564,185,561
899,-1007,1586,-1992,-1505,1263,-1804
900,5335,-5750,5025,-884,-209,286
901,-5774,-6160,-7131,-820,993,1723
902,4266,2361,846,-1898,724,664
903,2684,2152,4127,-138,-1838,-1763
904,-2594,5492,4297,777,1898,-175
905,6519,2668,-6861,-88,1947,-808
906,4994,-1088,-4027,227,1122,-382
907,2118,4300,1951,1626,-1214,1916
908,-4625,-7287,7242,-1753,186,479
909,6429,4224,7165,499,-1147,-257
910,6243,366,466,-712,482,-1024
911,7336,7406,-4077,-284,1928,1534
912,3898,-1060,-3972,-394,1184,840
913,-2526,4827,5999,-993,1749,1836
914,-4438,-5977,4033,-1886,-924,107
915,2225,865,6147,509,1603,-1987
916,5486,1719,3201,1637,-1073,203
917,4671,3952,1887,380,-1876,-1031
918,526,-5584,6086,-433,1731,-312
919,-2333,-4746,-2158,-1043,556,755
920,-6284,-3011,-475,-1242,1466,1397
921,-7948,-4890,-2255,1453,1092,1044
922,2691,-711,-7331,1856,-505,1729
923,4020,371,-7745,-1015,1113,-1960
924,7237,-755,-5140,35,834,-207
925,5533,-6582,-1423,1755,1973,1382
926,785,5534,6382,-687,-30,1359
927,-4024,3772,7745,-1777,-622,1814
928,729,2774,3999,1194,-1470,1568
929,-3092,1663,6547,-701,-1167,-479
930,-4077,-5233,-3675,1950,-387,-194
931,971,7858,1477,1161,-1485,-537
932,-5989,-43,1758,1082,-1698,1071
933,1812,6717,2395,-1000,-150,957
934,-5288,-366,-6257,-1286,1776,1077
935,-4493,-3286,-7201,-491,-903,-51
936,5044,1449,6389,-1599,-275,-1582
937,7264,5250,-161,226,-1918,1520
938,484,-7454,515,-1721,1146,-1135
939,3224,-3561,-4262,733,-1001,110
940,-7680,-255,6965,605,1013,990
941,591,7281,-5715,1415,712,1041
942,4099,6030,6529,986,-1997,1771
943,-359,2255,-4914,647,-636,-118
944,-2187,-6623,352,-272,1506,332
945,-7916,-5800,-5484,-1422,-519,-1162
946,594,-5255,-4073,-1188,1146,-1639
947,-2204,2141,-7741,1234,759,-423
948,4446,-2230,-2865,-1778,65,1065
949,4740,2739,6594,-1505,-857,903
950,-837,4782,2195,1070,157,749
951,2411,-5905,-7562,604,1039,682
952,1300,-385,-7086,1713,-1880,1466
953,-1488,-4313,-6496,549,-656,-355
954,-1460,-6336,5057,784,-124,-1598
955,3389,-5830,234,-1120,-1599,1965
956,1323,1823,-4565,1220,516,6
957,3476,6813,6593,1533,-1909,-253
958,-5341,2140,-1622,1151,-398,-307
959,-6688,4203,-3441,-1756,-290,-378
960,2528,554,-6518,-1705,470,933
961,-7080,4207,-2306,685,-726,-1476
962,-1296,3343,-6225,-239,-472,-491
963,1154,-3473,-5681,-1296,-1059,-1228
964,-1554,734,4771,-1190,-82,-585
965,5400,-6981,7470,-1560,219,1842
966,-5724,1933,-2543,1688,-208,-123
967,-5183,4690,-4315,-1490,-1171,-966
968,-6087,3021,5419,-148,-1155,-451
969,1642,2061,1750,-1408,-1389,279
970,7029,3145,2565,678,-553,390
971,-6908,7092,7204,817,-1581,282
972,-6077,-523,-5617,-50,-1996,-595
973,-4324,1713,-4859,537,-1020,1069
974,-3599,-5825,-252,-885,531,-1905
975,-6001,-1152,-7770,279,982,-1450
976,-3208,5305,-6036,792,-1197,999
977,5381,-3078,5979,733,-1381,667
978,-3608,1320,-3133,1725,329,1621
979,-5741,4091,-1826,-267,-1128,-1627
980,2787,485,5099,-1204,-441,-1064
981,-4441,1809,6351,-984,-1129,-113
982,-7093,-1372,3443,1812,256,1780
983,4032,-5782,1691,401,750,-1505
984,7574,6823,2286,840,-575,-1082
985,4802,1289,-5878,864,-260,-1061
986,7198,-6756,-5506,-643,1014,1866
987,4129,-6501,-6778,1355,1029,-1664
988,6960,-4274,-6500,-664,1639,1785
989,-7704,2651,-6812,1541,-673,510
990,2211,-3141,-4671,504,1824,1535
991,2373,7805,396,-1394,-394,1575
992,7985,-2335,2419,872,1705,1067
993,3645,6608,5741,1047,925,1406
994,-2176,-7862,-1622,1737,1099,388
995,1226,5125,947,1405,310,-1387
996,6584,6996,4563,-458,-1262,-1204
997,136,-4506,-4923,806,1559,1721
998,-426,6783,6611,-693,-1855,57
999,7656,41,734,1970,-358,-957
1000,897,6224,6860,-1230,-337,822
1001,4537,526,2180,-696,1765,-751
1002,-5039,5931,3540,256,1056,335
1003,2639,-7916,-7526,98,-1630,-48
1004,-4800,-6232,-7500,722,-1050,-1960
1005,-7841,3159,3495,698,187,-1326
1006,-4976,-3200,7769,411,1134,1469
1007,-1688,-6260,-2604,-383,165,1330
1008,7255,-951,-4382,-21,345,1684
1009,3250,-7029,-2766,198,1828,-668
1010,4139,-6000,-5458,20,1231,54
1011,-6901,-7123,2527,-1390,-1989,1274
1012,18,-4936,-7408,-1605,1830,-1975
1013,2564,2421,5255,694,1405,1005
1014,-1583,1864,-1220,949,1751,740
1015,-2579,1001,3798,1382,-1655,933
1016,6788,4493,6527,267,-1671,-4
1017,-6961,3490,-6631,249,176,375
1018,2599,1866,-2629,-412,268,1704
1019,5540,1868,-2649,-1004,1434,-1767
1020,6679,-6878,5238,1590,579,1172
1021,-3894,-1848,-5705,500,1641,-885
1022,-4749,5272,4172,1391,-1438,-104
1023,7607,-7535,-3245,-1321,-1848,107
1024,4006,-4960,-3203,-851,-1735,-832
1025,-5498,-6304,196,1945,1908,-615
1026,-4073,6276,875,-1572,-1215,1035
1027,4581,2223,-4170,891,-954,1573
1028,-1107,5125,4498,-106,981,1364
1029,-6798,-1925,-3679,1832,-780,18
1030,-3691,1585,-2127,-1057,-1621,273
1031,-7518,5844,-759,-1220,-330,469
1032,6044,7149,-7739,1442,-262,1158
1033,-2535,996,-4948,-1294,-1707,-143
1034,2096,-1997,6834,-1213,-847,-982
1035,2814,-3313,6311,1865,-756,1703
1036,3518,6497,-2300,1259,-1845,-1622
1037,3229,520,4322,1895,347,1053
1038,-2482,2141,-1697,427,-1756,-1034
1039,6643,7868,-5903,-1227,-1504,1812
1040,-2459,-2352,2762,-38,-1645,1400
1041,-746,-848,6015,-636,-1796,1640
1042,-7332,539,-938,-715,1523,-1459
1043,6703,2117,4393,1917,1933,-1085
1044,-2929,7282,6324,-1547,-1984,-1334
1045,-4195,4763,6797,553,-379,1236
1046,1188,6141,-3686,-930,594,-945
1047,-2703,1824,-4511,1929,1047,298
1048,-4414,1076,-1304,164,-931,-86
1049,-4617,-7545,-1348,-1692,1450,-1283
1050,6792,6346,3618,-590,1619,1141
1051,195,-2128,-7985,256,1375,892
1052,-3002,-3253,5702,-808,382,-1062
1053,4439,1082,4992,1349,-1857,-431
1054,-4051,5920,-5115,-273,525,-171
1055,6356,-5046,2400,-646,-665,1336
1056,458,-3578,-4520,-1442,1337,1645
1057,1744,674,6941,1169,542,1392
1058,4402,5091,-1493,-194,-145,926
1059,1493,-1923,-320,-1249,1061,1827
1060,6198,5512,2458,1180,1456,-1709
1061,-1274,-5913,-5678,1119,1738,-356
1062,4465,-7972,-5092,-894,24,-1431
1063,4931,5638,-1348,-698,1442,1850
1064,-3213,3649,-1436,-1940,-324,-919
1065,1937,-7761,2367,-1617,1575,-1891
1066,-5515,2231,-2529,997,1557,-279
1067,-6971,-6204,6908,406,-291,705
1068,-4659,4243,-6442,-1459,57,-1078
1069,-5700,-3097,2553,-442,-576,191
1070,249,-642,-4668,1648,1289,-1297
1071,-5260,-4909,-6025,-1180,-1615,534
1072,7919,3895,-5596,-1366,-1296,-265
1073,-5421,-640,-6341,-1043,980,437
1074,-2066,7496,-2225,1537,1972,-1334
1075,-3171,7797,3458,834,-244,-168
1076,3056,-349,355,-120,1773,1220
1077,-4159,-6372,2065,-694,1971,-1996
1078,-7844,-4653,-6732,-1863,-480,-1076
1079,-2584,5364,1910,920,-1624,1510
1080,-697,3335,7276,-351,938,-471
1081,2624,-5642,-748,295,-1403,-1920
1082,-5037,-6470,5641,1716,430,-1828
1083,4235,7616,-626,-561,-1448,-1618
1084,-5312,-1358,4336,912,386,1232
1085,-3355,4852,5260,799,1773,1068
1086,1664,-5415,995,-678,1235,1366
1087,-1045,-1709,-2578,-1801,-1578,-927
1088,-7633,1936,-66,-669,-1872,-1126
1089,1031,-7026,4602,-340,-463,438
1090,1539,1375,4945,-246,1916,488
1091,1041,3751,3696,-546,107,1319
1092,5238,5254,1372,-1955,-784,1147
1093,7279,-4440,-4912,1569,-859,1033
1094,-1779,1336,-830,-873,1437,-1645
1095,4213,5718,3620,632,-1704,403
1096,-1590,-4672,6653,-1248,147,-1724
1097,-1113,-4934,-3860,-489,687,1769
1098,3651,-5799,3841,-348,724,-1460
1099,-1990,1688,2818,618,1634,-1434
1100,-2026,-2713,-5204,-131,650,-1327
1101,6087,5622,1571,623,410,-1637
1102,-1114,349,-7405,-501,-796,-1593
1103,-7005,322,-6303,1090,-846,1083
1104,-6463,2597,-572,-617,-123,1316
1105,-4528,-1658,1491,-1900,-371,471
1106,-7630,6027,-217,982,1197,-871
1107,-6477,-4491,1566,-940,10,1574
1108,6826,7975,3723,833,-465,1486
1109,-5576,1425,-3105,-294,-1167,990
1110,6400,667,3452,1151,1568,-1543
1111,-3786,7631,-2713,510,1220,239
1112,-1777,7599,-7666,930,1804,1763
1113,-3437,7551,7560,1598,1660,304
1114,-4014,-805,-3209,272,1468,1434
1115,-924,-6260,-5509,1657,-246,-601
1116,-3792,45,2440,796,834,-1504
1117,-2495,-1285,-1146,-1089,-2,50
1118,4358,4122,-3228,462,1178,-484
1119,-1677,-3490,776,-895,-1247,-487
1120,108,-933,-3829,172,-1236,-999
1121,3041,2389,-5515,-21,-1622,1
1122,-830,-858,5918,-1469,-750,-1027
1123,-5076,-7506,-1824,159,1594,1953
1124,-3539,-4585,3870,-825,-277,-695
1125,-1348,7860,-7753,1194,621,1892
1126,6768,-3557,-3610,-1041,-1821,1702
1127,6264,5388,4513,-413,-1743,998
1128,-613,5025,830,-960,-491,868
1129,7802,6632,-2687,1548,-1142,18
1130,-4022,28,4659,1177,-1658,25
1131,-473,-3156,5878,601,1425,590
1132,-1247,2225,4970,411,-984,-674
1133,6191,-621,363,585,1795,-1872
1134,7007,-376,-3430,1597,1313,989
1135,5722,2503,-7865,1668,-1909,1028
1136,-3867,-2199,-5592,688,536,-776
1137,-7024,-4162,3834,-1143,-1931,-616
1138,6275,5152,4780,18,-1917,1571
1139,-1563,-6295,-3471,660,874,-363
1140,23,705,1950,246,833,-177
1141,-5452,-1279,4019,-379,1745,1666
1142,-5907,3897,-5807,-364,-1234,-231
1143,-3123,-6213,5218,235,-107,-383
1144,-7690,-5355,6634,-706,-1904,1169
1145,3900,5020,7082,-65,-1420,-1786
1146,-4464,-2784,2124,114,-1909,-320
1147,6686,7080,-2319,1405,-223,-1402
1148,-628,-4762,517,1278,1016,-856
1149,619,5502,6826,56,50,-1566
1150,-1087,-2963,-417,-1752,347,974
1151,7373,-3901,1745,-466,978,-1918
1152,-7039,-7931,57,1049,-491,-812
1153,6161,-2710,-3413,-958,1915,890
1154,2510,3508,4262,-1983,985,1906
1155,-4200,-758,-4097,1058,192,1477
1156,-5764,4438,-827,388,1535,1042
1157,-1767,7944,-1839,739,-84,-68
1158,-777,6741,4318,-1682,1422,-1254
1159,5652,138,2161,1312,752,191
1160,3904,1933,-4781,1605,990,-1726
1161,3534,-5464,6954,-1747,-510,-809
1162,-1698,-1328,-2459,-905,-333,785
1163,-3627,-396,3010,-1066,1113,-1968
1164,7254,1294,6452,-1201,-1646,-727
1165,5964,5363,-2057,1464,958,-1871
1166,-5817,-1240,4569,-1719,-1995,-1886
1167,-4704,-2148,-6263,1751,1483,1689
1168,6627,-5110,-5657,713,678,-1798
1169,1866,-698,-5033,-807,-1161,-106
1170,-4159,6238,-7274,322,15,-1881
1171,-7701,6351,-1230,-1709,-1227,488
1172,-5680,-3968,3323,-1113,-1845,592
1173,5316,-6048,-3490,66,-1218,-1216
1174,-4106,-699,-35,-1641,-928,705
1175,2167,-4111,5707,1301,1185,1493
1176,3914,-337,5606,1463,67,1075
1177,7351,7296,5299,-1577,139,-232
1178,5182,4918,3241,-1217,-920,1372
1179,4744,4364,5385,1737,-1583,-1677
1180,-4944,157,3663,-730,1824,-1882
1181,6788,3720,-2899,145,-827,1211
1182,-2136,-2229,4290,105,985,1046
1183,-6841,-6003,5213,421,1965,318
1184,-2679,5547,-5217,-295,-1307,227
1185,2865,-4112,1855,596,-94,-228
1186,-4980,-6065,-3287,502,-1706,-193
1187,4949,-7696,7823,-154,1543,682
1188,3903,-1104,-3518,40,-267,224
1189,-3341,-3731,-7001,1245,1497,-1045
1190,-3853,5743,6922,1482,1918,1145
1191,6409,3882,222,262,-384,-887
1192,-2886,7744,-2289,1106,-1277,-1746
1193,5511,6798,6447,-85,-804,1367
1194,-125,1027,-4772,-36,-767,-1024
1195,-7977,2673,59,-1272,-1298,-437
1196,-5647,7675,1960,667,-1145,1603
1197,-5519,-5735,3169,-1510,459,-747
1198,-5437,-7284,4637,1468,1806,-534
1199,2009,884,-4227,783,-1870,-1987
1200,6357,-204,3468,434,-23,1779
1201,-3616,-5457,-4762,497,-90,1025
1202,7562,-1648,3917,-145,-109,796
1203,2106,-5930,-289,-659,24,805
1204,7774,-612,-960,1532,1369,-1149
1205,-3677,-5858,-5969,-975,-776,1072
1206,130,5076,6677,-881,-707,-341
1207,6610,-3094,2047,-1923,1150,-1970
1208,-2487,6238,6167,-401,-378,1635
1209,5320,-5168,-2947,446,653,-547
1210,4723,6998,-160,-1571,1860,208
1211,-7551,-3488,-2801,-1601,6,-1936
1212,3139,-1274,-377,-1600,1018,-55
1213,3587,-4115,-2420,676,-1867,1865
1214,-828,469,-6912,1021,-1061,-1816
1215,-489,1002,5659,-1695,-1012,-265
1216,-7192,2383,-604,423,-559,1049
1217,-2428,-2589,1116,-1056,1119,-1588
1218,-2136,2486,-6405,-1849,-826,-1926
1219,-4834,-7801,-3717,-1765,-1982,1762
1220,-4096,-6164,3737,-1468,-767,-883
1221,-1119,-3507,734,330,-989,1740
1222,4004,-4999,1326,216,1476,384
1223,-1041,852,5644,1781,-1429,-525
1224,2896,2966,-6466,-439,-222,-1053
1225,-2249,-1552,1877,1043,-632,170
1226,2036,-5334,-3317,-334,549,-273
1227,-2817,153,3702,1915,-218,-1792
1228,4732,-6776,-1918,-903,1223,-914
1229,3221,5524,-360,1783,-479,-1707
1230,-3701,-1492,1880,-1825,-265,-196
1231,-4661,3679,-5532,444,1983,-1896
1232,1988,-4590,-5964,1499,-1690,-187
1233,4093,-4474,4017,641,1035,1415
1234,1298,6067,3780,-1575,1130,-793
1235,-7230,5517,1893,668,1593,878
1236,-5231,6051,-3307,1112,-427,648
1237,-1036,-5162,-3986,-1961,159,-1511
1238,4159,5159,-7087,-620,1814,-351
1239,-7239,-7714,7145,-1882,33,-1859
1240,-7519,680,1788,-883,-1798,1247
1241,5385,2119,2508,-1056,-1034,787
1242,-2707,-6398,-5298,-702,-606,-1043
1243,-3636,-7570,7822,331,-694,-175
1244,6001,3088,-5408,241,-1749,-641
1245,6147,6659,-1786,-1121,-1131,1021
1246,-5248,-3493,2284,-430,-1765,-3
1247,7502,2163,2728,-1872,-664,1234
1248,-3684,-7090,7773,-1642,1359,-1316
1249,-7925,5713,-3017,-201,427,-1103
1250,5929,3485,-2250,-1533,-1573,-116
1251,-6657,6653,4108,-725,-1121,1647
1252,7123,4117,3524,539,881,-1485
1253,-2475,4486,481,267,-420,-539
1254,-6280,-4144,7018,186,178,50
1255,6549,-1772,-222,1316,-432,-384
1256,-297,-7736,5747,36,-1244,-939
1257,2991,-4438,-4941,388,1130,-435
1258,-5374,1339,-7113,1763,710,-222
1259,7816,-863,3825,516,683,16
1260,-7519,-4680,-3841,1427,-786,1816
1261,-898,325,3487,-1387,1190,-559
1262,-7983,5577,-1091,1282,1637,1244
1263,3794,-4407,5547,-404,976,416
1264,6918,3822,6922,-1605,-906,-1739
1265,-7161,-6897,4640,-271,-198,1753
1266,-5481,-7119,2635,-705,-1078,1323
1267,1854,4595,-5802,-293,-744,1009
1268,-6376,5627,6445,-1412,108,-385
1269,7089,4094,-1036,-1277,120,-230
1270,936,-3267,5817,-1381,-1276,1613
1271,-5361,-7005,-5827,-1909,19,-1375
1272,-4426,-4353,7351,-1812,619,-1952
1273,-6881,-6938,4441,-1122,917,1776
1274,606,581,5393,-148,1171,-702
1275,-7892,1871,2251,199,23,1428
1276,-3202,1171,-7444,-535,235,134
1277,5890,4898,-4421,1681,-1874,-1638
1278,-3136,-5791,-471,1973,-1162,425
1279,2831,1798,-6531,1811,1763,-934
1280,-1204,-1507,6599,1821,1026,-1203
1281,3626,-7257,3000,855,-1592,-1802
1282,4092,-703,696,1244,1036,-1156
1283,-2277,2894,2785,-439,1799,-1170
1284,-7855,6974,-4401,-25,-1688,-1588
1285,-5947,1103,4836,-1579,1700,1854
1286,-5214,-5910,-568,70,-337,-461
1287,-7705,-30,1607,1816,-948,825
1288,-2325,6079,-304,-1733,-1953,-1463
1289,-7556,4275,7841,242,-1203,-451
1290,-2725,-3392,-2634,-1602,1843,1277
1291,-4782,1392,2669,-302,1199,1789
1292,-1325,-5020,430,-296,269,-1795
1293,-1929,-1974,6863,305,-897,-190
1294,4787,-5598,1625,118,825,-925
1295,-7760,-6007,-6743,924,-14,-1002
1296,-1226,-6593,3336,-1645,-1337,-361
1297,5803,5996,-2796,107,-145,-451
1298,6783,5177,3670,1321,-78,-649
1299,-1639,2333,-6226,442,-1190,-1702
1300,-1612,2525,5211,1629,1309,512
1301,-434,5018,-5083,-1904,-1213,406
1302,6700,-7287,1072,-1460,936,-687
1303,211,4455,2881,-1292,1879,1144
1304,2184,-2082,7892,-968,-1553,-330
1305,-2349,-1104,-5043,-1082,-1958,-558
1306,-6982,-6126,-7676,104,623,906
1307,-4321,7279,5202,-1012,-1828,-508
1308,4571,5245,7356,-1934,146,-1499
1309,-5421,5454,-3875,1413,-1294,878
1310,-7637,-5311,7360,1108,831,-1974
1311,2010,-7392,-706,1365,299,-196
1312,-4207,-7243,1563,-1755,-1791,-771
1313,-3355,-2482,-3011,-1922,-1313,1876
1314,-4666,-4922,-3340,-881,-1088,579
1315,-3735,3865,-7177,-337,590,424
1316,5844,7661,5876,1823,-826,1513
1317,7780,-2698,6459,-640,-600,809
1318,-7001,6287,6589,-992,802,67
1319,-3169,2710,7168,311,-1760,1785
1320,-3760,3513,-7383,-1780,-172,-1596
1321,7957,7683,-7849,-719,-765,-89
1322,5687,-4244,4540,1653,813,1098
1323,5801,-4974,345,1734,88,-462
1324,6531,4847,6494,-486,-413,-278
1325,1213,4770,4183,-1377,-1623,451
1326,-4174,-43,-2396,-1551,-1960,831
1327,-2498,4547,1093,-1620,-1789,-1792
1328,-5294,-3028,-6148,-1912,-1934,-1302
1329,-2250,-3251,-5833,-909,166,1197
1330,-7264,1807,4309,1358,-1473,-1466
1331,-5816,-1107,-850,-393,707,912
1332,5770,-2605,7139,-1645,-1918,-1341
1333,3740,543,-3349,-1493,-845,1233
1334,-6502,7767,-2652,1602,-499,-54
1335,5535,4463,5769,1836,-1464,-1853
1336,1029,329,4866,-784,166,408
1337,1572,7336,-2436,-1675,1038,-1469
1338,7479,2533,840,-1511,62,740
1339,7058,-1284,-6040,1854,-417,875
1340,3195,3994,-3112,-85,-1321,1185
1341,381,-4492,-3049,1182,-1297,-1566
1342,-4009,-5036,427,-1283,-1958,-1126
1343,5301,3655,-5113,-1219,-488,1168
1344,1057,2450,-1514,-849,-1973,402
1345,-1630,7590,904,1500,1394,685
1346,-6326,-180,-1020,176,130,-137
1347,43,-2293,-5210,1654,1718,-1023
1348,5907,2142,3398,-740,1215,500
1349,-4221,7987,-5565,1406,247,877
1350,7797,2402,-1752,568,1625,-1842
1351,-1716,2087,4212,1630,212,806
1352,-5128,-517,3386,492,-491,435
1353,2947,1177,-5839,793,339,-1538
1354,-1720,5247,4824,-950,1771,-965
1355,5330,-5398,5116,-531,1025,709
1356,2689,6737,-5122,851,-1459,1567
1357,3535,-4931,-354,1215,-881,-486
1358,-4873,7519,-20,1809,487,1866
1359,-747,7330,4361,345,-1750,549
1360,6045,18,-6972,1504,-1388,-483
1361,6764,6370,4048,956,-419,1164
1362,944,-1428,5737,1565,1356,-1397
1363,-3051,-2990,-1102,-1664,1807,64
1364,2613,7813,-2495,-104,1473,1390
1365,-287,-7992,3657,1877,-785,582
1366,-6377,1015,2370,1075,1708,-1519
1367,-4769,7174,7320,482,1097,185
1368,1793,2765,-7444,-1067,942,242
1369,3211,-7165,4441,360,608,-965
1370,572,5006,6271,1466,1677,971
1371,7103,2691,2988,1489,-693,-40
1372,-6788,-6812,1507,-940,561,116
1373,-5580,3252,-1829,1627,991,-658
1374,-2967,6073,2020,-1003,1320,1850
1375,-2737,666,3325,109,-1510,738
1376,3436,-5102,-4800,1616,920,-1689
1377,-4180,3233,731,-776,-1679,-997
1378,1646,-5010,276,399,470,-433
1379,-3438,-3474,-6390,756,393,-689
1380,2817,-7197,-6418,356,105,-39
1381,-5473,1779,-5818,-906,1588,-107
1382,6505,-2179,-3364,284,1317,-1555
1383,-1550,-4369,-47,-1607,964,402
1384,-1447,2670,6789,740,1515,335
1385,-663,-7104,-2497,-1041,-676,652
1386,5105,-3283,2444,1196,341,79
1387,-5877,-3626,6934,-876,457,1479
1388,174,-4518,-6752,-922,-1417,1386
1389,-7039,680,932,334,-1045,-1708
1390,3192,-3852,3802,1435,910,1735
1391,-7625,-6750,-3218,-30,-92,482
1392,6738,-3294,2146,108,1566,-1526
1393,3864,-1493,2775,-716,-1704,519
1394,1989,7707,-3108,-1986,-364,1928
1395,-943,1180,-259,1909,1207,-1723
1396,-1082,2125,-4498,-676,150,161
1397,-1603,-3693,-7192,1634,-1295,1228
1398,-486,4258,4433,-1081,1025,1798
1399,-940,2751,-4323,656,-64,-1559
1400,4215,3748,6348,-901,-1255,-343
1401,6920,5855,-3891,-1844,-927,550
1402,-6187,4222,-2226,498,-1505,-940
1403,5370,-1252,7434,275,-1700,-721
1404,1801,4140,-3248,174,521,-1950
1405,4432,-140,-5387,-249,-1472,-688
1406,2632,-6030,5044,336,1098,815
1407,-1170,-1589,6071,565,-505,-1563
1408,4559,5933,1992,877,-1760,803
1409,-1335,-7472,647,-107,-1133,308
1410,-4870,4564,7690,819,-1629,-1874
1411,-7187,6751,-7280,1077,-1791,822
1412,1636,-7799,-4437,1056,-1937,423
1413,-4006,-3872,6773,1097,72,-631
1414,6786,3934,-5435,-159,-1485,-818
1415,3737,-5224,527,-395,1048,420
1416,-7537,-4729,3946,-17,-1462,-1542
1417,3351,2196,3288,299,-1413,-1831
1418,-5295,369,5863,1867,-972,1812
1419,-1470,-1958,-842,-896,288,731
1420,-5100,217,-6579,839,-1882,-1732
1421,-7190,5090,1358,-1302,1526,1278
1422,2302,4018,-4246,-508,444,-791
1423,5779,-6036,-2439,814,1391,-606
1424,1317,6856,-111,1265,-417,-636
1425,-2883,661,-7096,-1283,-1588,1478
1426,567,1692,2379,125,1429,-1288
1427,-3237,-50,908,708,-1829,1439
1428,-4943,-1196,1390,1969,1827,269
1429,-231,3777,2655,1657,-713,1183
1430,-4771,-4091,5290,52,1455,-612
1431,-360,5638,3004,-564,-601,379
1432,1045,31,5411,197,1100,1599
1433,-2658,5531,-3720,1766,11,754
1434,7149,1439,-3208,547,-1421,151
1435,-6044,-2849,-2349,873,1168,-2000
1436,-3450,5055,4470,-597,971,-1923
1437,-2841,-4236,-7581,11,419,-1879
1438,4578,1124,-6254,255,1129,1918
1439,2223,2390,-995,555,-495,-1159
1440,-4381,-3771,-751,1566,-10,1013
1441,1912,-2551,-5478,-303,917,1771
1442,1498,-4955,-5010,-1754,1524,-157
1443,3631,352,637,1905,-810,-816
1444,1840,-4712,-395,-1714,-1126,-1516
1445,7246,189,7625,1445,-1502,695
1446,-6377,-5854,-7019,1183,1414,513
1447,6131,7131,654,-715,1358,642
1448,-3078,5038,-4558,-1443,-385,-1679
1449,-2922,-2052,1145,-419,642,-158
1450,-7428,3822,6761,1940,675,-1937
1451,-7278,1058,-2431,180,-716,-555
1452,1057,-6087,6386,-617,-1870,1330
1453,-4519,591,-7623,-91,-937,-1282
1454,-7939,4049,189,-1781,772,-1295
1455,-394,-809,2098,-818,-1424,-1973
1456,182,-3375,-4377,271,1420,-684
1457,7668,2945,-2901,44,1419,-798
1458,7817,6956,7614,-1018,-1049,-211
1459,-5790,2154,-1005,-71,-1211,-850
1460,5664,-3545,-5709,-1067,-1978,-232
1461,-902,-285,-2701,-892,-177,-674
1462,-293,3295,2340,1892,-616,-332
1463,6571,-886,4718,-619,-1525,-626
1464,1216,1698,7007,1275,1733,1417
1465,-767,-520,1675,-314,-1828,1083
1466,-4171,3898,7298,1994,1389,-1868
1467,-6169,-199,-5751,-375,1468,-1414
1468,6898,-6166,-423,402,-1870,-1056
1469,7604,6329,-656,-1774,-226,-362
1470,6995,-3209,6718,-1743,1317,1244
1471,-3155,-4109,-6949,407,196,-1408
1472,-7111,4379,7469,1226,1694,-1723
1473,1195,5112,3145,1190,-1795,1219
1474,-1806,6614,-5776,-594,-1670,-1377
1475,5102,6349,7012,-507,-1666,-1942
1476,6829,-3078,-468,1006,1672,652
1477,-2322,-6601,3037,727,-130,1982
1478,-7477,-1175,-407,-1910,225,-887
1479,-1597,7539,-6515,1516,-143,732
1480,-7425,7954,-6923,-1395,-648,-630
1481,-1349,-3984,-7569,924,1667,-1518
1482,-6510,-1448,-7706,-472,-361,1889
1483,-5776,5376,7623,-1661,-288,-1916
1484,4549,4608,-4536,1414,-642,-1955
1485,-6770,3920,-927,-1445,1471,1705
1486,2106,1959,-59,-1854,-287,893
1487,657,4616,-2666,-502,-1782,431
1488,10,-4567,-2048,642,-599,-1678
1489,6228,5859,-3767,1884,1477,551
1490,-2995,-2730,-4544,94,171,272
1491,-7649,-438,3239,1849,-581,1143
1492,-5518,2401,-2674,-127,325,120
1493,550,-3351,3724,1169,45,-1936
1494,-58,4759,-2940,1532,858,-594
1495,1465,-896,-2900,836,1654,-823
1496,5048,-7196,-7423,1425,398,1144
1497,-7652,-1522,-800,-118,-763,430
1498,-6062,-2664,191,-1699,1461,1135
1499,4832,6161,1183,1000,-1286,-571
1500,-6300,7930,-329,1583,1745,-622
1501,6250,7845,6168,-1986,-1859,-1415
1502,-35,2498,-4570,-246,1575,-233
1503,-5575,2824,3691,-1183,-1940,1160
1504,4682,1436,5967,200,-1167,1076
1505,-6067,-708,3573,132,-784,1776
1506,-3052,7178,3540,-1336,740,1701
1507,1319,-7317,671,-1653,-1341,840
1508,-5365,111,-5482,-1729,859,-431
1509,4180,7174,7075,-1875,507,-1637
1510,3486,2680,-1489,1236,-1782,1601
1511,-4411,186,1569,-1533,96,96
1512,5419,-5904,6042,-1213,1926,1809
1513,985,-7490,5043,-1189,578,313
1514,7643,-2799,1537,763,-1817,-890
1515,3462,-2019,-2778,561,-522,-1099
1516,-2524,5388,2781,-1203,237,-89
1517,-7326,-4202,1772,-2000,1766,-1679
1518,1545,1489,6048,1503,-1729,-334
1519,5501,5340,-2816,-828,-1462,-512
1520,-1470,160,-2364,381,1276,50
1521,-7788,-4970,-4498,908,-402,1709
1522,5708,1965,-831,1163,669,1571
1523,-4000,-5351,-3058,412,-72,412
1524,-7544,-543,-7358,441,871,-1049
1525,-5579,-4965,-5907,1179,-1332,1462
1526,3943,-490,6377,600,1405,-552
1527,2235,2166,2732,-1687,562,671
1528,313,-368,-3711,-703,582,1019
1529,902,6495,-5040,1939,-802,1923
1530,1904,3538,-4489,697,-855,475
1531,-6081,3104,5187,1771,-916,-1082
1532,-1898,-5795,310,752,1417,-1584
1533,7075,-7555,1324,1415,-74,1914
1534,2446,-5109,-6636,-290,-1447,-1294
1535,7794,-6175,-4215,1832,-219,1149
1536,6406,1377,-343,879,-437,-41
1537,7353,4697,-7819,-1002,144,745
1538,-5469,7498,-2062,902,-1964,-1506
1539,4639,3597,3917,554,-46,943
1540,4032,3042,-4860,819,-566,1056
1541,1644,-270,310,-1382,331,3
1542,1472,-623,-4250,1235,1176,1278
1543,-5420,3782,-4645,82,141,1097
1544,6022,-531,-6359,390,1505,-38
1545,4239,-4094,-3607,565,769,-129
1546,4867,3431,2211,47,-1374,-1537
1547,-1075,-4136,2454,441,-1623,1589
1548,3977,6338,-2874,258,1462,-905
1549,3072,7443,5810,-478,-852,1121
1550,1591,5886,-7572,1921,-1321,1161
1551,5810,-5640,-6513,810,-1449,-511
1552,-7490,-5239,6295,-1021,-1987,240
1553,-1289,-1832,5401,-1776,374,1081
1554,-7294,6227,6581,-81,94,1302
1555,5168,36,2159,975,-1918,864
1556,-3530,-4571,-4074,-289,-1273,-1032
1557,1207,2754,4340,-1560,-1176,-678
1558,-3188,-7702,-5664,985,-914,-558
1559,6434,-1620,167,132,388,1345
1560,-925,946,-3910,-7,-1113,949
1561,-7679,-2649,5684,1100,1659,-1569
1562,1547,4656,7053,-760,1778,-471
1563,3273,683,3518,726,-546,-819
1564,225,-1174,-2931,-1192,975,1901
1565,7837,4681,-5675,349,1661,-505
1566,2317,5367,7036,399,1936,312
1567,-3630,-7517,3060,-500,-260,1303
1568,7009,1857,-5500,1808,1089,-1452
1569,-6332,-1768,7121,-1116,-462,669
1570,-2538,-688,-5514,1490,1841,363
1571,-5593,-6164,-6792,-110,-921,-358
1572,5241,-7109,2788,-1085,928,1639
1573,1365,2540,-6105,-1769,1711,229
1574,7142,-7192,5443,-167,1670,804
1575,2157,-4091,4818,255,-836,731
1576,-1661,-7018,3921,1510,321,-1149
1577,-7125,-37,6246,48,897,-1364
1578,7403,-4931,4164,-1523,1844,917
1579,6586,-2831,4800,-1498,-1526,-113
1580,-4378,-2053,2972,-926,-1451,-421
1581,7445,1757,-7920,-901,411,1256
1582,7245,3846,758,1688,779,790
1583,163,-5338,-5637,-1490,-764,-657
1584,3905,3723,-6330,-1447,-605,-617
1585,-4655,5150,7885,-1983,1577,-799
1586,-7804,3351,6047,1936,-253,-1701
1587,-5506,-1653,-2265,-217,1431,996
1588,-6260,-1247,3720,-567,1604,1862
1589,7504,4662,-127,886,-614,254
1590,5519,7330,-5683,-1494,1832,1744
1591,2058,-979,-2512,1066,-530,-229
1592,-7211,3861,-5838,1116,1535,1677
1593,7927,2516,-7539,538,-1473,666
1594,-1536,-7623,6713,1777,329,1967
1595,6188,-3549,-3185,1752,18,391
1596,4841,-1839,4632,-478,-1413,-183
1597,-1755,-2619,4820,1370,1257,1469
1598,5578,7403,-5337,-1870,1826,1171
1599,-6553,7155,4786,1953,-649,-1448
1600,6969,7148,7144,739,277,-1347
1601,-5443,4467,3196,-1057,-999,-554
1602,3201,3440,-6294,545,1217,-152
1603,-4629,-2054,-1473,-1687,1916,1443
1604,-4124,-6367,7920,1470,1404,1316
1605,66,5690,2855,-1752,725,1414
1606,1061,-4472,1154,-1624,733,93
1607,1559,5385,4496,1829,-1151,-403
1608,-944,-4734,3970,-277,-388,-2000
1609,-5617,3213,-5803,-131,1970,-1419
1610,4425,-1175,-1546,-1515,1864,1591
1611,-1518,-1298,5427,-1657,-1810,-1894
1612,-285,-3224,2520,1040,-1886,-1261
1613,-7986,-4252,-997,-1751,-1841,-584
1614,7265,-3597,-1729,-820,511,1043
1615,6385,5592,-1537,-800,-936,-1965
1616,6765,703,-3449,927,-1632,-48
1617,-1714,-6365,-5741,-657,1851,-1308
1618,-1034,-2335,-5239,-138,1869,-1964
1619,3188,7293,4006,1206,1895,-911
1620,4923,-5589,199,78,-768,-670
1621,3942,-2479,4849,1774,1180,-1904
1622,4579,-3423,7657,53,-541,-165
1623,4833,1420,-446,-1442,1093,752
1624,-4027,6099,-3520,64,1539,-1177
1625,6949,3977,3038,1348,-1531,-1047
1626,-7036,1856,-1196,666,636,-1271
1627,-6809,2704,-843,-1624,532,-327
1628,241,-480,1156,-1092,1630,-1939
1629,2422,-2333,-6836,1827,1152,27
1630,-7578,6562,6833,1493,305,-596
1631,-7144,-2294,5908,-1962,915,-583
1632,7282,5134,5285,-245,-497,1599
1633,-4221,-3966,-2546,-1060,1462,553
1634,5545,3609,781,-871,926,-107
1635,-3317,1639,-2266,325,-134,1352
1636,3282,1359,-4928,-1515,-1332,-1618
1637,-1770,-806,5283,-583,474,144
1638,6657,-54,-4172,1895,1980,-145
1639,153,-2449,-2562,1265,-1537,1974
1640,-11,-1179,3727,1592,1397,452
1641,3099,-2682,-5081,-1310,-1860,-1493
1642,2426,-2818,6809,51,-1268,1719
1643,3303,3445,3232,1736,-805,-1126
1644,-5232,4145,-6313,1172,-1819,485
1645,-2988,7618,-4784,1633,1697,-1024
1646,4783,-258,2553,-533,-1404,1712
1647,-4340,-2498,1235,-391,1693,543
1648,-2577,7321,-352,-765,297,1454
1649,829,-1903,5283,-924,1646,904
1650,900,-5222,-1217,1562,-464,69
1651,-2681,4907,393,433,605,215
1652,-6496,1451,3982,713,426,-1624
1653,-2309,4204,5825,1982,1176,877
1654,5479,-1456,4362,1135,84,474
1655,-6512,-4645,2217,508,-1433,250
1656,-1003,7518,-1770,-702,-858,-1210
1657,1370,-5093,-3592,1068,1722,1101
1658,-6844,-6330,6014,882,2,-124
1659,-5918,1884,-2982,1485,1035,1009
1660,6785,3635,-3915,-1292,-1235,-943
1661,2574,1609,2849,-1476,-415,814
1662,1406,6895,-989,1284,176,1697
1663,-5630,6243,6783,-480,-1348,58
1664,5441,4610,-3950,-1537,116,535
1665,-1438,1456,6482,997,1351,1511
1666,7827,5495,-5321,1088,-446,-410
1667,-4126,7566,3642,1761,-806,1760
1668,3138,-4904,6527,1870,-1180,1332
1669,2024,979,-4677,1001,1561,-1713
1670,5848,-688,3183,1959,1523,-574
1671,3599,670,-7068,-737,1323,-1314
1672,-4909,-5275,-6993,-1947,563,1971
1673,2551,-4748,-7303,574,-241,1792
1674,-6376,267,678,-284,-601,-1651
1675,-3443,-7735,1883,-1553,309,-936
1676,7892,-533,-5731,-940,1051,-1407
1677,4543,-1698,-4048,191,-1755,632
1678,4689,-4524,-5808,-1203,-489,402
1679,2972,7991,-4301,530,-45,-1440
1680,-4403,4296,495,1201,333,458
1681,-6548,-4220,1801,916,-1876,-281
1682,2229,5018,-2617,-999,-209,-1127
1683,-7960,-5651,2536,-1899,-1114,284
1684,2965,6928,6383,275,-369,-204
1685,2882,3916,-3509,214,-1841,747
1686,-2463,-4061,4205,1290,1452,-1844
1687,-2621,-6893,-3068,1586,-1776,9
1688,-5159,6771,-5846,377,1333,-1514
1689,-6025,-75,-423,193,265,1241
1690,-1301,7505,564,-716,1193,878
1691,7905,-2579,-5920,1853,700,-1880
1692,-541,-1729,-4863,567,845,490
1693,-2233,-3600,-1497,7,1548,-1209
1694,-247,4806,3761,316,-1920,1829
1695,5672,-5481,-5419,704,1746,807
1696,6391,7715,167,875,1972,-1080
1697,6571,4727,-2590,-1134,355,-715
1698,7697,1767,3440,1060,961,-1119
1699,4247,-7734,3360,-366,-1687,-798
1700,6613,1893,7793,160,1145,-720
1701,6993,-6930,1240,1163,-1714,-293
1702,4811,61,3599,-973,1100,131
1703,2463,2142,-6644,1360,-488,1261
1704,-4766,-6892,3084,-231,-108,-991
1705,373,3394,595,-953,-752,-200
1706,7027,-241,6027,618,1197,-1783
1707,7867,-6969,4147,954,1159,372
1708,7858,-1049,7870,1414,-1313,471
1709,6312,4077,-5985,1023,-1533,-147
1710,-4820,-7450,-3574,372,-296,350
1711,-4257,-6641,-821,-1199,334,-1070
1712,5029,-3968,-7061,1783,-1826,953
1713,-4122,-2558,7829,1814,-1433,-390
1714,5849,-7914,-7150,1956,-1167,-71
1715,6902,-4909,-6048,1634,345,565
1716,-4459,-6847,-3674,1491,406,470
1717,-3831,1819,-6067,-1241,-1335,1973
1718,7007,-986,6972,601,-799,541
1719,1794,1911,7527,1867,-1385,-893
1720,1335,-4066,-1670,1136,1596,-863
1721,-2055,-416,-436,-300,793,-13
1722,7220,-6112,7138,792,1873,304
1723,-2464,3349,4333,-1280,1823,1807
1724,-4965,-4371,-3151,1634,1456,-1051
1725,551,2814,457,486,-1434,-449
1726,1309,-5061,419,267,246,1097
1727,7678,-4478,-1309,-1479,1834,-971
1728,-250,-7399,2051,-995,-1574,-1115
1729,3077,6385,34,-1091,1513,329
1730,-6838,-1368,2508,-359,-297,-1576
1731,-6940,-1583,-4007,-758,1104,489
1732,7578,-2377,3945,-751,-1283,-431
1733,5517,-3083,-6336,478,1485,-920
1734,400,-1044,6841,1879,-233,943
1735,4843,6112,-5999,732,-242,1978
1736,-1282,3746,7221,1038,397,-757
1737,2121,-3557,7054,-1587,-1226,531
1738,-6672,-6508,-6262,-198,1634,1877
1739,7144,2808,-3015,-1581,-1291,-1262
1740,647,-5067,722,1065,679,1369
1741,-127,-209,2008,691,1781,-165
1742,2236,2272,-6629,1271,-1097,1591
1743,7178,-6872,3196,899,999,-1048
1744,7177,-2638,2245,1296,-1065,-1689
1745,6720,-4725,-7697,-1781,778,282
1746,-4705,-4636,-1846,325,675,518
1747,-6083,-1619,2470,1561,372,1739
1748,3881,5307,-5301,-65,290,-555
1749,-2047,-729,-2283,-644,-810,-783
1750,303,-4351,3139,-1090,375,-973
1751,-6329,914,1251,-83,-1515,1068
1752,-7106,-3443,-1695,-1577,-1097,187
1753,-7623,3295,6900,1286,-1995,323
1754,3273,7897,7340,-1995,1151,-1587
1755,4999,-5539,1115,898,-180,-1092
1756,-7929,84,5408,-72,55,-896
1757,-783,-6341,3120,1460,-1614,485
1758,-3226,1266,-2280,-731,1359,-1290
1759,-7421,-2873,-6683,29,1445,-1099
1760,5172,-4235,-995,268,803,753
1761,-3678,6276,404,-85,1429,1815
1762,-3013,7266,-1,829,-883,-1811
1763,-6653,5097,265,1279,1978,431
1764,-7885,1627,-2802,1489,705,-1447
1765,1003,-4166,6182,1231,1091,705
1766,-4263,5793,5614,1696,1872,1640
1767,-1393,1801,7315,-1588,1785,1692
1768,1006,-6834,-5157,681,537,91
1769,-95,-1813,7488,-557,-665,623
1770,-296,2219,1214,1513,-763,-579
1771,-3464,-4934,-976,-617,-113,-1936
1772,-669,6680,3088,1693,495,337
1773,6135,-7617,1444,1982,-150,893
1774,3491,-7897,1634,-195,-1892,548
1775,-11,-3118,230,1949,276,-286
1776,-4161,7300,-2478,15,-1595,262
1777,118,-4696,-7914,990,-308,157
1778,-2801,-7354,4648,-527,-1778,734
1779,2918,-4031,-847,-971,-769,-219
1780,-812,698,5884,-274,-558,-1255
1781,-4224,3375,2390,204,80,-1115
1782,-1593,6280,-1574,-899,566,-1780
1783,3765,3809,3785,-10,-1074,-128
1784,860,1671,-109,88,718,1999
1785,3964,-1318,1173,1610,-1853,-277
1786,4724,4983,-3385,1251,992,1089
1787,-6387,-159,-7575,-1457,112,-915
1788,6714,7080,-7469,-138,-1620,-400
1789,5004,7673,-6066,-1216,1534,-1789
1790,-2320,1149,-125,434,1029,1828
1791,1756,2228,4563,-1532,-545,1614
1792,-7438,-5477,-3479,-131,1946,1505
1793,2290,-598,6360,-1246,-717,129
1794,4720,1166,-1810,1469,-659,-201
1795,-4893,2530,-343,-1333,-965,-895
1796,-1345,6439,6515,852,-1518,133
1797,6914,-6022,-4438,-1226,-829,-1276
1798,3039,7770,277,-1296,558,318
1799,3936,-287,4420,-965,833,-474
1800,-3243,7346,-3003,1684,-1411,-1748
1801,-4148,-6535,3813,1440,1751,993
1802,5139,-7865,-7330,-1391,784,515
1803,-258,-6656,5914,863,1000,-1849
1804,-5724,463,-6375,-1692,-179,1413
1805,-1605,-2674,3646,371,1409,657
1806,3491,3987,-4977,1254,157,949
1807,-7620,-4506,-1270,1244,186,1259
1808,4281,-1493,-7502,-1983,793,-892
1809,-2998,-2733,2619,-1212,1756,-1620
1810,-649,-521,-1040,1603,1549,1071
1811,3953,4482,-6843,-154,-1881,-372
1812,-3758,-207,-6936,1329,630,-934
1813,2130,3003,-6965,1772,-360,-1271
1814,-2545,-7735,-2315,1714,1304,860
1815,-1885,386,-5562,-965,-867,-428
1816,2436,1027,-2198,713,230,-1824
1817,2887,-3998,-3744,-793,357,604
1818,6740,-4381,-1541,1616,1897,-1297
1819,-7424,-691,-3033,-355,1503,61
1820,-4169,-4261,-6316,674,1110,1092
1821,-3528,-1161,864,-1653,445,-1204
1822,-1696,5401,7089,-870,-1789,-1840
1823,1917,-7873,712,470,1093,1342
1824,-3898,-7584,4567,1600,1801,-240
1825,-7545,6168,2942,-1723,-1651,479
1826,7369,782,2722,-371,1163,1479
1827,-5586,3249,-850,308,-1909,-1127
1828,-7910,4200,-2407,1804,1261,1513
1829,-3570,-324,6890,362,862,1451
1830,-5492,1230,-2904,1981,-1446,882
1831,6957,2155,-3258,1314,-323,400
1832,-7498,-5323,4584,-719,-1102,1673
1833,-6098,-2779,-7720,1925,-1840,1230
1834,2584,-6795,3509,1879,-675,72
1835,6743,196,-7450,-1894,1611,-1426
1836,3004,3398,6555,533,1400,1879
1837,874,309,-1978,-1869,-834,1835
1838,3004,-2262,1060,-1936,579,1584
1839,983,6470,-2891,1643,30,-107
1840,4207,-6886,-5382,-1874,1507,-783
1841,-2239,1183,-1830,1913,1647,342
1842,-7100,2290,7246,-1241,-1512,1139
1843,-2404,1329,4092,-11,-952,-1098
1844,-6383,7652,3601,-1278,125,33
1845,-7066,605,-3351,1796,-655,1863
1846,-353,-2648,3954,-1602,534,1784
1847,889,-4895,-159,535,593,-1334
1848,-4165,4118,5711,-846,1608,401
1849,3932,-7808,-2289,-1306,1630,-270
1850,-6746,4634,-3620,1374,422,119
1851,-6105,-3736,7718,99,-868,-401
1852,230,5612,-6030,756,370,382
1853,-1216,-5859,3897,715,-562,-859
1854,-1461,1579,-5992,-1575,-430,-890
1855,3717,-2990,-7835,-1717,1032,339
1856,-7444,4385,2845,289,1991,-823
1857,-2969,464,1554,-1294,-1294,426
1858,-7011,1098,-1410,-370,-514,1102
1859,-5799,6970,-2999,-1596,-1161,1766
1860,-6024,-2270,-700,-557,1820,-1749
1861,1076,-2881,-4215,1391,1591,-1805
1862,-1977,5310,-3189,-1624,639,1282
1863,2106,-6710,1907,-1877,202,-39
1864,6174,-3891,-5466,1930,788,1602
1865,2711,-7951,2723,-1712,-1350,-475
1866,-5205,-5937,-2525,972,1496,-356
1867,669,2990,-4452,1507,596,872
1868,314,7163,-5827,110,-1118,895
1869,326,-5827,785,-1064,-404,1449
1870,-3474,6178,-275,-933,1375,834
1871,-2913,-4800,-4375,1426,1524,-1182
1872,-4327,6237,-7524,-401,-630,-1081
1873,-5769,-5098,-6053,-443,-330,-916
1874,-2700,-2962,5429,700,57,1816
1875,-4417,7873,985,-166,-1865,-1646
1876,-423,-5750,6366,-462,1727,-254
1877,7366,-6741,6592,-574,-1444,-1004
1878,-7159,4351,-4267,1938,1199,1049
1879,-6795,-4317,239,-201,-1939,-425
1880,2251,-4044,3258,-591,770,660
1881,7287,-4696,-7097,434,561,1471
1882,5921,-2258,3311,746,-322,-1649
1883,5751,3148,-1455,-1139,351,-661
1884,-1422,5270,-7544,-1778,481,-792
1885,-6155,-6730,3500,-424,936,-1443
1886,4615,-2246,-1518,-562,961,-1616
1887,-595,-4027,-1024,833,1168,-492
1888,-209,-6406,7474,355,1163,1814
1889,2102,6701,-2371,888,1431,1334
1890,-3059,-1984,-7274,1469,1978,-464
1891,-3199,6315,-201,-1983,-16,1353
1892,1875,-812,7989,808,-852,1393
1893,-4251,4938,6741,1428,83,1366
1894,-5962,-2034,3658,-1031,-1061,-889
1895,6990,2966,-3620,-843,189,1003
1896,-4455,5114,1281,1757,963,1648
1897,-5114,-4385,-3224,-1031,569,-956
1898,1127,4063,-2108,1541,-715,-417
1899,-5213,2130,-7740,1663,701,-683
1900,-7830,-3233,-6302,-1807,-1494,-62
1901,6651,4027,-6377,277,248,-1015
1902,7598,-2623,7117,-1030,1195,-357
1903,3668,-2466,-4063,-1083,-1897,-1889
1904,-7806,125,-3912,690,1027,1686
1905,-7715,8,-5464,46,1024,1791
1906,6171,-4600,5894,-136,1800,1764
1907,-492,-335,1371,-1277,592,-836
1908,6245,-2358,-3983,-541,-883,1313
1909,3801,-7393,-6887,-1065,699,-1503
1910,6047,3317,-6200,1813,-1410,1414
1911,-5956,-2962,1564,963,-1273,-1076
1912,-7037,5976,743,229,-732,-230
1913,-6008,7098,7143,-434,-1264,1080
1914,4960,6886,-6959,-211,581,1740
1915,-6213,7182,6804,-1644,-1650,-377
1916,5479,592,-5107,-909,-94,-1421
1917,5646,497,-783,1963,-962,1662
1918,7320,-3655,5664,1134,-949,-1063
1919,-5763,2596,-1144,-1422,212,-1113
1920,1947,-7018,5094,-473,525,425
1921,1973,-4774,4838,199,1550,847
1922,5271,7211,4675,1573,-1535,-1915
1923,7863,-4036,-1235,-455,306,-1867
1924,4483,2824,-453,-187,1892,-1322
1925,-1361,-789,-855,1337,284,-66
1926,6578,-7294,3639,128,1866,-160
1927,-6518,211,-6292,1033,1807,-584
1928,-1265,-3795,6345,1425,598,15
1929,-6648,5803,-7709,-1103,-737,-1249
1930,804,1684,-7651,1830,707,-121
1931,1561,-1697,882,103,216,-171
1932,495,-803,6862,-2,-31,-1159
1933,-3172,3226,4196,235,-367,1048
1934,6821,5271,3881,-571,-120,1211
1935,1607,7500,6063,409,1041,-432
1936,6999,4463,3668,-1547,-443,941
1937,5780,6442,-7136,-43,1052,461
1938,-5472,5590,285,-92,1606,1104
1939,1493,4127,5871,301,774,1109
1940,-4693,-721,6495,-185,-1465,1749
1941,-1157,-6355,-1789,-479,1878,-728
1942,-5617,-5204,4036,-1865,1661,-690
1943,5277,4597,5153,-1974,-146,-1366
1944,-3791,4165,-1281,1784,1099,1785
1945,-16,-19,-3398,1570,-1123,-1713
1946,4357,-6000,664,816,833,-295
1947,5080,1609,-7116,-1159,-240,1000
1948,-1969,-6441,-5832,1056,202,-834
1949,-6125,7655,3397,507,-224,-928
1950,3263,7978,5108,1487,-1685,-1546
1951,-7860,6620,1801,1653,-157,231
1952,-4890,5692,-2855,-1078,-1920,-1623
1953,-4577,7583,7733,-265,-305,1845
1954,2211,4982,483,-680,-446,-19
1955,-4559,-1757,-3245,-636,-1164,1170
1956,291,-1163,-2947,-1481,155,992
1957,3269,4965,-6262,1550,897,-1131
1958,5430,-3513,4263,1433,-1095,1913
1959,4387,6656,-7046,-225,895,-1325
1960,2023,-2354,-1648,-637,1199,-1132
1961,-1270,6840,7983,-881,-195,-501
1962,4765,-5069,-1197,136,606,-19
1963,-1430,-6909,-6091,850,488,1184
1964,-173,-4262,659,315,1129,-547
1965,-836,-518,7159,-209,-939,-604
1966,-5552,3538,-2186,-1830,1298,1855
1967,-2708,-3310,-2879,-1536,974,1723
1968,-257,-454,7413,-1506,-535,-786
1969,7588,3739,-4023,-213,106,-738
1970,-6883,-1558,1530,-255,1974,533
1971,-6221,-2382,26,1196,-640,-1933
1972,-6443,3829,3360,-1972,-1389,870
1973,-5051,5198,-414,-1805,1073,1470
1974,3365,-5097,4515,1210,-383,-1021
1975,7883,-4093,-6460,-737,1100,1745
1976,6070,-3295,7750,1269,-378,-1452
1977,-2,1367,-4899,-247,-1504,-892
1978,4761,-3011,-2864,1018,-1597,1859
1979,-6583,-6892,-1623,1799,235,-267
1980,-3801,-3071,2815,737,1768,805
1981,-6327,274,-3065,-869,-1537,867
1982,-1896,-5063,7649,1688,-570,-1413
1983,6103,1220,280,1801,1986,1085
1984,-2656,3166,-6255,1289,820,-571
1985,-1960,-7404,-4052,-611,1722,-1785
1986,-6144,6518,1578,931,1874,-1600
1987,-5619,-3142,-4381,1473,-600,343
1988,-5610,3499,-2705,-1288,-5,1352
1989,-4083,4273,3930,-175,349,429
1990,691,-965,-7382,718,1403,-582
1991,4613,-5211,-6901,764,1102,908
1992,3040,-6835,-4956,271,-1196,-945
1993,942,2417,5011,-1224,-865,1298
1994,956,499,-3377,642,384,1401
1995,3715,-1675,156,664,793,582
1996,7236,6851,365,1719,1445,-1127
1997,-7801,-3660,4754,-1879,923,1184
1998,-405,7090,2345,-336,-1179,1394
1999,-4502,-5879,-197,-260,-404,1522
2000,-5036,4383,1823,-1671,731,1509
2001,-5559,-2127,-2641,-1816,657,-1892
2002,-7604,-7468,-7716,343,-1317,1994
2003,-5781,-7981,4978,-1771,1160,-1990
2004,-1426,-6900,-184,1910,-1533,-1974
2005,843,7422,-4833,604,1424,557
2006,-2047,-2965,-578,929,-1267,-17
2007,-6396,-4628,-4234,46,866,370
2008,4482,-6683,-1068,1686,-1527,567
2009,6292,-5304,1320,832,-1930,-1793
2010,-6201,1109,908,1810,238,288
2011,3771,5975,-4106,466,-880,597
2012,6723,-520,-6918,255,1079,-1493
2013,6141,-6176,-3402,1177,-1121,-1009
2014,6218,-1657,7720,1165,352,-554
2015,4295,5539,2723,802,-80,-78
2016,3071,2294,4325,-1634,-1983,88
2017,2738,-7274,-6693,-1016,1740,833
2018,-2026,5386,-6769,237,744,1373
2019,-551,1508,-2574,-642,-546,-114
2020,-1194,-6936,-2654,1405,-1828,1155
2021,5688,5995,873,-643,458,1480
2022,479,6295,-2436,1476,1806,1595
2023,-5083,-605,-2483,1842,323,903
2024,2068,-6187,-5460,-1197,1215,-22
2025,-7753,4789,-1772,-1915,1174,586
2026,-5326,-3574,6422,1769,1029,-432
2027,-7274,1234,347,262,105,-461
2028,-3174,6290,5826,-1845,-422,-1233
2029,4323,-21,2433,928,90,-1680
2030,3615,-6718,-5582,-158,713,686
2031,-1167,2778,-1745,-603,-1516,881
2032,6321,4453,3923,1290,-1176,659
2033,782,-3917,2047,1732,620,549
2034,2343,-3728,216,626,-1475,-98
2035,7773,5020,7512,-1963,1554,580
2036,3534,-4543,6521,-875,18,1707
2037,-2308,499,-2818,211,-1594,1537
2038,-4300,-7714,1628,355,1612,-1396
2039,7829,-1579,6632,175,-1934,1782
2040,-1048,3147,5739,1306,-1635,-433
2041,7197,-3528,-1938,316,932,-454
2042,-5786,-3280,-4855,159,-1900,-687
2043,-5539,-6865,-6610,-699,211,810
2044,-7,6642,6486,1707,-1993,1148
2045,2391,4249,4160,-107,-359,884
2046,-7591,1455,-1974,-1857,-843,-201
2047,-1289,3917,6317,1983,-1895,722
2048,-5854,5147,4853,1636,1082,776
2049,-4288,-3070,174,-604,-30,-44
2050,7026,3784,-157,253,381,1134
2051,5691,-4413,-6726,-96,1015,209
2052,-5628,-2331,-3103,-508,1402,1114
2053,-5330,5971,-2111,1642,-76,-625
2054,-7179,-5902,4890,-1338,509,1964
2055,-840,5516,-5927,207,137,1054
2056,-5311,-6609,7764,613,-714,-1354
2057,-6415,2720,-3504,-620,-577,302
2058,-4988,-3100,6015,-1802,-1699,1372
2059,-6578,-1784,-3386,-1771,-1509,662
2060,-5567,3730,-6368,979,-553,-1772
2061,7313,-626,4931,866,1403,1221
2062,-4402,7142,7604,470,-552,1495
2063,2607,6729,-1526,-395,377,660
2064,-6060,-7739,7533,-908,1203,333
2065,7815,5063,-7041,1857,-531,-1467
2066,-7346,4453,5410,-312,1496,-738
2067,-1692,6706,-4699,-1984,1874,-989
2068,-6909,-5833,-6492,1327,-1232,850
2069,3922,-5366,-6417,567,-1359,63
2070,2257,-781,5006,1527,1063,-1209
2071,-4153,3074,-7887,-835,-1130,271
2072,2955,533,151,1241,934,-1524
2073,5369,-4748,-6322,-929,-1557,-1715
2074,7483,-5941,6472,-1620,-1781,907
2075,-972,-832,-1365,-722,1855,-573
2076,1202,5427,-4225,1682,-1730,-1161
2077,4957,-5054,-3703,-121,-1644,1846
2078,2507,4983,5499,-1564,-1977,-1213
2079,-6790,-7673,6245,485,899,-1799
2080,6243,-1678,-7987,-989,-1776,154
2081,-3559,3945,1450,-848,-1382,836
2082,3551,506,5608,-1844,-1252,-713
2083,-1704,-2797,6671,1839,759,-317
2084,-7254,-3723,3243,-1644,-21,539
2085,-5156,4928,-4660,223,-570,646
2086,-4005,4586,7710,1691,1665,736
2087,-3887,2008,1729,-1954,-829,595
2088,4842,5525,1458,-150,-721,-255
2089,-5239,1439,2145,-1288,-393,399
2090,-775,-4554,4078,269,-628,224
2091,-7575,-6656,2287,-359,975,783
2092,-5889,-3739,5070,687,1343,-1677
2093,-5236,4478,-6531,258,-1909,1445
2094,4243,-1787,-5709,1887,1664,-454
2095,7705,6970,-1395,756,-263,-377
2096,-5656,-7438,-5991,-1508,-1728,593
2097,3462,-7954,-3170,127,266,-1936
2098,-4327,4897,-2213,1294,-594,216
2099,-3057,-905,-3372,654,-1885,-514
2100,1403,-1906,2061,-76,581,-1220
2101,-5155,-5317,7850,1149,-267,-91
2102,-3860,-6562,-6735,1630,-1719,185
2103,-3922,-7644,4411,1101,1435,-1007
2104,-6191,-5083,-2407,-1044,-1209,1024
2105,-5408,-5615,-916,1780,-623,-924
2106,-3264,7047,2121,-255,-720,-1112
2107,-2202,-3230,6328,-1894,-928,652
2108,2262,1168,1255,-193,204,-1358
2109,-3444,5881,-6926,-825,-432,-862
2110,6260,7563,6784,-926,324,-40
2111,7966,1604,5753,24,1766,-1132
2112,7626,7962,-6913,-310,-1643,1839
2113,-4735,313,-3179,-1507,1558,-429
2114,-1579,-5454,4580,-1400,-439,-375
2115,3527,-197,4954,-1198,-1576,1824
2116,-5494,-200,6762,1370,1534,1227
2117,-4037,7405,-4570,963,-1317,952
2118,899,-3485,-5712,-279,1886,-1469
2119,5075,6825,5557,-1498,-1333,1830
2120,-6481,-239,4069,1695,1353,299
2121,3995,-4909,-1522,-676,-1970,-697
2122,3143,-1298,2156,-476,-1551,404
2123,7825,2503,484,-1990,-1007,539
2124,741,-7097,-992,1954,-1808,364
2125,6684,5375,-5259,-1959,-694,286
2126,-7869,3451,4647,-499,1562,-884
2127,-5722,6737,3590,-798,-1605,213
2128,-4820,7977,-144,1801,1986,755
2129,-4108,-5109,-6929,1224,-766,-447
2130,1358,1909,4858,-449,-382,-196
2131,-5620,4511,-5100,-585,-449,1627
2132,-1593,7418,-5812,811,-401,-1875
2133,155,3072,47,-954,-1614,1870
2134,-5688,-1942,-2335,1820,58,-1831
2135,-5346,-7329,4042,1002,-702,-14
2136,6545,-5197,5034,507,-528,-1676
2137,1484,4208,-2028,753,1682,-134
2138,7844,-2976,7774,993,232,1920
2139,3449,-5043,6954,97,-1836,-1955
2140,6894,5577,-606,-1437,-443,-928
2141,-7545,-4809,287,315,327,-1552
2142,-416,-2335,1625,1252,-1518,-298
2143,-4566,3972,341,-1134,-121,582
2144,-7013,5354,6783,-254,-310,-60
2145,-4773,-368,-5022,-891,1297,207
2146,4758,-6467,-800,430,312,1220
2147,-6994,-327,5798,698,-1410,-728
2148,-3345,-3014,6044,-768,-1670,976
2149,936,-759,6705,-1625,1289,-1327
2150,-2165,-1627,2030,-979,-310,-1064
2151,7894,5198,1570,969,-1649,1713
2152,-7413,4945,582,218,390,1380
2153,3855,6149,3643,286,1181,1398
2154,-4730,3912,-7334,-1762,-1145,1341
2155,-6131,-3707,4528,105,-740,-1246
2156,7775,4953,4744,-33,-644,855
2157,3458,4565,986,1605,932,974
2158,5523,-5041,-3903,-790,370,-1391
2159,-1092,-2707,-7516,446,451,-567
2160,1656,-5667,-5195,681,477,-1089
2161,1202,-4442,-1899,1383,490,915
2162,149,-698,-6932,-779,968,1016
2163,5575,-4282,7225,-1195,-96,1926
2164,7838,-5704,-7472,1757,1505,-929
2165,4281,-455,-4301,-1788,1372,-1858
2166,6746,-3099,4887,617,-1848,-1196
2167,7478,-5178,4285,-185,1846,-694
2168,3359,822,-6081,607,-33,682
2169,4534,4370,-6132,-1529,971,1788
2170,-6365,2739,2146,-1579,214,-1108
2171,4284,-6203,7794,-682,-1196,-1268
2172,5122,-2311,3180,-1095,-241,452
2173,2146,-2999,-7939,-5,-1206,-1819
2174,5103,-307,4146,13,1978,-932
2175,377,-7856,-2106,-1435,-1362,218
2176,4720,-4675,1770,-1189,-660,801
2177,-2710,5549,505,-1057,680,-542
2178,1151,-6878,3386,294,-1961,1684
2179,3196,5955,6967,-663,399,1576
2180,5993,-7779,-5921,-1324,676,1513
2181,-383,2044,-6991,1206,575,-1935
2182,1002,-3263,-4945,1483,-514,-685
2183,-6358,3108,7091,595,-1991,1762
2184,6329,7507,7743,1496,-25,82
2185,4084,-2517,6714,-866,-32,-1937
2186,811,-2904,-1520,-1099,1788,534
2187,580,2136,7565,1489,-237,1680
2188,7839,-1213,-121,1387,524,-236
2189,-7757,7220,3040,1306,1152,-667
2190,643,978,898,-982,-1022,1267
2191,3336,6439,7415,1365,-736,-1322
2192,3373,276,-6738,-190,-1204,1774
2193,2202,3733,7238,1192,-982,-1426
2194,1266,166,-4045,501,-488,282
2195,-6974,-7140,581,1176,-912,-898
2196,-3626,4860,-3249,1815,-671,-578
2197,2862,-5012,-1302,-289,927,186
2198,6835,1482,6747,1134,-280,-542
2199,-5789,7614,-5399,-881,-1178,587
2200,-4872,5738,3325,923,1896,440
2201,-541,2363,2381,891,1068,427
2202,-746,-5812,-4216,-195,1275,1807
2203,-6378,2776,4328,1880,1516,1656
2204,-4086,5545,-5113,698,-1477,-536
2205,5045,64,-1713,90,-1885,648
2206,-19,3056,-7353,-331,-887,1770
2207,-6450,7428,5727,578,1479,792
2208,-6569,-4527,122,-319,-672,1472
2209,-888,-6288,7016,320,310,-1068
2210,-980,6283,3565,421,-331,-1292
2211,-5311,7502,2244,86,548,-1187
2212,-3038,7949,-5226,1303,122,-1148
2213,-6581,-1375,-307,156,-1043,-1517
2214,-3558,-2254,-492,780,-1960,-1477
2215,-3543,5807,3019,1337,1846,-823
2216,-4401,-994,3920,-1324,1121,646
2217,-6127,7777,-2197,-1381,369,189
2218,-7146,3981,-5401,647,-733,-883
2219,-2664,-7970,3812,1454,-1003,-368
2220,-5509,-4072,-2424,1481,-194,-349
2221,-2520,-1041,4065,656,325,1825
2222,3238,-6313,7884,-652,-1957,-364
2223,7272,7370,4215,249,1389,-1284
2224,6906,4539,7289,351,-246,-1559
2225,894,4876,-3997,-1234,670,913
2226,1809,-1459,-3872,-1317,758,-1720
2227,-4789,6418,6638,788,-1054,-1466
2228,2355,2736,-4710,-373,-1490,-735
2229,4670,2444,3125,865,-1841,925
2230,-1520,-1167,-5776,1162,-153,-142
2231,862,7069,-7220,-136,1382,-1703
2232,6221,2529,6095,667,-588,-839
2233,-7317,-3423,-4238,136,-846,-305
2234,1870,-6897,2442,-1061,853,-636
2235,-2739,-4476,4541,-726,837,-1809
2236,19,798,-5098,1186,763,-1819
2237,-2179,2512,-6293,1837,-474,-381
2238,6686,7892,4158,648,-945,1864
2239,5997,6755,5578,237,12,-1678
2240,5123,2713,-7697,637,-1424,-1962
2241,5208,5330,2661,-524,-1738,1681
2242,4715,7326,-2786,-1220,1381,874
2243,-4093,-2295,-7421,-1382,-471,-1785
2244,364,-1565,2479,-65,-677,-596
2245,1659,-5496,5370,12,1799,-29
2246,-6629,-637,885,969,123,717
2247,-4801,-4983,-485,-1748,211,1898
2248,-4007,-7114,-3347,56,771,1229
2249,1810,-2263,2292,1311,-1648,-1097
2250,-6103,-5039,1167,524,51,804
2251,3166,-3692,3566,1252,509,-89
2252,-1119,-34,-2159,724,-271,-44
2253,-4998,5298,-4868,-522,-1212,106
2254,-2778,626,-2667,-1928,450,1078
2255,3487,-4415,-6558,-1449,703,-564
2256,-1353,-1698,3920,1694,1214,758
2257,5219,-4920,-6510,-1743,-1908,-1411
2258,-3678,-3298,1668,212,-643,1790
2259,6488,1511,3887,881,-440,-1819
2260,3745,-5061,-4710,530,1075,1415
2261,7770,-5307,1854,734,-687,837
2262,5067,5847,-237,-225,-1327,45
2263,-4837,1,-6063,641,444,1883
2264,-3463,3427,7666,217,-1663,-1313
2265,2829,6198,6311,-198,1098,-467
2266,-5720,-1321,-4462,1750,895,-710
2267,6547,3086,7901,-1861,-1103,972
2268,1108,-2646,4229,-1056,-1249,-1341
2269,-7766,6480,4266,1308,-1490,1336
2270,-19,-1208,1466,-632,-1053,829
2271,-3489,6555,1240,-836,891,-1501
2272,-1433,7830,5485,611,-513,381
2273,-3605,4147,-66,1489,-1540,-1869
2274,176,-6057,-1382,1849,-1970,585
2275,-6513,-5318,-1409,-1868,1272,99
2276,3582,591,2046,1284,-323,711
2277,-4822,7741,-7870,404,1624,-1848
2278,2756,151,-7285,1755,-936,-561
2279,7171,4528,2724,1319,1510,250
2280,2345,-1455,3171,-768,-785,-307
2281,2680,6052,-4133,429,1692,1330
2282,2677,-102,2293,-228,697,1352
2283,7929,-3157,-5180,34,-1210,294
2284,-3012,4989,-5306,1686,-1721,-1914
2285,-3478,4900,-2031,1298,256,-565
2286,-4566,-7786,-4305,1089,-51,-1161
2287,2314,5017,-5330,-1458,-214,251
2288,-7604,-5893,-935,822,-429,-1938
2289,-3814,4781,3635,59,-664,-1565
2290,1092,-2755,6219,-1071,1087,-69
2291,-5144,-3867,4282,1960,507,1738
2292,-2315,-2776,637,686,-846,82
2293,-3612,-2999,422,-1374,119,915
2294,-5481,-7485,5403,1515,1062,962
2295,1376,-269,5169,-1289,419,1354
2296,-619,-1638,-1001,-490,32,476
2297,7528,1093,-6114,324,-350,7
2298,-1495,1028,-6175,-1688,-767,-857
2299,-499,600,3936,-1667,237,-694
2300,-7155,975,-1471,536,1363,-1612
2301,4850,-2843,3128,-1297,1337,-609
2302,-6126,-5830,-1740,1195,-1982,-601
2303,5944,3568,-7337,351,-524,-1652
2304,-5182,4451,271,-1948,-113,-1229
2305,6466,-4404,7743,82,-1097,-848
2306,-5692,-312,-7836,-1398,-64,-1519
2307,702,-2753,1040,164,-964,245
2308,4597,3030,3185,-1871,48,701
2309,-4004,-3868,5607,-560,-489,-1084
2310,6627,-1914,-6869,1023,1438,39
2311,2150,4506,1065,180,-1015,-463
2312,387,3907,-3413,1925,27,439
2313,3944,6087,-3654,-1183,1295,-1335
2314,2067,-2464,-5590,703,1069,-517
2315,-2242,2162,-4571,-1902,1897,-1938
2316,4179,-7573,4967,-593,-1409,1897
2317,6100,-6230,-432,-1584,-1250,262
2318,-473,-1617,-477,-1570,746,-1217
2319,5164,-1769,6248,-452,1454,-26
2320,6414,4415,3492,1637,-1487,-1948
2321,-3070,-2608,845,-1261,-1524,318
2322,-7265,-6036,-6156,1347,1750,880
2323,7672,2882,-7831,564,-1562,-1602
2324,5065,-2333,2916,1274,-1309,1920
2325,1902,-440,-5414,265,1445,1734
2326,3690,-5301,-3344,-1224,844,5
2327,7665,-3523,-2856,-1384,-1407,-406
2328,1294,790,3508,-37,-445,1184
2329,-1273,2147,249,1427,-1980,-1316
2330,7455,-2529,-1899,1630,-1996,887
2331,-6448,7311,2921,-1237,1027,-1222
2332,7058,639,7950,-905,-671,1789
2333,-3236,564,4017,465,-137,1265
2334,-5794,4245,134,367,-1868,-247
2335,-7696,-700,83,-814,-1064,939
2336,-6781,-567,-1994,787,-857,976
2337,3794,4969,-5318,-691,235,1847
2338,1035,-4827,-6088,489,2,-1094
2339,5052,6748,-642,2,-1753,-1365
2340,7734,-1084,4176,-468,-1827,-400
2341,5722,-6513,-5072,1581,1963,393
2342,-1940,-4128,7125,-552,-120,1159
2343,-3584,4707,-7483,66,1931,-1184
2344,6065,7317,2745,-1542,-1013,1533
2345,72,-2693,-1766,201,-413,-1769
2346,-4909,-1909,-3773,111,-249,1972
2347,-4200,1286,7587,840,-267,-1951
2348,-3068,-5305,-5204,1944,-1748,-1051
2349,1054,-921,4826,-725,1635,1622
2350,-1158,456,-7518,362,-883,-1058
2351,3212,-4344,-3845,-1488,-1366,-1862
2352,5378,4398,-7717,-682,-1265,390
2353,-6862,3849,5013,815,1681,-430
2354,-3567,-4038,4757,1838,-1485,736
2355,6424,7280,5268,-1767,-613,-1341
2356,4893,-2306,1004,1675,-1265,-261
2357,-5792,1828,-1008,-1730,-144,-1010
2358,-4185,3342,-1899,-784,34,943
2359,-4515,1153,4304,227,6,263
2360,354,1955,-6297,205,-1845,372
2361,-4576,394,-6701,-182,-1546,595
2362,5829,3196,-4717,1086,-710,-900
2363,6308,4867,-7402,-290,320,-1059
2364,5979,3692,-702,1297,238,-5
2365,874,2022,1315,-1143,-1069,1620
2366,-1209,-7825,538,1272,-914,-1520
2367,-1196,-1612,-532,-948,-555,1666
2368,5497,-3465,-5099,55,963,224
2369,4518,6283,-787,1681,887,473
2370,1350,-233,-7007,-916,1516,-458
2371,-6755,2314,-7594,-1503,-1654,151
2372,-83,6389,-2136,-779,1103,-1780
2373,-7600,3716,-2355,-1281,-620,-1415
2374,-1454,-4641,651,404,242,653
2375,6292,2692,5374,-1600,1894,-1196
2376,-7000,-1986,-905,604,1961,-179
2377,5726,5264,-976,-318,1166,1606
2378,6124,2959,-4260,1029,-985,1188
2379,5522,-4262,-1453,1702,1876,626
2380,-2371,-6497,-6073,622,-1243,-1165
2381,-1059,7366,3453,-448,-1702,-830
2382,-2431,6836,-5867,-806,604,379
2383,-7765,3727,-6518,1850,-1784,1356
2384,-197,1778,1951,1343,-184,-1231
2385,-5381,-3094,-3963,1782,-1436,-412
2386,-850,-5888,-5334,922,-1775,1545
2387,-6255,-3934,4993,1006,-24,-1569
2388,-4262,2388,1482,827,-913,-558
2389,6397,2743,-1489,1791,1851,-1776
2390,-643,4843,1380,-556,454,-1645
2391,5919,6490,829,-1798,-1363,-1840
2392,6670,-6168,1309,226,1986,-1320
2393,2991,7676,-4007,324,-218,-397
2394,6627,6668,-2977,1508,327,-643
2395,-4456,1461,-3345,-1372,182,-1410
2396,-3055,6118,6048,-1072,-1716,-433
2397,-4616,-2929,-2111,623,-87,1031
2398,13,3006,5008,1003,1983,-1870
2399,-4933,36,69,1369,-680,-542
2400,-6395,-974,3688,-467,122,316
2401,2272,-6542,5073,-1524,-1476,-1289
2402,3639,3033,-6712,1642,-328,1558
2403,-6849,-7923,-3072,1376,-583,1285
2404,-5905,3581,-4977,1723,-1988,578
2405,-2990,4867,-3874,723,1684,-1625
2406,4107,6246,6071,619,-932,942
2407,-6862,-7489,-4168,-458,239,-973
2408,-3059,1731,-3872,-159,-1727,1206
2409,-2862,-28,266,-1517,333,1311
2410,2583,513,2813,-180,-1497,-572
2411,5221,-5016,-1875,-632,-208,1228
2412,-7180,-1821,6568,45,530,1391
2413,-3399,-4299,-4254,-222,-782,-332
2414,-7686,-1587,-3442,-1073,-648,-141
2415,6005,1389,-7409,-601,-1358,144
2416,3011,-3489,-7116,-1451,1527,-1916
2417,7987,-4035,3587,-1942,1300,-1280
2418,6471,1819,728,-1596,-322,1204
2419,-5428,6989,-3746,975,1091,1529
2420,3703,454,7900,-1201,1751,-1556
2421,-4691,-930,-1025,-1966,51,811
2422,-7502,1674,-463,-1518,498,562
2423,3880,7769,-2282,867,1418,782
2424,-4566,-7117,6120,-1071,-396,1377
2425,3830,1543,374,1472,1413,-61
2426,3993,-3688,1828,-669,-374,242
2427,1401,-5093,4199,713,-1106,322
2428,5365,-1669,-3640,-22,-1902,-235
2429,-5945,1492,-5121,-1599,-987,-184
2430,-1509,2916,6397,921,-1174,-1116
2431,-2572,-395,-4635,1201,-44,55
2432,7884,-7763,-1092,-1984,579,-1850
2433,5716,7933,-4495,1305,-943,1712
2434,-2893,-5685,6556,-1286,1954,1159
2435,-7393,2868,6091,263,-186,-610
2436,4732,-7118,-6122,-1937,830,253
2437,5607,6186,3801,-781,893,72
2438,6010,7221,-7112,1619,-1183,353
2439,815,2076,-7757,401,543,-774
2440,-4287,6887,6527,1179,1603,-383
2441,-5816,-7735,-5251,-1390,-1716,879
2442,-1705,1335,-6667,-1285,917,759
2443,5722,1760,-1288,-1064,567,-1712
2444,-476,-6383,-528,-1615,1092,-938
2445,3067,3739,-4977,-159,-424,-1350
2446,4344,-7844,-2270,225,1884,1059
2447,-661,6989,-4246,-614,-899,-650
2448,6171,2698,3700,-787,928,1215
2449,-1183,-7702,7943,-31,-1448,-371
2450,-5801,4547,-2499,-1841,-706,-1645
2451,-7923,-3363,2314,1850,1370,-1997
2452,-5874,-6298,4718,-1093,-1445,-1303
2453,1674,3153,1343,1158,1403,-571
2454,-2672,2025,7848,151,-1920,-848
2455,3332,549,-2702,-703,-1520,-1220
2456,-2948,-4316,2804,-1760,1572,1337
2457,7035,7053,5937,-1581,-300,-735
2458,2828,534,-323,1702,-1738,-1168
2459,-2994,-7703,-3023,-3,117,-1284
2460,7079,-3029,6563,1680,-1433,-444
2461,876,-282,4307,1537,331,1291
2462,-1030,-3824,-1947,1579,328,-1279
2463,6864,-5123,554,-1646,409,-1154
2464,-7084,-3971,481,1273,-1190,-1800
2465,-7520,-5454,-6360,816,-385,1310
2466,-6028,-2157,-6547,-977,1883,-1877
2467,7778,6406,-3539,1691,103,383
2468,5539,-468,-7527,915,810,-146
2469,-2859,3346,7580,-1916,-1401,625
2470,-6424,-7105,-1581,-531,396,1473
2471,-4596,4487,11,-162,1605,1205
2472,6696,-4412,-7693,-1978,-857,-1389
2473,1723,2210,-2404,367,-386,1842
2474,-1149,5729,-2017,-879,837,410
2475,193,2397,6447,-888,-1204,364
2476,5110,3471,1918,93,-1843,20
2477,-2898,-5973,-2506,-356,-1550,-572
2478,-3324,-2058,-1940,-500,120,-1890
2479,1019,3732,1351,168,-1000,-915
2480,7228,6919,5085,711,368,-1168
2481,-2947,4314,-3130,-234,-1504,-37
2482,2674,4592,4569,-1472,1760,8
2483,662,-1947,4262,1047,-723,-605
2484,-865,6893,7323,-381,-97,1679
2485,2841,1682,6511,-715,-88,139
2486,3770,-1232,-4476,-513,-158,-1940
2487,-2984,6720,-4959,1969,1331,485
2488,-2263,5298,2022,-1475,360,563
2489,2639,-4453,-982,1945,1939,-1888
2490,-2646,1945,2529,1960,1040,-1049
2491,-7482,-244,-349,-1160,635,-1231
2492,-3726,-2633,4688,-1320,-950,-1692
2493,580,5225,-7078,554,-1869,-1819
2494,-7182,-2505,3421,-1931,-893,-923
2495,3292,-4683,-3301,105,-873,1685
2496,-2738,7037,1442,892,-1168,1374
2497,4534,-5638,-2853,-1772,1328,1950
2498,3807,-2805,-648,-463,458,1003
2499,-286,-5201,448,-1621,332,1642
2500,-1309,6238,2075,-615,-1216,1402
2501,-326,-6647,-2821,-498,-1460,388
2502,-3392,-1238,-6569,847,605,-1902
2503,-3173,7816,-3045,841,999,-40
2504,-4595,-5714,-2664,964,1512,-1499
2505,1025,7065,2254,1721,759,970
2506,974,-5841,253,220,-674,-1935
2507,-4312,6818,896,-1525,-1852,952
2508,-3815,6220,2861,-747,127,-552
2509,5158,-7339,-7938,-336,-1912,-1521
2510,-4874,4136,-7641,-534,-933,1099
2511,-1320,6926,-4213,-1541,-48,1189
2512,-7355,2245,-450,-1158,-249,413
2513,-2811,-816,6598,-1494,661,1404
2514,1470,-2815,-7680,-1279,1296,861
2515,-5473,7328,-2027,846,326,1063
2516,3388,-3898,-3666,-370,-1774,1624
2517,-2939,251,-7005,-868,-1275,1515
2518,-3245,5667,-4945,1699,-778,1714
2519,-5520,2013,4502,1178,1434,1775
2520,-1256,-2565,3324,16,-1249,-1483
2521,-1865,-5712,7081,1106,-764,935
2522,3063,-595,-2344,-523,-678,-1333
2523,-5019,48,741,189,650,377
2524,-590,889,7824,682,1502,-679
2525,-2512,-7679,-5549,956,1226,-921
2526,3974,-4229,-7742,-1220,-1711,-468
2527,1366,2522,3406,-145,412,-81
2528,618,1698,3724,-1374,-367,1128
2529,884,-7322,-1829,1325,1210,-487
2530,2851,895,-4467,-1985,986,204
2531,-6180,-5168,6367,-357,-611,-1327
2532,3582,1978,-5047,30,-1962,726
2533,-7388,5310,3184,-547,-1154,-634
2534,-3180,-5729,6941,-1180,1286,353
2535,-3546,1770,-1419,-1908,-1559,-26
2536,-3393,-2500,-2113,-466,984,628
2537,6559,7558,559,835,-982,-1552
2538,-4548,445,3798,-147,1775,1245
2539,1687,-2167,-5515,376,-497,-598
2540,-1817,7035,6938,-1135,-337,-248
2541,5654,93,-546,1427,845,-439
2542,3225,3284,5406,-1736,356,1783
2543,2656,-2345,-5158,700,-78,-521
2544,-7072,-6630,-3382,1007,-1741,-885
2545,-3590,1643,-1282,-1479,-356,100
2546,-2301,2263,1118,391,213,807
2547,1628,-3372,-7651,1571,1303,1850
2548,-1128,-7301,5854,49,1288,-1253
2549,1588,5961,-3479,510,1719,-1319
2550,91,-7546,7335,-1462,-575,609
2551,-1271,-1418,2346,-1549,1601,158
2552,7505,6965,-2889,-1407,1332,1206
2553,-1244,-5036,3960,-187,-1211,228
2554,-7554,-1401,5017,725,-522,875
2555,-7839,4393,-576,-57,278,1432
2556,2430,-6913,7531,1859,-359,-876
2557,2594,-1031,7311,-405,-939,791
2558,6902,-4053,-7593,-545,-1711,-1215
2559,7321,333,7831,-1872,-885,207
2560,-1253,-2990,-6427,1575,-1558,-443
2561,-4003,-637,2739,-368,-1089,-1800
2562,4535,3267,-6451,595,386,133
2563,-906,6140,4175,1433,-212,660
2564,-1530,-1111,-7227,809,1589,-924
2565,1035,-6447,-2262,-1805,-1226,1253
2566,6752,2806,1818,-1473,-431,-1131
2567,-1150,7378,5321,677,-725,669
2568,-370,7727,6421,-1539,1205,1729
2569,-655,-2420,2449,-899,1167,1026
2570,-5230,-312,7287,-1101,1226,-1220
2571,6338,217,6398,-808,-1437,910
2572,3557,6226,4148,-191,1931,-287
2573,6199,-6653,-674,1428,1898,588
2574,-1357,3976,2250,998,-1606,284
2575,-811,628,-2334,1694,860,-52
2576,-3670,7079,7349,734,-1578,-212
2577,-6693,2646,659,1542,1281,-1258
2578,-6834,-4945,2180,816,1524,-1343
2579,-1951,3029,-4449,241,1403,1257
2580,7353,7657,-540,809,-1010,116
2581,6162,-6892,-1005,-569,598,-569
2582,-2831,-3731,3040,-1051,169,50
2583,-7635,-2855,-4428,-1279,-1587,44
2584,4336,877,2052,1495,-1547,-429
2585,-7997,-6845,677,1697,262,-1035
2586,-3857,-5691,-3911,-1026,1564,-262
2587,520,5496,4998,-922,668,1932
2588,-4901,7086,6726,-196,1360,1125
2589,-6070,-1148,-6328,-1658,1239,-1825
2590,-2712,-4408,2458,1731,-199,-1201
2591,-7326,7187,-7257,-1273,862,974
2592,4102,1994,-7896,-64,-1022,-954
2593,-7331,3510,-7854,1199,1501,1053
2594,-7065,-1592,843,1166,-1591,-1739
2595,-7206,70,-1902,-233,883,-393
2596,-6167,852,-1824,1768,1709,1931
2597,6887,-1528,-4000,-150,1613,-682
2598,7795,-7424,3888,878,-1411,-1967
2599,5155,-3714,-3497,-1064,1519,1011
2600,-539,1669,4498,938,1137,-1709
2601,3654,-3913,3221,-414,551,-41
2602,-5708,4990,-6358,-648,-178,983
2603,6540,1949,-2113,840,1291,-1129
2604,4596,2207,2016,1627,1977,1381
2605,-224,-3452,4309,271,-855,-1393
2606,6423,-7721,-7068,122,-644,-1362
2607,-6555,5851,-278,227,1828,274
2608,-7704,-2035,2348,-1040,-784,1491
2609,4906,-6808,-3732,-1401,-1503,1187
2610,-663,-4437,6769,-1952,1637,-1154
2611,1304,-1824,-7673,120,655,1125
2612,831,-4656,5850,-289,1523,-954
2613,633,4517,-5089,1279,1043,-967
2614,-6093,4528,-4734,-979,507,-252
2615,-987,6710,5083,1545,-1163,1046
2616,-3753,5323,-5711,1257,1267,1499
2617,-7938,-6240,1859,1206,-1959,-1675
2618,-590,-2175,5313,-454,-65,656
2619,7722,7255,-1989,1449,1785,816
2620,-2279,-4925,-2340,1721,-1385,-1170
2621,371,4371,3365,1030,-1647,1369
2622,6089,-4115,-4930,1548,1678,-1537
2623,6069,4257,908,-558,-404,352
2624,3103,-4240,-5579,-594,-1700,-697
2625,6591,7731,-2746,-1190,-586,-515
2626,-3050,6882,-6103,-1624,-1863,309
2627,1581,2896,-3145,1096,-765,-1940
2628,-6988,-570,-3494,-1410,1726,-503
2629,173,-2555,2029,1404,140,-447
2630,-1808,7929,1011,1030,1893,553
2631,2781,3700,-3421,-1271,-717,735
2632,-3558,-3853,1120,1751,1340,320
2633,-3916,-5473,-674,669,181,1800
2634,-270,896,2758,-1925,270,-620
2635,-1712,3561,-7264,-1821,1590,-120
2636,-460,432,7827,-554,-715,1341
2637,-4885,-47,-7624,-361,1160,-1904
2638,-2762,6552,-4637,530,383,-1015
2639,-2525,-5399,-1632,1182,-406,-1799
2640,5025,-5322,-3806,776,-489,1055
2641,-5117,1733,6285,1813,899,-767
2642,-407,2891,-1260,195,593,-935
2643,-4108,5424,-290,-629,-442,913
2644,-1458,4599,7756,-259,-793,858
2645,7529,-6761,-5954,1212,-1760,1409
2646,-967,-5733,-3574,981,-1837,-157
2647,6012,4650,2664,-33,-1683,-71
2648,-6351,-3000,-1805,1687,1766,719
2649,-6188,90,1053,1289,-1317,468
2650,3134,-5061,5284,-1513,-548,-65
2651,-4046,4189,-2807,-28,-1403,-1468
2652,-6416,-7965,814,-1107,-363,1791
2653,-1251,-1295,-2929,1781,914,606
2654,-3378,-5900,-6744,-318,-1745,-254
2655,-7088,2623,-503,644,-263,-963
2656,-2993,-6932,-2077,1370,-1260,38
2657,-6822,2614,-7280,-556,1946,1679
2658,-1726,-3853,-1591,179,1499,1723
2659,-5186,-6530,6842,810,815,1584
2660,-6154,-980,-3116,442,-1498,-1986
2661,1433,4236,5515,-1830,1612,-1177
2662,-4282,284,-6192,-1547,-1146,1766
2663,6896,7176,887,-1010,-549,1102
2664,-7667,479,7803,507,1088,-1853
2665,-4002,-2321,6757,-806,-255,-686
2666,1205,2470,-5016,-1579,-1987,-1468
2667,5970,5128,-3647,861,639,255
2668,-5443,2817,-4645,232,1855,526
2669,-1133,-278,4981,-111,-157,1776
2670,3913,-123,-3859,-31,-1436,1985
2671,3403,-4127,4025,1056,-48,-360
2672,-3741,-1092,-1629,1501,-1507,1414
2673,-6656,4179,6609,1555,-575,-435
2674,2043,-4201,-4443,228,-1848,17
2675,-425,-2453,6982,1811,1121,538
2676,-5322,4242,3116,-333,846,511
2677,5811,-1733,-582,619,-1274,1694
2678,3657,7890,4092,-784,-1658,-1474
2679,3262,-5284,-5125,1967,1276,-1282
2680,1750,6771,6268,1592,950,-1457
2681,7039,6601,4635,1850,-1937,931
2682,-6173,6537,7311,-1434,-264,1942
2683,-4994,-7819,2966,-1874,877,1504
2684,1562,6858,-6277,-1692,-1608,1249
2685,-7340,-3016,2588,1571,1550,1522
2686,-7104,6466,5210,302,70,724
2687,-3245,-6054,-5339,-453,-1202,1697
2688,7611,-3840,-7714,825,-758,-1615
2689,4678,-4665,-7102,1031,-1222,1174
2690,-2086,-425,6916,-364,574,-1217
2691,-4100,7629,7911,-159,45,-262
2692,-3155,-1899,-3097,-863,-120,1582
2693,-6369,-2836,-7290,328,683,303
2694,-380,-5996,5075,630,604,922
2695,3287,-2676,70,382,251,46
2696,-3438,4230,-4863,386,-34,-196
2697,4638,3765,7798,-494,504,535
2698,6411,598,-7661,1589,-265,-583
2699,4413,-2158,-5400,-329,-1785,502
2700,949,-7882,-3059,-1499,1642,-1636
2701,-4232,4079,2370,-92,-857,117
2702,-5121,-2252,5134,1362,-1858,1580
2703,-443,-6560,4934,838,1848,1085
2704,6941,-4589,-5606,574,-387,-1424
2705,7100,5192,-7672,406,1832,-736
2706,862,-4782,-6257,1589,1792,-427
2707,2323,-1119,-1507,-212,1996,-1574
2708,-5893,7684,-2018,-643,736,-1016
2709,-3093,7500,7692,-1991,1666,-372
2710,953,6063,-7688,1527,-750,511
2711,2170,2069,5059,-507,-1029,-1061
2712,-5591,453,1621,1954,1044,1405
2713,6947,-7960,5564,357,-61,-652
2714,-6860,-5941,2476,672,1017,-1198
2715,5256,-6751,-4642,-567,-575,-956
2716,-2647,-4851,-4672,636,-1994,1436
2717,-2425,411,-524,-627,1218,-903
2718,-5723,6601,-910,1708,-600,326
2719,-2640,3319,-7285,-1983,-169,1743
2720,-4184,3129,-7841,1736,1948,1799
2721,-5610,-1736,-3054,-375,1170,-344
2722,1376,7714,-1638,1905,-1491,-1329
2723,-7956,-1999,4266,-676,529,-463
2724,6027,-6722,2015,-322,766,-1147
2725,3766,1530,-6240,-430,-503,-877
2726,5151,-6896,-1788,1022,1558,84
2727,3389,-2009,-3710,-1368,1075,941
2728,7902,5729,1507,-750,-976,459
2729,6645,3262,-4887,716,196,-1836
2730,-4695,6999,1381,-1437,828,1660
2731,4574,3692,7410,1147,804,734
2732,6111,-2950,-3708,1931,-1205,-179
2733,1408,-2045,-1503,-1015,-561,-556
2734,-3074,-6238,-3724,1176,1944,415
2735,6682,-6348,-3729,-1166,-1989,899
2736,-4909,7689,6524,-632,800,1334
2737,118,-2137,948,-175,-1386,245
2738,-5375,2374,-2370,124,1172,-42
2739,-5548,-1540,2942,1711,-1320,-787
2740,-7028,1525,7114,-1206,976,-1553
2741,-4578,-1872,3759,958,-158,-781
2742,1986,-2772,3308,306,471,-1338
2743,6779,-2068,-2148,807,-196,-305
2744,7742,2992,-7379,900,-827,231
2745,-6165,-1306,-6980,1606,442,1117
2746,3569,6217,4893,-1509,1961,561
2747,5172,2176,440,-1458,-719,90
2748,439,7351,-6973,1187,-951,1108
2749,-5291,7115,2319,-498,263,1745
2750,-2946,272,1772,546,164,1859
2751,-5810,3252,6552,624,1322,1022
2752,-1875,-7680,-6850,234,-1890,409
2753,7168,305,-2436,1371,-1107,1121
2754,1686,-7550,-6297,1606,-397,-1378
2755,-7127,-2244,-7217,-53,-296,1475
2756,-5702,7555,487,67,1729,-1603
2757,629,3490,1249,-819,647,818
2758,-4598,1505,-4200,670,-1615,497
2759,908,3461,932,1106,-946,-457
2760,-5790,-6020,-6443,-1595,1933,1032
2761,-7985,528,-5297,262,134,1834
2762,-4018,-3185,7141,676,-489,992
2763,529,-2617,-7998,1878,1696,922
2764,153,665,2486,-437,-544,-521
2765,477,6388,1887,603,-1307,18
2766,-3518,-3258,-5746,1861,-1100,-1545
2767,3706,-3131,2896,-1849,-767,1323
2768,-1562,-4179,-2967,-903,-653,478
2769,3131,144,939,-510,1383,-1901
2770,1769,2771,343,1845,659,500
2771,-7452,4880,-3229,1568,1115,-1389
2772,-7168,-4409,-5093,447,-1263,-784
2773,5531,2025,3608,530,-818,727
2774,2661,-6087,7759,1009,-1005,-515
2775,701,6992,1130,-523,-1004,1945
2776,2309,-2670,6133,-1158,-1902,-1144
2777,6217,6477,5926,-345,1530,162
2778,-5150,1039,-1725,821,-482,-657
2779,162,-4081,-1154,86,771,-231
2780,-2771,-6215,-3404,-1742,1699,279
2781,7844,-7315,6335,334,-705,-1575
2782,-5760,-5601,-1225,610,-1105,473
2783,3413,3742,-5276,1790,1212,577
2784,-2615,-4304,1155,-1251,-1731,-190
2785,5447,-7842,4917,1245,-960,-808
2786,-3156,-4549,3352,-306,-1637,-825
2787,3875,-5342,7886,-686,-1725,-1505
2788,7573,2255,-196,-1101,1117,183
2789,-5652,-5343,6881,-1170,-1854,1589
2790,-2115,-3193,2319,-593,-1166,1957
2791,-7650,2104,1340,-199,1892,-719
2792,3079,-2680,2751,675,1781,914
2793,-225,3593,-460,1127,1863,-148
2794,1838,-2511,-3220,-2,766,1953
2795,-1986,-1495,5529,-1889,1457,-145
2796,-1142,-2258,-209,1051,-1367,1125
2797,3900,3369,-1624,783,354,1136
2798,5908,1284,-3809,-124,424,1856
2799,4901,7359,1698,1029,1386,-151
2800,3491,859,-1054,-784,-1024,528
2801,1935,5584,4282,234,1143,768
2802,3334,2965,-3738,1352,-863,-575
2803,-2428,6356,5321,-1062,-545,-1811
2804,1213,-27,-7540,324,-1028,67
2805,5040,-4547,746,1202,-500,476
2806,-197,-3130,-4670,1706,1410,1385
2807,-4499,-7545,-7597,-862,-1937,1339
2808,5752,-1193,4825,345,133,-1050
2809,-6004,26,6473,1390,-1058,126
2810,-1037,-5076,-2862,646,1705,873
2811,-3424,-1949,2455,792,-354,1173
2812,7486,5639,2143,-666,891,679
2813,453,-869,4624,-304,-1688,-1015
2814,2374,7762,-6133,217,-420,-466
2815,7349,3048,5101,1931,567,-707
2816,-229,-791,3299,-1701,-1967,-1267
2817,-422,-5938,5959,-180,1355,-14
2818,7168,-6324,4968,-1051,-1827,-1516
2819,-926,6642,-2483,-343,1178,-663
2820,2143,1679,4212,326,1774,1152
2821,-2976,-153,6604,1579,-1570,-30
2822,-3113,-5653,6194,1514,1413,-1065
2823,-3125,42,4411,950,-1269,-1511
2824,516,-6475,4241,-899,1490,68
2825,-36,3966,-580,-955,1575,-548
2826,-909,7842,-543,-938,676,1857
2827,5060,-6994,-2454,-480,-1356,-1542
2828,-126,4235,7905,-1812,-422,-856
2829,-4540,-2231,2640,-903,-1868,-263
2830,6728,4954,-4015,1404,733,1789
2831,-7957,-2842,6820,-1792,-171,651
2832,-674,2313,7420,-255,-1745,-8
2833,-210,-5047,5462,106,-659,-628
2834,1185,1565,1876,1171,-1465,854
2835,-1576,-742,4829,-222,1565,-1972
2836,-6182,-936,1042,-1684,1457,1787
2837,-7439,-2717,-2527,921,472,811
2838,973,1718,5035,841,-682,783
2839,-2713,-5035,2332,-1083,-1954,1941
2840,5260,3747,-623,-223,-624,-1637
2841,6080,6728,-4343,1456,-1991,-1530
2842,-7697,1848,-5622,1559,345,894
2843,2187,-5270,-4140,572,1063,-1878
2844,1766,3677,2312,-1822,-1306,301
2845,-7009,-5845,-2120,-1789,-1804,-965
2846,-2633,-4368,-1111,1868,-814,330
2847,2440,-3832,580,-26,1076,-568
2848,-5405,5984,6052,1589,360,345
2849,659,6776,-492,946,-208,1786
2850,-1780,-1024,-6413,1983,-410,1913
2851,-2322,-5638,-2698,-751,862,1578
2852,-2134,-3414,-5040,-15,356,-1591
2853,-839,-4900,-5624,-1537,-558,856
2854,7415,-7282,-5668,-602,-278,508
2855,-3710,-5453,-1936,-1251,-1327,959
2856,-655,7062,-390,1648,-1272,-1936
2857,6058,-4181,-1505,1929,1155,-1358
2858,7040,7452,2411,425,-581,-1411
2859,-7219,3531,1652,552,-167,-543
2860,451,-7284,3241,-1778,-1226,-1554
2861,1716,-1197,-3163,-1360,473,1566
2862,-754,-4559,-3398,-8,-1384,-1586
2863,7235,7725,-7468,-1987,750,23
2864,-3759,-5531,-4215,-1880,-1221,-940
2865,7258,-4347,-6330,923,735,380
2866,398,6386,3344,-1743,953,1286
2867,5046,3759,-7481,-427,1331,1301
2868,-538,-6510,-7283,-1253,-1622,-768
2869,3857,-959,-2788,630,-651,806
2870,4494,2083,6211,185,-1864,-659
2871,-6454,-4118,-2133,-1917,-294,-545
2872,5943,-5448,5435,792,707,-176
2873,6014,4714,981,1337,-561,306
2874,-2419,-1653,-5128,281,1235,-673
2875,1558,2565,-7641,-867,-371,-1452
2876,5066,2035,7017,-394,-417,-578
2877,-567,5898,7905,-1628,1923,-133
2878,4187,-3883,-6389,-1971,-1553,982
2879,-2538,-3251,6346,-1974,744,874
2880,-7222,-460,-2346,-646,-593,186
2881,-7000,7406,3543,345,1474,-791
2882,3740,-2501,470,1776,-811,396
2883,-6942,-355,4073,-1786,1893,-150
2884,6035,7091,6654,-1398,-17,237
2885,-920,63,6639,-1631,-887,-5
2886,-6410,6651,-1846,863,1456,-1170
2887,-5976,3818,-7229,191,-73,1760
2888,-369,2784,-3308,931,-1549,674
2889,-4762,-4644,-440,768,-1247,-596
2890,7751,-2700,-5270,732,-30,-1996
2891,7941,-486,-1148,393,1540,-1113
2892,5718,3322,7106,-1202,-381,-1779
2893,-2886,3031,6476,-812,-1049,135
2894,3436,5052,-3987,-1264,-712,-516
2895,-1873,-861,-7760,-1542,-899,170
2896,1325,7316,-3721,-696,-324,-1478
2897,4891,6124,6216,-1166,24,1642
2898,-3453,-174,-5502,-1236,-620,-1016
2899,-5671,5036,-1585,293,-1809,1987
2900,7605,-1908,-2862,-1137,584,274
2901,-2180,2859,-7737,-1372,-1254,896
2902,6448,-497,-3740,-1325,-724,-1396
2903,-4573,1186,-4869,1339,52,418
2904,-5649,-4332,4143,-1637,926,-1358
2905,7146,6021,3046,1468,-1975,237
2906,2151,3994,29,1565,-309,1859
2907,1143,-615,-7400,139,1794,1780
2908,-7288,7008,6565,501,510,1012
2909,-4187,1383,-7991,1329,-600,-1883
2910,596,4050,-5039,847,1912,-1530
2911,6404,-5568,4937,-295,-1194,15
2912,-4478,7115,-2583,418,-378,-1768
2913,-1932,-2920,7073,1496,1825,1876
2914,-4594,6893,223,1734,-9,-1751
2915,-1313,2339,-7068,108,-965,1763
2916,630,-185,6698,1258,-1166,1749
2917,-672,-377,-7631,547,-155,517
2918,4748,1871,-4192,-1656,-290,-1555
2919,1840,-3998,6184,1996,-913,387
2920,-6468,-954,2671,-1286,1196,534
2921,7049,4279,-3935,1102,-1557,-38
2922,6164,7937,5564,-500,-228,1023
2923,6418,7077,-3472,1682,918,-1808
2924,-3156,-645,-600,573,269,-37
2925,7046,74,6493,985,-615,-1098
2926,-1980,-3208,-5415,453,958,971
2927,-4209,2151,-5814,387,1170,909
2928,7987,-6668,-2548,1147,1944,98
2929,-2102,2616,6485,1068,1206,-71
2930,-7227,-4599,-7620,705,960,1418
2931,5386,-163,-6374,76,-1500,-1513
2932,4150,3644,5634,-552,-1447,964
2933,-3316,-5690,2988,-1073,1100,476
2934,-4742,-5861,2726,-619,-1275,-656
2935,-1100,-97,3849,1298,271,-946
2936,-5964,7494,-2834,1282,1209,1219
2937,-1534,4658,-3957,-1099,-1863,-1993
2938,686,-3560,1708,607,-1645,-1232
2939,4535,4541,7899,-1394,69,1655
2940,-4800,-7239,-5010,508,-1625,-989
2941,6447,3541,-3835,403,1820,-618
2942,4250,4164,-3435,779,548,-1576
2943,-4620,1278,2604,869,1751,586
2944,-6404,-3092,2611,1212,-1414,88
2945,1997,-1935,-5738,1449,-540,-449
2946,2079,-7626,5430,-1274,1655,1154
2947,7816,3477,3136,1945,1018,1674
2948,5906,-3116,-4452,-1364,1657,-650
2949,1876,-3848,2207,-1651,-808,611
2950,1219,7854,-7316,-704,-1505,-340
2951,-5965,7294,1217,1567,1458,-1447
2952,7738,-3074,-2967,-1502,1572,-1600
2953,-6091,7077,6968,-651,-503,-1484
2954,-1427,-4624,4738,1836,1162,-1643
2955,6960,-3139,-759,9,-1312,1429
2956,-1897,-2710,6482,1542,1889,364
2957,-5995,662,-1343,-603,1812,935
2958,3839,3157,6097,-1665,1850,938
2959,-4473,-7121,7627,1931,511,1636
2960,6047,4282,3217,326,168,40
2961,4688,-7468,7232,-286,-1321,-1926
2962,5221,-5565,-1390,-1921,1332,1379
2963,2936,-2465,-512,374,-621,1963
2964,-3533,6499,488,1762,1588,1611
2965,-6138,-5334,-2800,254,261,-399
2966,3199,2085,-5122,-1113,-955,1665
2967,-4176,-6310,-4519,-855,654,-1463
2968,5767,-3938,3248,301,1725,350
2969,2163,2954,-7568,332,1006,1251
2970,6798,-1422,-1415,-973,330,-1443
2971,7816,-3536,5145,-1371,712,1118
2972,1703,4334,-6726,1309,-1596,1601
2973,-4327,4323,-3338,1446,-1832,-923
2974,-3513,155,-6507,414,358,-806
2975,-6674,5412,5613,-1353,-295,284
2976,4674,300,5891,-1082,87,1500
2977,2212,-2203,-6189,45,1391,960
2978,912,4544,-6793,1797,1225,-1320
2979,-6533,6326,-6562,-176,628,-1928
2980,-6583,-6349,1607,-959,1619,1891
2981,-6042,2233,1919,-1566,-34,-892
2982,2971,1051,7459,-1751,-562,1831
2983,5720,5065,7101,979,1136,-1649
2984,5359,2619,7038,-65,1674,66
2985,459,739,-4702,572,153,840
2986,-620,3306,3524,-1586,276,-1422
2987,-6385,6509,971,-920,1285,1728
2988,3889,4316,-1590,-851,-161,1663
2989,-1152,6255,4593,-1730,883,-1690
2990,7605,3750,-332,-1702,1889,-752
2991,2675,964,-2169,-912,-1192,-1613
2992,-4749,3776,4585,289,-605,1310
2993,-349,-4399,1952,-763,1849,67
2994,2919,4060,1326,1896,755,-479
2995,6351,-6931,7919,-764,885,-1203
2996,3182,4142,6034,1812,-884,-1213
2997,-5850,175,249,204,971,416
2998,-3228,725,4637,541,1673,-366
2999,-2705,-5331,5621,606,256,-1517
3000,2730,-2883,-990,-514,-1072,371
3001,-6549,-2107,5508,1138,-1766,-1747
3002,-2349,5365,-6840,241,-1676,-77
3003,5431,7026,-2548,34,-1237,-1667
3004,-2555,5314,-1400,1130,1372,-1533
3005,6268,-2479,-4228,-289,948,-690
3006,-473,7978,3755,812,807,1889
3007,-4800,6031,7954,-1654,1914,1723
3008,5006,-3659,-479,-185,-1705,255
3009,-311,3138,6851,-1358,-1844,1084
3010,1094,-3639,5172,1332,108,352
3011,-7509,2735,-6088,766,59,380
3012,6746,7493,-5592,1262,1912,-325
3013,2498,2762,-1624,1968,-1925,320
3014,139,-692,348,-670,-1572,1596
3015,5468,-4893,-5151,135,409,-1489
3016,7563,-5231,5963,-1874,-1114,-1639
3017,-1038,7659,-1867,74,1430,1812
3018,6546,-2239,-4331,769,204,387
3019,5102,7892,2783,-1649,-981,-451
3020,-7193,-6657,7574,201,-463,-1287
3021,1720,-1270,-2136,1920,1217,-614
3022,1582,5364,2548,355,-497,461
3023,-7261,-4231,1124,-1876,-1462,-528
3024,-1719,5996,2101,-151,814,1792
3025,6258,-1781,7988,-1979,-779,1564
3026,-1664,1735,-6419,-1963,1209,517
3027,2797,6504,3448,246,-641,-565
3028,1611,2089,-1200,-93,-808,221
3029,-1533,-3441,3054,1947,1397,-674
3030,-308,6857,-3792,-1105,326,1979
3031,7400,688,7767,211,-1529,1129
3032,-6009,5395,1946,376,408,-348
3033,3258,-2705,5314,-1904,1086,971
3034,3394,-1559,7766,1157,-447,-820
3035,-71,-1182,-3150,10,-791,597
3036,7208,7992,5437,-1709,-316,-780
3037,-887,5041,2328,1784,1038,-1848
3038,2466,4072,-6982,1012,-402,480
3039,3244,-1437,7936,-393,831,803
3040,50,4686,6596,1646,-1597,-241
3041,-1931,-5648,6186,-1264,-1848,-517
3042,-962,-7635,3112,220,1677,1150
3043,517,4077,109,730,-2000,-861
3044,6277,1280,1842,1601,1221,-1646
3045,-3312,-7826,-4024,60,-775,604
3046,1177,-4684,3841,177,940,1188
3047,-6833,5073,-4535,1270,-130,-1685
3048,7171,-6486,-4975,-1837,273,-80
3049,-343,6796,-2736,-982,1305,1105
3050,-133,-6172,2196,-1868,1439,947
3051,6227,-2611,-7655,953,1341,548
3052,-1823,-4687,3062,1920,825,1387
3053,-5606,-2165,4712,-425,1865,-1302
3054,2739,7382,-4138,497,-875,1471
3055,358,-5234,-5850,84,-806,1009
3056,-3217,4198,2234,1937,-1104,256
3057,2984,4893,2204,348,364,1687
3058,-3889,7822,6683,1967,1067,22
3059,-7982,2257,3473,-299,1235,-1751
3060,-7548,-2637,-5455,1114,212,-1259
3061,-7885,6116,7803,1988,-1068,-72
3062,3783,6582,6219,14,678,969
3063,-6399,561,1332,32,-904,-336
3064,1024,4312,2303,-330,1445,-294
3065,6623,-7466,389,-861,1632,-1668
3066,1246,-1202,4937,265,-56,755
3067,6454,3606,-2431,-1493,-496,626
3068,-6259,-5619,-5697,835,-954,1369
3069,7803,-5459,6273,-342,664,1251
3070,-2080,2116,-2934,-815,1812,-1666
3071,172,-2031,-6158,-548,-1980,1461
3072,-5370,-4164,6227,1668,250,-1285
3073,1210,5171,-6493,363,583,1455
3074,5169,7187,5866,244,-994,-1797
3075,4788,-488,3805,-639,-1684,-1608
3076,7270,2693,4882,1678,763,-862
3077,5777,-2030,3797,1934,-165,608
3078,1071,3045,2025,1146,-788,929
3079,-4959,2321,-4738,1627,-613,1698
3080,4537,-7969,-7411,-596,1625,644
3081,-4597,-1143,-4236,-1050,-1630,-1495
3082,4966,6077,-3484,1459,-449,-207
3083,4302,-6149,4913,-1213,-397,1013
3084,7872,-4471,-2554,1061,-609,-812
3085,4397,6807,-5551,144,1117,733
3086,3270,3067,5603,-1182,-309,769
3087,2134,7481,-6083,503,-351,-239
3088,-5309,-6052,-2992,821,-288,279
3089,3048,-6275,6348,1770,1141,-773
3090,-2675,-6218,-4916,-1876,1978,1143
3091,378,-7873,2972,542,588,529
3092,963,-4031,-369,1155,-850,1165
3093,-7641,6113,7814,622,710,532
3094,-5573,3932,4582,1024,393,-1951
3095,-762,-5896,-7877,-1641,-1589,814
3096,-1089,852,-6386,1566,121,1330
3097,-2256,7206,-3654,-1061,1809,-1202
3098,-6476,6583,-5531,-167,1089,-66
3099,-4886,973,433,-863,1747,-177
3100,-4486,5239,1609,-969,-1185,-1050
3101,-2799,-1677,-3662,-1428,-297,-1434
3102,-6146,5141,6733,-1952,-298,601
3103,4981,7335,7538,-1577,93,-1880
3104,-7022,-2197,4942,-1117,-405,1735
3105,-1524,4768,-3922,277,-1541,-301
3106,-3622,6839,2194,1042,-1754,1230
3107,7993,-2425,4801,1985,1953,-123
3108,1102,5328,400,1657,579,217
3109,-5978,4277,6848,-951,-1156,271
3110,7196,-5308,-1773,1052,-1222,-1610
3111,-1366,-7464,1509,542,-793,-1107
3112,5439,-2516,3292,1532,1787,1459
3113,-5938,-3577,-2190,995,1373,-509
3114,-6022,476,-1940,-1419,878,1088
3115,-1142,2289,-6416,-898,1854,-544
3116,-4812,1753,3980,-1771,1100,-1538
3117,-765,-1766,4899,-1547,-1932,-1984
3118,-5593,7034,1317,-1766,-1868,-1601
3119,-79,-4162,-150,-917,1536,-1045
3120,4003,-6178,-4798,990,-1938,1786
3121,-1351,615,3373,-1131,1602,-1910
3122,2178,-6064,-6905,-1605,-960,-174
3123,6658,516,2868,370,-1374,646
3124,3295,4291,7004,-781,182,-730
3125,3355,2809,-1952,285,1053,1916
3126,-2120,1287,3539,1306,1929,1039
3127,6592,3963,-102,807,1268,1869
3128,1180,1589,-297,-147,-617,1935
3129,-5098,-7689,-2652,188,-1659,421
3130,-1888,7526,-5857,140,305,95
3131,-5787,-1545,5071,58,876,-1702
3132,-7045,-5825,6923,1905,1512,1865
3133,1210,30,321,-491,-1268,569
3134,-5156,-6206,-5134,-1986,742,1492
3135,-1158,-2949,7700,864,1463,378
3136,-6237,7491,2937,-1920,510,1608
3137,6958,772,1648,1383,916,418
3138,2358,-2164,-2091,-1237,-582,-1334
3139,6552,-2581,-3257,126,1656,1404
3140,-341,-891,6411,-545,132,-85
3141,2201,-1012,7096,1112,354,-388
3142,4402,-4270,811,855,-977,-746
3143,-5716,6125,-1389,-1194,-722,-1861
3144,-2562,6272,-4257,-594,1221,1516
3145,3506,-2443,2499,-913,-769,1851
3146,7214,-7318,6674,-1127,-1971,868
3147,2110,-1366,-2567,1037,203,983
3148,-2651,7003,4123,1008,-1661,-1607
3149,-3902,7225,-4322,-1156,1413,-1864
3150,7587,1555,6422,1121,-153,-693
3151,-3014,-46,7203,-65,8,1119
3152,-746,-1901,-964,-56,-20,-1585
3153,-4212,6154,7808,573,-177,-1642
3154,749,6241,394,1957,-491,-250
3155,1981,4622,-5448,1691,1897,1300
3156,5703,-7578,7852,-1797,-1999,151
3157,6529,-626,-2243,-1374,-96,-1671
3158,-4319,6655,-1846,1887,-164,-1621
3159,7083,-7211,1694,-60,-1762,-1737
3160,-2555,5005,-6897,293,1526,-587
3161,4441,-7521,-1993,1091,1837,1523
3162,-3424,6200,4372,-1338,491,1923
3163,41,623,5440,1971,-937,1647
3164,-83,5846,-4220,-1733,-1480,-1977
3165,-3615,3404,-7766,1363,-1453,-16
3166,1620,-3907,2581,-624,353,-1060
3167,2874,-4623,-7808,1582,-1728,-1506
3168,3050,-2362,-7281,-1628,1449,-237
3169,-2846,887,4481,1493,1193,859
3170,-6916,1893,-3626,95,1519,-1101
3171,6595,709,-4345,450,-400,-1644
3172,-3683,-2295,-6113,201,-1203,-760
3173,5043,-948,7692,-828,1506,-834
3174,6125,910,5392,-1112,-525,439
3175,-1151,3843,3958,1890,1009,-1484
3176,-3376,7615,-3192,-1884,689,-1306
3177,7864,-2725,-3574,-1736,1421,-633
3178,4442,6822,2920,1766,1390,125
3179,6193,914,-1874,-656,1783,-1484
3180,208,-4364,3097,-673,-1930,1960
3181,-3032,5430,-5176,-1335,-1208,-758
3182,4742,-4940,4890,-1986,-546,-1121
3183,5688,-1789,3721,947,-1320,-1665
3184,-5084,-7996,-1678,1102,-1416,-891
3185,7952,6164,-118,687,-1059,1506
3186,2982,975,5590,1772,562,1571
3187,6063,-2942,5432,-673,973,-252
3188,1124,-4009,3183,1902,-1036,-1594
3189,-485,-4484,1238,-642,-1624,-51
3190,-1212,5653,-5056,-1929,1670,1727
3191,-3034,2030,-2143,527,1796,685
3192,-4793,871,-450,986,-483,252
3193,4783,6779,6207,-677,1498,-965
3194,-1699,6680,114,1418,-1513,-343
3195,-7162,-4715,6627,1700,8,-1992
3196,6449,5542,-2572,1697,1104,1739
3197,4969,5288,4035,-561,1362,-899
3198,-4008,5823,-4928,-936,-479,1295
3199,-3340,-4424,-1123,427,766,1465
3200,-5125,5311,-7945,1126,1542,1947
3201,6123,-2661,4836,-1080,-833,1021
3202,4515,5431,869,-251,301,-983
3203,6913,4340,-6791,1175,-1137,989
3204,2713,-57,-3535,-837,-1009,690
3205,-5514,5858,1989,-190,933,849
3206,-7677,4111,7025,-813,1131,-111
3207,5332,-4722,5856,-973,1908,1248
3208,-6738,5884,-6061,1122,1260,-885
3209,1724,3763,7913,1807,-420,819
3210,-938,-3905,2972,-1140,964,-832
3211,6736,-6160,3547,623,-198,1434
3212,-5729,-1030,6401,-2000,-1278,53
3213,1864,-6830,5102,1621,-265,923
3214,4811,7871,7944,34,1403,1225
3215,-2991,-7051,4271,19,1803,-1427
3216,5271,-2651,-6694,515,-1425,945
3217,-1087,5260,5588,1158,-1910,831
3218,-1716,7767,689,1937,-728,592
3219,-5709,1132,-6368,1256,1628,1604
3220,-39,1788,-1865,-806,110,-1157
3221,-1023,-3555,-1359,1676,1059,-1917
3222,-1525,-4158,1649,-779,1631,1592
3223,2231,-1003,6380,571,-1613,756
3224,-6440,-3454,263,-1783,1335,555
3225,-3249,4760,3335,135,-676,662
3226,1403,-6671,2111,948,1639,1184
3227,-580,-7164,7714,824,-560,1925
3228,3877,4286,1313,-155,179,-1548
3229,-4583,-3471,6906,1112,1133,-843
3230,4146,-7717,-4150,105,-1739,-481
3231,-4389,5546,-5589,1319,-84,-388
3232,-3501,3456,2646,1249,524,-1780
3233,-6857,-554,787,-324,-219,249
3234,828,-1754,5088,209,1309,1835
3235,-171,-6542,-3193,660,-1881,331
3236,-7171,5407,5616,-837,-327,1956
3237,4447,-3720,-3383,-1533,250,-578
3238,7910,617,1645,-1937,-960,77
3239,-2975,7324,421,116,-308,-1511
3240,-7698,571,2445,1263,725,-1863
3241,2810,-6870,-6180,809,-203,-1692
3242,1974,7943,7148,-919,340,1195
3243,5401,5192,445,-499,-685,1914
3244,-382,-3815,4555,-686,1764,-858
3245,1252,-2081,-2962,645,-900,-1658
3246,1398,5256,1116,965,-1757,-1920
3247,3255,-2024,-3007,698,-1168,-261
3248,6104,-1348,4764,1466,-564,-181
3249,-2136,6515,1355,674,-1323,718
3250,-1118,-4556,-4741,-1517,-724,297
3251,4665,-4767,-2346,-155,1804,1336
3252,1140,-5758,7007,-431,1558,-1071
3253,4212,-7405,-5703,-1387,339,-1201
3254,-7086,1663,1788,-1368,-1370,1667
3255,1263,605,7163,-1222,1903,403
3256,1989,2179,-1398,-854,1154,1574
3257,3775,-4648,7268,-967,-342,-1778
3258,6954,-7739,5329,-202,-1831,90
3259,-1637,6237,426,1423,1820,1549
3260,-2271,-7662,-6302,-1563,-1090,1748
3261,-7169,-1838,7551,-119,-1519,1275
3262,6886,-1236,-1428,-1115,429,173
3263,7437,-57,-6575,1934,438,822
3264,-6181,-2269,1630,-1399,1128,1431
3265,-4370,5294,4475,-1536,1908,97
3266,89,-2484,-4350,81,1752,358
3267,-412,7699,2803,-626,-1142,1753
3268,-4051,2197,-695,-1280,148,490
3269,-5128,-3337,4612,1756,-14,-731
3270,3592,7638,344,-1091,854,1359
3271,2726,3810,399,-1383,-1482,85
3272,5413,-2283,3209,-1219,-1952,-1495
3273,223,1257,5425,1659,1014,-180
3274,5279,4818,-6358,-661,-80,-461
3275,2503,2754,-1295,614,-1368,1563
3276,5109,3153,-1092,1508,-1776,-1396
3277,-3162,-6682,6228,858,-903,1854
3278,-1105,-35,-4914,757,237,-1145
3279,1629,3455,3248,-1251,-1391,-1073
3280,2515,4706,-1835,-1935,1630,1234
3281,-2136,-6232,4617,-753,-401,-1737
3282,3694,-535,-521,-564,712,-1905
3283,-944,7440,5233,601,-618,1759
3284,967,-4906,-7830,1308,1805,-795
3285,5366,2650,4943,-631,-177,-347
3286,-2248,-6031,6730,233,1205,-1418
3287,6052,-7988,984,-409,1904,-1007
3288,7622,6083,-66,-1131,16,799
3289,-4017,93,2972,616,1659,1288
3290,-3138,5152,-325,774,-1534,-993
3291,3372,3917,6221,1990,746,-1051
3292,6498,-3644,-5729,1080,-1917,1273
3293,-4363,-666,-1289,-1191,1583,-1391
3294,-4664,-2672,-6690,1994,-1029,1134
3295,2907,-6810,341,1190,-815,-1642
3296,-780,1681,3212,-1088,1693,-322
3297,4577,-933,2078,1539,-631,-1967
3298,-2210,211,-4319,1261,1390,-715
3299,-5085,-6622,5399,-489,-1732,-330
3300,-461,7524,4505,-1704,-1986,-1216
3301,3585,-7431,6906,1706,-1907,-839
3302,7560,4705,-2205,1443,1753,893
3303,-5541,1432,3749,1489,1707,1080
3304,356,6761,5208,1022,405,-264
3305,6342,-7206,2782,-373,-1606,-193
3306,5657,-1808,-310,596,-1870,-1477
3307,-4816,-4193,3351,-1772,-1060,268
3308,-2736,2844,-4229,1850,366,-373
3309,-3426,2505,6909,-1895,-1166,455
3310,1635,1011,670,-1997,312,196
3311,5180,4986,-7985,1255,180,-266
3312,-4500,-6104,4220,-943,1116,476
3313,3577,-615,4559,1519,1231,-422
3314,1519,2906,4757,-583,1054,-285
3315,6602,7029,1050,-1491,-1500,-1144
3316,2756,636,-7885,-480,1329,-453
3317,2386,1941,5831,1334,-1681,701
3318,2482,2813,-6026,1518,-445,306
3319,-3023,6282,-7848,980,-808,-1531
3320,-4735,3580,2281,1591,1134,-661
3321,-779,4000,1790,-1259,1616,665
3322,-2951,-221,5028,1355,566,-633
3323,-1193,7929,6703,-1072,-1255,-1220
3324,-6072,2146,-6486,1068,623,-696
3325,1704,-7390,-5731,-711,1075,-1757
3326,-5703,-7069,-3505,-519,1315,539
3327,2258,3581,-340,-444,305,-347
3328,585,-315,-6251,819,-140,-1827
3329,-1322,-6211,-2496,213,1883,620
3330,-6445,6611,-3617,1285,-977,-1197
3331,3331,3001,6441,-538,-22,337
3332,-7973,-6066,6078,-1467,-1560,-903
3333,6241,4981,6195,960,806,1478
3334,-310,-5122,-5470,-16,-1305,-1085
3335,-3595,7230,-5531,428,1899,1200
3336,4534,-2984,6279,-592,553,1440
3337,1444,3359,-2287,40,-1542,-1239
3338,-4805,-103,5514,-1067,1961,-1964
3339,-2703,6971,-1465,1262,1758,1502
3340,-7454,1415,6518,-342,1619,1447
3341,-5150,7651,-2400,1028,-1246,1441
3342,-6432,2298,-7879,1762,819,-369
3343,-6297,3793,-869,427,1747,-1954
3344,-3349,-2935,-7998,189,-792,1138
3345,-5488,6609,-5702,1148,1563,786
3346,3683,-7821,-6397,1474,-1370,-1338
3347,-4129,831,-5758,-1556,-581,400
3348,635,-1607,5852,-1693,-407,-1790
3349,-5114,6935,-5375,27,-691,779
3350,-6610,6174,7519,-390,1108,-348
3351,3768,7273,5449,-1669,-363,1018
3352,6924,3023,-3643,907,-347,145
3353,4885,-5032,-4691,3,168,500
3354,-1795,795,6169,1805,157,22
3355,842,-7321,810,-120,1839,-935
3356,-2470,-2048,734,-375,-1144,54
3357,1640,5637,425,-1641,838,-815
3358,-6148,-3524,-4624,-1423,1608,644
3359,1172,224,7295,552,-1397,-1125
3360,-6198,7142,-7043,664,1253,-981
3361,418,3483,-247,-1889,330,-687
3362,-1701,6945,5189,571,486,-60
3363,2907,-2246,7377,-1548,413,-1336
3364,3298,2129,-7766,1710,290,-1365
3365,2947,2137,5406,-1103,543,-1518
3366,7744,-2612,-4778,558,-1682,1338
3367,-6413,-7990,3386,844,-249,445
3368,-7398,775,-1115,-1193,1919,476
