Sample,Ax,Ay,Az,Gx,Gy,Gz
0,-2202,-4953,5981,-1027,-1952,1549
1,2002,-7850,3471,-1140,-1208,-1114
2,4616,-405,3701,-106,-1160,-936
3,-7552,-4351,-1685,-1339,90,193
4,3214,-4867,1315,298,988,634
5,-321,216,-7728,445,764,-1888
6,176,-3472,-108,1260,49,-824
7,-6994,7406,5058,1071,360,-946
8,6927,-1933,-6092,651,-1827,-1085
9,972,-2125,-4869,918,-1161,1566
10,1110,1620,-327,-975,988,669
11,2731,-5585,-411,-826,-443,1279
12,6404,903,5130,1241,1819,-1881
13,2230,-4448,7832,-732,1610,1895
14,-6414,-4482,-2215,-12,-513,1615
15,-7905,-1133,-6194,-907,-1165,519
16,-6554,523,-7615,717,1583,1651
17,-3062,-4437,6336,898,1640,923
18,-6759,2801,-7226,685,1993,1628
19,-578,-4533,2471,-1389,1461,-1525
20,3959,1562,-4759,-1981,31,1451
21,-198,-7312,-2431,1933,-969,403
22,-7692,-5076,-665,-1610,1449,-1722
23,-643,-1100,6951,-1425,379,634
24,-4692,484,952,579,1638,1166
25,-2065,5602,1325,1609,-458,1189
26,-637,5394,2637,1348,1003,-1086
27,237,-941,5308,-674,1227,-723
28,2942,-4261,-3209,-1116,715,906
29,-4018,-6951,6075,-1096,707,1037
30,-7286,-2004,6459,1589,-1492,-706
31,-7365,3548,4730,1844,1233,554
32,-6015,1911,-5334,761,-1975,1320
33,5042,-2290,3166,833,1391,383
34,6067,-4706,-3108,519,1397,-1116
35,399,-4602,3431,-258,-990,-60
36,5010,-5641,5317,273,-1366,-1189
37,-2386,-952,4151,1502,-1733,612
38,4375,-4494,-6753,-1334,-1410,-1248
39,5725,1566,736,778,-1068,1121
40,-7307,-4636,-3688,428,-1919,200
41,264,4060,-1175,406,-313,-863
42,-7586,1200,5860,-34,-1649,1738
43,3940,5334,-4228,-326,-336,-1976
44,156,-4882,-2824,26,-205,227
45,-3934,-1997,-6638,-1815,681,-1155
46,-3133,7724,-6192,987,626,-1439
47,-676,-1462,5951,1769,-1866,1197
48,960,-1024,7094,804,374,-1730
49,-7487,7434,4831,-1157,-36,1513
50,7729,5451,-4115,174,-1496,689
51,2442,737,7393,324,1637,-424
52,-2152,-438,-366,177,357,1415
53,1271,6323,7351,681,-965,-1602
54,-2201,4073,-434,1088,-302,231
55,1772,-2932,2376,-1919,-1119,-801
56,-458,2680,249,-1080,359,1443
57,-1002,-3502,-6973,681,-1230,1278
58,-6029,-2696,-6397,1890,779,1125
59,-3280,5904,-7045,746,-1084,1146
60,-7005,-5370,-4141,751,-1273,1285
61,-921,-3978,-5125,-1178,-1864,-70
62,-1102,-5145,-5774,1742,-1919,1781
63,-3648,7139,-4594,-889,89,419
64,-1616,-5879,-846,1013,1395,491
65,-137,3186,-4323,-317,-214,502
66,1096,-1525,4086,-879,1795,302
67,5943,1233,1322,959,-596,-661
68,6924,-4319,-7853,927,1483,668
69,-4731,-7280,-1447,-1201,1243,1466
70,-1659,-2624,-4118,430,1811,-233
71,6694,4335,-4876,1769,-1740,-796
72,4559,-1526,-5634,-1610,413,770
73,3194,-210,-846,-956,-586,-886
74,1741,6954,-5572,1279,-335,-125
75,-1499,-2193,5680,314,1416,-1478
76,3196,7080,6832,1994,-1990,-1289
77,-2621,6685,3350,-1529,-221,-1138
78,269,3070,771,-345,-646,-81
79,-1064,7353,7850,-599,1901,1849
80,5215,7312,6635,-717,1512,1627
81,-5571,283,-4720,-25,-811,-892
82,4908,112,-4875,-384,746,-389
83,-2240,-2075,5706,1579,1553,-313
84,-26,-6450,-1963,-544,1989,1705
85,-3607,-2439,-3935,-982,1970,-945
86,-3217,-281,5517,133,-1527,-543
87,-4850,-7871,-7823,-1080,1526,-125
88,-5556,-2251,-2392,-1442,-1996,38
89,6204,-1789,-7418,485,1703,-24
90,-695,3909,3960,1012,-1108,348
91,7179,1375,5027,1114,-996,-1161
92,2893,-5982,-1640,421,1560,1570
93,-6596,4395,-2548,1197,-1965,649
94,7245,171,-7186,262,-507,716
95,-7364,3256,1067,1130,1419,812
96,4552,834,-5406,332,-1368,1207
97,6395,-7770,3802,-514,1220,204
98,-1346,2081,200,-1470,1784,-1209
99,3570,3026,-5195,1822,589,-784
100,-1098,6106,-6735,456,333,-686
101,186,-3683,-284,-1940,-442,-1023
102,-6996,-6870,4106,-501,161,-1984
103,-2005,5794,4849,1051,905,1628
104,1618,2567,189,1854,948,1658
105,-4886,-1583,5837,842,1209,891
106,-3029,1058,-213,-815,-1896,1125
107,1527,5808,-2874,87,225,-390
108,6492,-3140,5995,-795,-134,328
109,-4414,-7385,-6325,1531,154,-1469
110,3485,543,1924,666,-747,-771
111,-3049,3662,-1880,1844,790,-379
112,1371,-1286,-5117,-499,-994,722
113,-3631,-5777,6169,-1955,-1838,406
114,4690,-7713,5192,-656,734,-1262
115,6479,2210,-7383,-288,-927,-1554
116,7571,1590,3116,1816,-1801,545
117,2211,-3067,-3465,1880,188,960
118,2165,-84,-7946,711,-161,1556
119,-6558,261,-7051,-1954,135,-1245
120,-462,38,-1578,493,-1642,-1588
121,1398,-1056,-4179,-982,-1569,36
122,-4999,4874,3327,-1474,-806,1769
123,6705,4547,-5280,878,-337,-377
124,-7018,-7063,-6232,1420,-1803,-1939
125,3575,2417,-2526,-833,-243,-125
126,-2652,26,-5699,-1614,-919,1981
127,-2595,609,-3679,155,-1616,86
128,-1519,-945,837,-1068,394,1378
129,-2403,7929,3383,-835,-881,398
130,-472,-2965,-4397,-459,423,-1814
131,36,6303,-3958,1519,-68,-514
132,425,-7945,-7017,-1422,701,206
133,7966,-119,-7038,1992,-776,-996
134,-1170,-7676,4023,-1475,184,-500
135,-2514,-369,-2801,774,-989,867
136,-6774,470,7396,-1920,-520,851
137,5452,5293,2548,157,-1066,-1790
138,-885,-2541,-2951,1145,1338,-950
139,-5544,-615,4048,1092,921,557
140,-6178,6239,-2507,1874,514,1991
141,-3964,-1957,1727,81,316,1818
142,6108,7908,5855,1386,1437,-1251
143,2526,70,-2120,1280,973,-1404
144,363,-6157,3975,1440,-1848,279
145,-5976,3405,-1630,628,-1940,16
146,-3695,-1914,2985,899,-166,-1747
147,-7359,7653,4091,1082,931,-1751
148,3403,6996,-2354,-383,-1083,-1388
149,-760,-2299,-4216,1432,1147,546
150,1901,359,-7297,-1253,-244,-468
151,3958,-4648,1614,-564,-1761,1661
152,6386,522,2453,163,-623,640
153,-5201,-5538,-4762,-10,-898,-1999
154,5992,-7683,-5145,1687,-1489,1679
155,6859,-6733,-2258,675,-626,-1127
156,-3427,3221,-7603,1167,1231,-1941
157,2428,-5804,-6037,1057,-1364,-65
158,4149,-1376,2134,1546,486,-1328
159,3566,-5271,6577,-327,821,465
160,2196,4452,6178,554,1745,15
161,-685,2460,-3216,1107,-589,-492
162,-692,-7798,-3554,-985,1884,-1610
163,7857,2470,-7469,-283,-625,1005
164,843,-6153,-5042,330,498,407
165,-493,-2929,-5625,1448,-639,1103
166,6520,1184,-5708,1548,640,-1941
167,-3332,3014,4307,1853,-537,141
168,4345,6464,5988,356,1861,823
169,-1353,-426,-6921,-214,-703,-1247
170,1052,4096,-7757,-1196,-1439,-553
171,7080,317,-1562,1620,-832,-1126
172,-6818,4829,-7680,315,824,-1042
173,-278,-6190,3466,543,1147,433
174,-5452,7690,-790,-1220,1485,1756
175,-4388,2077,-4216,-1606,1162,-1471
176,-3469,-6822,2037,-737,588,1654
177,-2618,5787,1292,456,-1029,85
178,4049,-5496,1833,606,1034,-108
179,-5525,4158,4144,195,1059,-1551
180,-4626,6072,-5672,-1966,1291,1867
181,-1410,4457,5195,-613,-1246,-458
182,7624,1516,5914,168,-1467,-1786
183,-5667,6680,6312,-210,-604,1576
184,6493,6797,-466,-309,-1203,-1186
185,3165,5804,6346,289,-1028,29
186,-5671,-5941,4483,-1264,-236,-251
187,264,7670,7591,1295,1719,-510
188,6870,-5610,7708,1075,-210,-240
189,4482,-3441,208,1730,1769,-1291
190,-6779,7797,-5477,1663,237,-776
191,6172,4371,-6162,-1678,744,-406
192,-7744,-6208,4986,843,473,255
193,2989,3407,-7312,-1048,1551,-1512
194,7074,6113,-6161,-911,1183,-199
195,-4254,7671,-2943,-969,-857,950
196,1900,-1277,7002,-1169,-52,-1549
197,1637,-3499,2879,252,-1848,805
198,1546,-4514,1035,-7,1149,-580
199,-3341,4319,2571,634,892,1151
200,-7435,125,-7475,-1740,204,124
201,-5069,1407,-7359,1905,-1056,1793
202,1183,4118,-575,1772,1531,-978
203,-2619,4581,7824,-336,-684,-71
204,-2858,-1163,-7342,-246,-1331,1437
205,6954,630,-7674,-797,1259,-1436
206,5252,7949,4690,-732,-462,358
207,-4068,5197,5486,-115,-786,896
208,577,3973,-6688,-1207,323,22
209,-6415,-782,-537,-459,580,-238
210,3101,-3449,6465,-1682,-1580,1552
211,-1744,-3140,1174,-796,-1092,1349
212,-1100,-6398,-7862,-88,-987,1651
213,2011,6508,-2901,486,1816,1702
214,6693,-3309,-6694,456,45,-1436
215,2413,-4197,-2654,-398,798,1336
216,-1195,856,-7483,1186,152,86
217,-4569,3606,3567,-1987,-52,-588
218,2251,4032,-1010,1053,-263,-612
219,6851,-7273,-3473,9,-1653,-361
220,6149,-6749,4448,1697,1704,-1153
221,-212,-3058,-4994,775,968,440
222,-52,5007,-7186,665,1741,-1028
223,1905,979,7354,284,-960,-1801
224,1758,6183,4367,-1464,-1788,752
225,3854,1366,6022,-1030,330,-1498
226,-3087,-5476,2510,898,-1983,279
227,7055,7476,-6418,103,-926,-1584
228,-4090,-4977,7797,-699,831,1555
229,5855,601,7686,674,-122,637
230,2099,4581,6976,-759,-1672,-507
231,-3232,4544,-3880,491,-571,457
232,-3087,-172,-7032,-1202,-1329,-1008
233,316,-6944,-2831,1160,1754,-1624
234,-3316,-198,7050,-1831,1366,97
235,-4648,-7611,1833,-1553,-373,205
236,-2695,-7524,5000,-1528,1345,-215
237,-354,-6883,-1922,573,531,1966
238,906,7782,-5058,340,-610,-1495
239,5930,467,-5229,-184,1726,1901
240,2455,1402,4822,-102,355,1611
241,-4054,4181,-2042,285,1395,489
242,-3044,-6259,-1346,-1250,-370,1593
243,-7913,-7590,1461,-1494,288,342
244,630,4897,-4490,-804,1176,-639
245,7349,-7764,-3082,-180,483,1566
246,-1826,4692,3547,228,-644,-824
247,-3845,-2870,7714,-577,-277,646
248,2399,-5459,4593,1998,-214,881
249,31,5147,4753,1544,924,754
250,709,3150,-423,1900,1782,1359
251,-5123,-4520,4384,-443,-1909,-1906
252,-345,-5542,-5335,1517,581,1144
253,7202,5640,5242,-392,-1423,-1164
254,1621,-1507,-5262,-1082,-1564,39
255,-1444,-2388,-3073,481,1612,-1172
256,-2725,5229,1663,1021,-1772,-1820
257,-6230,7637,7194,-762,-1428,-564
258,-2508,-1576,-5970,-360,441,1865
259,2994,-3918,-1689,-295,-1181,-1428
260,-2602,-6495,968,238,-127,1549
261,2167,2251,6356,-1617,-529,451
262,-4969,-133,-5680,519,510,96
263,-2238,-5506,5505,-981,-614,-1669
264,6732,2528,-3476,-395,-646,-76
265,-6053,-7628,7211,291,-576,-1600
266,3291,4291,-4441,13,-1915,-545
267,7055,4437,2418,771,-150,-674
268,-593,1694,3341,903,1322,-583
269,-7326,1962,-7271,-873,-985,-1361
270,-706,-7070,-4322,630,-666,-1674
271,3404,-5405,5332,-208,-1849,183
272,-2350,-5706,-1622,1799,1224,-1508
273,6865,-583,6771,-770,205,-973
274,4671,4514,-3814,-1934,-655,-238
275,1314,-4085,-3801,-1598,430,-1938
276,-3453,4464,751,1695,-165,974
277,2690,2483,-6111,30,-443,-27
278,6460,731,584,1085,1164,-90
279,-526,237,-5403,-1332,-1194,-167
280,2988,2370,1835,-79,-336,608
281,-860,3087,-2650,-900,124,-468
282,-2236,-3691,-5523,-158,1035,-800
283,6878,3527,4445,924,157,-1530
284,5762,-2675,605,-605,-1944,1601
285,2748,-7142,1552,1301,-148,-1017
286,-1317,-3573,-7143,1825,420,55
287,-5293,6272,-4108,-504,615,218
288,-7168,-7040,-7173,-977,436,427
289,-7654,3967,5983,699,-722,-425
290,5949,3853,-792,-1408,762,1006
291,2353,-1980,-6913,1841,1653,945
292,1834,6071,-3291,352,-1285,-603
293,-7910,-4180,-6320,-1839,65,-1152
294,-4095,362,230,1104,875,-790
295,-5049,6633,3214,-103,-507,384
296,2437,6137,-908,1269,1789,1536
297,-3834,-5053,-6678,1487,-1877,1691
298,302,7450,-7004,-1931,413,-1433
299,-2147,-987,6735,-1989,-142,612
300,-1499,-5510,6573,-439,-1335,1856
301,1095,-1016,-4160,1059,1802,-161
302,-5367,-3369,-5151,-436,-1312,496
303,-2681,3432,1162,436,1849,-1448
304,-6553,2350,-4720,444,174,64
305,7830,-3114,2552,1004,94,-1100
306,2053,1775,-7739,-421,1947,-1439
307,5069,3385,-5392,-820,-1569,611
308,3438,3804,-7967,-1272,1108,1059
309,-2354,5102,5758,1459,-961,-1720
310,5818,-3333,-5461,517,198,-865
311,1607,5776,-5730,1218,-935,-603
312,-3180,-7879,6989,-80,993,-1937
313,384,2375,1847,-1951,-1646,-1907
314,632,-2391,2007,1663,-1580,-142
315,-5423,-3067,-3840,-628,-599,981
316,5941,2567,991,-925,333,1456
317,-7116,6432,5703,-572,1884,-1571
318,5267,-413,-5505,1630,-315,-1125
319,952,-1985,1209,-61,325,778
320,3303,-751,5832,820,-926,1935
321,7851,7811,2906,1739,1801,-1422
322,1756,6789,7472,608,-1869,1328
323,-799,158,4353,390,536,1636
324,-3068,-4784,5159,-56,-1728,114
325,-3130,775,-2551,-1597,-1228,-141
326,7497,4512,4308,-1829,-1601,20
327,27,-3476,-167,1499,-1638,-543
328,-4763,-1985,-4842,858,892,-258
329,671,989,4247,-1339,-1073,563
330,610,-3051,6333,-197,1794,-1291
331,1606,-2438,-2386,888,1776,1616
332,2244,5946,-308,1491,1777,71
333,811,-7773,641,-1885,166,-1629
334,927,7311,-5750,1468,149,-1670
335,-1131,-7042,-678,147,309,106
336,273,2974,6275,-373,-733,-423
337,1856,3653,-223,-639,-1755,-109
338,-1244,-340,393,-1462,-1174,-1775
339,3665,-460,-341,1090,-131,325
340,7740,2795,-2374,-86,-776,-721
341,648,-7627,4911,-57,1513,1071
342,1365,-2763,-175,1888,-52,931
343,2130,-5658,7386,604,-1175,-40
344,625,-2092,-6816,636,575,320
345,2450,305,6945,362,1281,132
346,-2288,3739,6122,-302,1792,767
347,-1958,-3910,-5707,-25,-721,514
348,5317,6334,-6516,-1584,1392,334
349,7834,2238,-7550,56,-421,1491
350,-984,-2576,6519,796,-601,-983
351,1818,-2405,-1300,-1043,-1100,66
352,5482,-2525,1262,-414,572,1454
353,-1556,7447,-2875,379,-919,1513
354,-3685,-5561,-3365,1703,-504,-436
355,-4181,554,-1290,687,-472,868
356,-778,-3711,1999,-982,864,-236
357,-6620,2588,-379,-1783,528,-1026
358,-6567,2069,-6914,1858,-1935,-1444
359,-4278,-6259,1503,651,-117,-1692
360,2185,299,1232,851,1453,-937
361,1102,-7412,-3145,-765,273,-1408
362,-1935,-2408,-2499,1005,826,-109
363,-4343,1905,-6465,1915,366,914
364,1330,5783,6442,-803,781,-159
365,4562,5945,-2276,-262,39,-1421
366,1731,2767,-1737,-1991,-491,748
367,-2000,916,-2224,-106,-1774,752
368,6741,-3467,4952,755,1908,-627
369,5612,5229,-1266,803,1210,-1857
370,-2208,334,6915,90,1229,1581
371,-7973,6853,4089,1333,-1542,-1860
372,7145,6081,-120,-82,101,-1187
373,2988,6976,4622,112,188,-388
374,-520,-7897,890,1847,756,1324
375,200,664,-4353,1373,-1150,374
376,-6349,3163,-2526,-1882,-1893,-755
377,-652,-6506,4747,-747,126,-1527
378,3823,-5985,-552,-1738,152,-263
379,-830,4270,233,595,1510,-1526
380,4949,3950,-3829,-863,656,-341
381,3700,5246,-5,-1371,-1355,164
382,6627,2970,2625,232,-1390,1279
383,5384,-1234,3723,1644,1162,599
384,5022,-2786,-5182,-694,-977,-33
385,-979,556,7497,1226,1291,123
386,4133,-6284,-4192,1324,-154,-257
387,7506,3799,-2258,-264,382,1963
388,5590,-3767,-728,1937,-863,1194
389,3702,-7356,5521,1283,950,507
390,2586,-1252,-6417,-194,-1378,-576
391,1280,2507,67,1323,1282,246
392,-5572,-5295,5738,1252,-702,-264
393,-546,-4842,-737,156,437,9
394,1434,641,-7902,810,-993,-738
395,-6560,-4678,7501,-424,-1329,-1503
396,7610,-5657,7450,-1216,1538,240
397,3794,-3941,529,342,16,1563
398,653,7247,-129,1707,-1898,1309
399,-7650,-6199,5041,855,1123,-1728
400,-2135,731,6264,690,1373,260
401,1462,572,-991,1996,1387,-505
402,-6962,-1638,-2061,-727,-1768,1321
403,-7048,-2529,-54,1024,1308,1486
404,6836,5143,3525,-672,713,-933
405,-515,-6384,-1757,768,372,4
406,-1303,7299,-863,1497,1503,271
407,-913,1315,7413,-1503,-333,913
408,7743,-2373,3081,-810,-1638,-201
409,3851,1489,1483,-614,-561,1221
410,3865,-3876,-7730,48,799,-756
411,-1942,6628,-3538,1617,61,-881
412,-3513,1039,5558,-966,-532,525
413,326,2280,1414,1934,-1579,-1079
414,3621,1538,-312,1772,805,-951
415,-2574,840,-4171,362,1723,-1453
416,-3658,1630,3644,-1371,1838,1252
417,-5910,2198,4415,-1370,-876,-744
418,6061,4962,1539,759,527,-645
419,-2770,7170,6838,1787,1571,870
420,7768,97,-542,-1231,-1650,1830
421,-5341,-5101,7982,1444,329,1792
422,-177,-7460,-7832,181,-123,-1413
423,-4236,-2830,855,1486,1071,-966
424,7364,3479,-6459,-1636,-954,79
425,2883,-895,-7326,1978,-1337,902
426,-6660,-5613,4917,-795,-1481,1643
427,5312,-6737,-1180,1777,-1326,452
428,-384,-3130,-622,1680,1118,1462
429,4820,7332,7737,-663,-1213,173
430,-5478,3493,-1983,-311,223,-965
431,6451,7987,-3944,-334,683,192
432,-7382,-5479,2638,531,-1668,-1448
433,4805,461,5560,-1426,-1907,-575
434,-3841,-3401,-4490,1789,-1653,-1012
435,4059,6064,-465,129,75,-624
436,4654,1134,100,1091,295,1703
437,7414,5705,-385,-1125,1031,-959
438,3362,3657,5818,-790,-1645,-1846
439,-2467,1907,910,581,-1266,-290
440,-3416,-6488,-1004,-1058,1414,-40
441,-4136,7100,-7063,-1884,-512,1321
442,6480,-7711,-5295,-389,-1754,1299
443,7298,-1470,-6983,-1636,-236,808
444,-6071,-5257,5954,86,1606,-1667
445,-2834,-3773,-4555,-1494,1923,1474
446,-7988,-5112,7141,1512,1777,1801
447,-1613,-5188,-4791,-1765,827,1014
448,-5534,6682,353,-1853,-447,154
449,1750,-2823,5201,-95,-1417,639
450,4770,4266,-3033,-803,1273,688
451,-4785,6542,5772,1235,-879,1508
452,-6362,7985,5893,370,987,1483
453,-2532,-4884,-113,1026,-570,1346
454,-6069,251,-5253,-614,-1415,504
455,-2624,5875,-4109,-1764,1902,1384
456,-6225,916,-2437,1169,1492,1261
457,-3,-685,-3,1267,-1235,-1074
458,-7071,1127,1351,1342,-310,-1988
459,6661,7816,2307,1438,1238,1301
460,-6890,6040,-2212,-1573,-621,-1882
461,-4317,6122,-5129,517,-486,-1288
462,-5173,2278,-6813,1295,-1073,555
463,-5350,-6054,2118,1965,1403,1329
464,7868,530,2842,785,-1923,198
465,-4900,6215,4009,-171,1193,556
466,-4539,-2776,-1197,961,483,1667
467,-37,6327,-2465,-942,967,-1505
468,-4230,-4424,-1578,1482,879,627
469,802,-42,5722,-1098,889,-404
470,-3844,-5186,-1129,1813,1024,-282
471,763,7983,2478,1713,184,-716
472,4124,5304,-2642,1463,773,191
473,3940,3448,3545,420,1413,-1044
474,-1248,6193,4688,905,826,-1072
475,-7092,645,1129,-1560,1693,1631
476,917,4872,-277,1853,-1350,-187
477,-5435,1310,-2713,-609,-194,-1817
478,-1962,4473,5748,-783,519,-1318
479,506,-2207,3064,275,1362,-1780
480,-395,5334,-1787,-1604,14,731
481,-2564,4245,-6705,1339,1503,620
482,-3767,-6626,-686,-1804,-907,-1638
483,462,2488,2157,227,-201,1556
484,-2945,-2550,3963,501,224,1129
485,357,3333,-2099,1242,77,-639
486,-1175,-5221,415,-550,495,-656
487,3100,-5331,5319,-1601,536,1075
488,-7928,2881,-5172,648,1062,157
489,-4415,-2392,-2062,-1077,1228,563
490,-2397,2915,-4891,-1324,120,-529
491,-3915,-2384,-3613,1357,1534,1987
492,3614,6619,1487,-1490,-979,103
493,549,791,5003,-419,1003,-1027
494,-4391,-4474,-533,1557,-782,-1878
495,-2825,938,4460,587,-765,-1590
496,4927,5079,3594,-1875,-875,-173
497,1097,3449,-2684,1310,-20,-309
498,-7723,-2290,-745,-442,397,542
499,-1504,-7109,-3974,395,-1692,125
500,2715,7664,5485,1607,-1438,962
501,4060,-3015,-2037,252,961,-1797
502,-4247,-7201,-3142,1218,-1881,1712
503,-6227,-7670,3699,1644,-1632,-126
504,-2029,-1004,-6847,1194,1583,-937
505,1924,7458,-3713,919,766,167
506,-2238,3493,4326,1163,596,-129
507,-6109,2678,3687,-1298,-1057,1972
508,7619,-6260,-616,862,-838,1214
509,4072,3955,-5530,-103,402,474
510,6089,7497,-7221,-358,187,-1193
511,-5988,-5344,5889,-1054,-637,1541
512,1910,-7912,-4206,1077,659,1421
513,829,4704,5506,1802,665,-160
514,5152,-1779,-4148,-410,917,766
515,5591,-317,-4956,1651,1025,577
516,3019,-2534,-5728,-1123,-1550,-933
517,1851,-1089,5278,1689,455,-1739
518,2627,5558,-829,707,-448,-246
519,5585,455,-3777,958,-156,-1752
520,-1393,329,4712,762,1574,-1884
521,-3763,2024,120,1026,-593,-816
522,-5225,4811,5189,1868,1782,-1364
523,7177,1680,2049,-600,1379,822
524,4947,4330,-4933,-118,-1838,-365
525,773,1739,-958,-1374,803,-307
526,-3996,4776,-716,914,-1075,-1920
527,2195,-2390,-6882,1892,-598,1088
528,-4237,4888,-3547,1332,-352,-1019
529,2850,-2072,1889,-1135,1787,59
530,4532,3555,-190,-1074,1707,1524
531,1983,-7694,-26,1122,1829,-1884
532,-5754,-7460,-2769,72,371,-255
533,3227,-7577,-2062,284,1956,906
534,-2268,1719,4988,832,1957,1504
535,3161,-189,-2437,1387,-1434,-1275
536,-7779,-890,5556,-1469,645,-952
537,-4482,4816,-1997,1055,789,-749
538,7791,-7706,12,-1511,1191,589
539,-1251,3005,-5305,98,-1686,-350
540,2413,-7107,-6483,-427,371,1606
541,2017,-961,4137,1566,533,-123
542,-4075,5396,5749,1335,-1006,1463
543,6206,3193,-7085,1204,-43,1758
544,-5223,1179,-7043,-75,843,-1687
545,-4295,3420,-3918,1911,-1654,1628
546,-1995,3664,-992,-97,-1827,-1861
547,-2190,-263,-5698,-206,-33,303
548,-4330,-7160,7739,921,259,-511
549,-6043,-5336,-2205,-1379,-468,-1359
550,-3959,-2439,3831,-1191,-1587,-1377
551,7586,5053,7202,-1100,208,140
552,-7035,-7760,-2100,1973,-601,787
553,-2743,266,790,-333,-549,244
554,-6697,2142,7512,-1049,-917,1766
555,394,-4450,-2453,-631,529,-326
556,4258,-2856,3181,616,-1479,-943
557,1012,-305,2826,63,911,-1065
558,-658,-5861,-5068,881,-288,494
559,5274,-5774,-5043,466,-1274,-1207
560,-4583,-6237,5283,-1870,1650,-152
561,5375,6263,-1948,1722,1014,-776
562,7646,5803,-825,-382,-350,-399
563,5581,2394,3010,-49,349,-1202
564,7165,2391,-6702,-742,614,1457
565,-6126,-5906,-5211,-347,1958,1614
566,-6628,2679,432,-1181,312,1580
567,-1162,6173,-5956,1985,1140,27
568,-1846,-7907,7265,1411,-246,329
569,6464,467,-7660,1479,1641,768
570,-3832,6957,7891,119,1457,428
571,-4656,2050,-1775,1731,1309,686
572,7711,7365,1955,42,-1266,99
573,1682,-3675,-5603,-290,-1571,1897
574,-1831,-6831,7507,-1858,-442,-1782
575,-6699,-6947,2276,1731,-241,395
576,-2301,-7504,-5546,71,-732,-1521
577,489,5040,-2132,209,1066,-905
578,7999,6842,2700,-135,-318,-1961
579,1360,-5211,-7968,-21,1330,-406
580,6985,-6814,1166,-201,453,1978
581,1982,7006,-6273,259,-984,-349
582,256,812,1200,-1013,-2,1426
583,-328,6265,-2890,-737,1154,492
584,4745,-4830,7394,-235,-626,903
585,2265,2141,-5444,1805,1689,1847
586,3686,3960,944,1587,-580,1804
587,1345,1471,-4396,-1059,-1290,-698
588,2306,1322,-7734,1123,-1939,1046
589,2854,-5982,7124,1541,-1131,345
590,2459,-1037,4687,1185,320,1134
591,3788,5298,-6386,-1650,-566,-933
592,4080,6799,-7627,-1270,-930,-136
593,-4399,54,-1777,-964,1195,314
594,-148,-3302,2803,1725,-373,1527
595,6840,3665,-493,-171,-891,-287
596,-1387,-7920,5644,-368,451,-468
597,-1889,5528,5613,-1494,138,-922
598,-1224,-7375,621,669,-378,-1475
599,646,-907,5527,-193,440,126
600,6521,2067,-225,960,571,1331
601,1671,7911,4679,-1007,44,-536
602,-6620,1315,1828,-532,578,-1587
603,-7043,-5071,-7620,-1429,718,156
604,-3360,-58,716,1106,-895,-1227
605,-7708,4556,3531,1896,319,-943
606,4719,2163,-6542,-531,1478,350
607,-5898,-7172,2516,1251,-389,1331
608,7593,780,5301,-228,-435,-1991
609,-12,5649,1964,-22,-797,-280
610,5343,5688,-6996,-306,-1115,-1320
611,-2048,-1313,1347,-855,1811,-577
612,-1000,-4969,3938,-1298,-1802,771
613,7904,-2441,1995,1472,489,450
614,1473,6100,3809,-1963,1073,70
615,7164,5984,-5410,456,-994,166
616,-6975,-6744,-3727,755,-894,36
617,467,568,-6134,1026,1456,-1976
618,7029,5584,283,-1402,145,1886
619,3300,-4016,373,-1207,-76,-1439
620,210,2639,6282,-1959,477,269
621,7137,-4419,7807,1520,-1522,-500
622,7289,-5967,185,112,24,274
623,5931,5806,-1542,-1735,17,-279
624,-4428,-5107,4918,1100,-1808,-35
625,-4796,109,2973,327,-694,-270
626,-3907,3870,-4400,-82,1801,1994
627,2457,-1276,-7089,1534,1171,-1406
628,3779,3195,-6766,1826,-1043,-1087
629,-4323,-1648,-1869,-1373,1741,851
630,3534,-2286,6367,-1007,290,748
631,-594,3484,4885,670,-888,-1319
632,1813,-5031,-6801,-60,-106,602
633,2342,-3707,-5359,-269,-1059,1691
634,3139,5436,361,670,-1715,-1263
635,-4510,2747,-2310,858,-586,-1271
636,-4891,821,-3488,-385,208,633
637,914,1351,-6073,-1609,1186,1886
638,4513,-2208,7215,-1691,415,-196
639,-4058,-5724,162,-1554,720,1194
640,-2044,3873,7048,1273,397,1141
641,-7700,-4912,2101,-410,-1679,223
642,2349,-5883,2914,-464,-1451,1910
643,-6707,-5666,5106,786,-1388,-645
644,4610,-7505,-4953,-1003,246,1095
645,1716,-2296,69,1682,458,234
646,-2320,-5693,7580,1285,1964,-1810
647,-1197,-3042,-2062,-1705,-141,1582
648,4015,2231,-5069,344,-533,1795
649,7048,-3364,2894,1888,1015,1988
650,2528,-1159,-2743,-525,-1979,1019
651,711,1891,3687,-1006,306,-1239
652,1990,5228,-7249,-117,838,-428
653,3597,3776,-367,-760,1874,-1655
654,-7362,-4455,5322,1310,1084,1899
655,2960,3725,-7577,1496,-733,1474
656,-3562,6895,7201,-343,-391,345
657,-495,-2272,-5919,1585,-1491,-1081
658,-4026,-6829,3320,-1751,1875,1876
659,5168,-3538,7523,1892,-1187,-376
660,5584,7028,-1283,-200,527,1668
661,-7578,-7867,2105,-374,-910,1575
662,958,-259,-1945,1490,-1676,902
663,-2781,-4351,-3462,-1442,1693,-1166
664,2147,-2701,6201,1503,-423,167
665,-6702,-523,7988,993,-1240,-793
666,-7363,4818,-255,-1036,-539,-1540
667,5577,7002,-498,-1830,1654,578
668,-4684,-5215,1377,337,-1322,1213
669,1063,-3781,-2194,1006,445,363
670,3946,2902,-1488,-812,-1166,1511
671,-3382,2322,-5770,1394,30,779
672,-2154,221,2328,569,160,1564
673,7730,-6709,1354,1566,873,-760
674,-1608,-1189,5873,-1842,-1968,1027
675,7559,6941,-5864,-455,-1453,987
676,7242,1347,-1235,-2000,-1401,-944
677,7677,-7380,2793,1876,-630,256
678,-1398,7770,-622,-1410,-291,-1487
679,-494,-5534,-6912,939,-1409,-1086
680,-4673,-7689,-4541,-1810,476,552
681,-2162,-4981,-1698,289,99,-375
682,1013,-3347,-1203,1471,136,1847
683,7152,2044,-1308,-414,-1994,-1963
684,372,5117,-5361,-141,-607,-573
685,1076,-186,-7581,-1289,-1711,705
686,396,-7021,-593,1058,-1533,457
687,-1440,1185,6365,-765,-1664,-592
688,-7927,-4000,-2381,790,-1363,-634
689,-1041,2543,-7956,1803,691,1758
690,-6199,6527,5857,1420,-1656,1327
691,-5091,-4657,-1248,1262,-979,-1886
692,6321,-2764,2626,266,-381,-620
693,5816,-465,-5656,-1714,-1579,1281
694,1778,-5126,326,-528,-379,1060
695,-3137,4925,3409,-723,-1345,1680
696,-6985,2272,-1736,-1926,-1578,-614
697,3464,-1821,-3568,-7,-1212,-1628
698,-7687,-3077,-2055,-786,-1120,1411
699,-3808,4214,-2468,130,1066,889
700,-7721,1962,7621,758,222,-278
701,1571,-3812,-2636,1218,689,1840
702,-5770,3604,-7073,593,1651,-1197
703,2872,893,-4944,-1642,-723,1773
704,3398,-4158,320,-1,1358,522
705,-5553,4272,-7392,1611,759,1286
706,2920,-2341,4298,-1443,-228,-1457
707,-4841,-4494,-3402,-1477,-803,1942
708,-6910,-2014,7646,1150,-400,-1978
709,-694,2587,-5735,-957,-5,-699
710,-4031,-3514,-2823,1576,262,113
711,1371,7194,5621,142,-1929,-1549
712,-1523,788,1190,837,-119,-752
713,-1405,6131,4027,1384,1077,-432
714,-621,2917,828,-745,-1571,-1552
715,-7780,-1148,-4390,-1433,-344,1196
716,670,82,-2300,839,1723,1849
717,-7890,-726,4504,840,-1382,-571
718,2456,-4351,2786,-1130,400,1429
719,1058,-965,7585,438,1353,526
720,-2838,-5414,3750,906,-1048,1003
721,-5444,4572,-2062,857,1654,-515
722,3480,490,2706,1645,807,-586
723,3744,-6462,-6333,838,-845,1161
724,-3064,2281,-4230,-1215,-758,1019
725,-4769,-2913,7321,-1766,1513,-1787
726,4892,3591,93,-1977,774,1780
727,7673,1309,-7126,-169,1606,1645
728,5091,5371,-487,1714,-181,1778
729,7314,3067,2287,-686,131,-1770
730,7171,1604,-4959,-1569,-1443,-1967
731,1531,-1708,2406,1633,-1184,1852
732,-968,3060,-5984,208,825,-915
733,6402,6102,2951,-571,-1353,-320
734,2200,5198,4522,-291,-1761,1351
735,3443,-4492,515,-671,-219,-293
736,2746,-1367,1794,-482,-995,-1643
737,-4018,-1582,-5899,1354,-804,-108
738,-1754,370,-5221,1936,1072,1880
739,1134,1483,-7490,-666,417,1447
740,-3372,101,5040,-664,1044,607
741,4850,-5185,-6434,827,1541,803
742,4448,2848,-4670,747,-1890,1366
743,-2658,-6572,1334,1347,-414,741
744,-3912,-3086,2602,31,-479,146
745,7642,-7685,2145,-1918,1119,-1290
746,2230,7683,-5536,74,-1898,738
747,481,-1159,2098,-110,-919,1265
748,547,-3087,-1820,-1255,-229,-42
749,-4555,257,5337,926,132,-219
750,-1378,1383,-2978,-1006,-217,478
751,-7571,-763,786,1011,699,217
752,3032,-5617,-1299,-1060,346,1289
753,4833,3860,-5748,500,1052,-1246
754,-4527,7185,1059,-339,271,-994
755,2129,3254,5357,-952,1352,921
756,1463,2726,-7195,1695,-522,407
757,-6981,-4125,-823,-204,1929,-889
758,5305,2251,5844,396,789,1740
759,2380,-3628,7622,-1744,-138,-818
760,-1060,4131,-616,-453,-175,-133
761,-1710,7745,6885,-1572,-570,-947
762,6834,4851,616,-1520,-937,-934
763,-2653,1591,7566,1888,-319,1371
764,4549,6190,2394,1876,-1636,-891
765,6859,426,-4679,-1230,-1708,1684
766,1294,-27,-2397,-303,465,133
767,1339,-5662,615,-956,-390,-1590
768,1995,-3025,3636,-468,-1396,1537
769,4653,-512,3679,-262,1902,1449
770,2989,-4137,-3119,-114,1153,1762
771,-5772,-5522,-6895,1605,-1870,-1973
772,-1810,-4132,2982,-1648,-771,-537
773,543,4150,7973,411,-1293,-1288
774,-216,7386,-2172,361,1949,-826
775,560,-4891,-6181,1105,442,773
776,7685,2103,-5602,1534,-1336,1961
777,-1617,7732,-4433,-595,-39,964
778,-5261,-2703,-4759,770,-773,-1927
779,3571,1717,-5466,533,-79,-1150
780,-5721,-7819,5,1335,725,-114
781,-2619,-2046,-5005,420,-815,-202
782,5135,-6336,-3187,1365,-1749,1768
783,537,-7167,-262,-781,-459,284
784,1808,2583,-3319,-1487,383,-280
785,-6181,4245,3720,-405,1037,-225
786,-2065,7303,-5742,-220,128,-1450
787,-5659,6971,1381,-1606,-474,-1437
788,-2463,-5732,2378,-1828,-827,1980
789,-5198,-4637,-6506,-1786,67,754
790,-3430,1800,3140,-227,-266,1943
791,4550,419,6628,-1858,1411,-1997
792,-7343,1620,-205,-800,-1863,-12
793,2087,183,1878,-1970,-1346,-307
794,808,-6585,-612,-1203,82,-618
795,-3269,-3798,4432,-936,-1576,-95
796,-5930,3287,-1026,1046,1769,1845
797,-2998,-7213,4608,-1247,-1268,1528
798,5551,2885,-7020,672,-130,723
799,109,-6106,-4758,-1668,836,1225
800,-3794,1660,4286,596,396,-1935
801,5735,6629,5345,-1104,387,-718
802,1046,-5009,6254,-1718,-146,-1013
803,6648,1802,4676,1339,91,5
804,-7073,3569,-5945,-939,286,-1608
805,-1560,4675,6603,1091,648,902
806,-6281,-6022,-1041,1104,1702,-1138
807,-6629,-2063,-3364,1813,-27,1188
808,-3973,-5591,-5912,1824,-568,1953
809,-3658,-813,-2882,-1021,-1110,-1042
810,7770,-2756,6570,-1910,116,-1783
811,-146,-2418,6073,-1330,1246,-1790
812,-2408,5360,-1102,-1639,-117,-1323
813,-6169,1882,5521,-195,-1468,1103
814,5097,36,-5840,1970,-634,879
815,2864,4458,4098,1541,1043,-1386
816,-7217,-4348,2184,1957,-1667,1357
817,-5585,-1334,-340,1874,1173,-862
818,-4055,-7505,-1308,1989,-789,-1027
819,-3506,3420,1113,1873,-302,-551
820,7550,-6865,-786,440,360,121
821,-3085,-3818,7138,352,-1437,1602
822,-6361,6784,-2367,11,-1632,-1252
823,-5426,2375,1053,-1165,-1863,1431
824,1182,-7041,-4815,-1466,-1203,1536
825,-1498,2539,-556,-1397,435,-982
826,998,3419,-6779,415,-573,-1699
827,-50,412,3350,-1036,-388,1757
828,-4562,-6387,-5256,-1858,1694,-723
829,-6166,5425,-4904,-1688,-1240,1236
830,880,-2640,-4517,1542,884,-771
831,7796,-4427,-2711,362,604,-1567
832,-3732,1403,-3965,-1963,1440,638
833,-3935,4110,-4173,-1627,610,-706
834,5402,4823,-5890,-371,959,647
835,-7701,5388,3781,1096,1576,1246
836,-3325,6329,6375,-1144,576,1465
837,-5423,-6609,6037,187,-1509,1158
838,-4377,-18,-5399,-1127,1090,-1022
839,1844,16,-2540,-307,-12,96
840,-1330,-428,-351,1460,-503,-1666
841,-3482,-3966,-637,627,-1150,-1236
842,3627,195,6020,726,-1330,1764
843,-6116,3878,-3302,1297,940,-1066
844,-6053,4110,5814,-353,-774,-1287
845,1112,1427,536,-849,-1182,376
846,-5477,2157,1325,-1523,-595,61
847,5773,568,-1918,-1444,822,153
848,-2321,-7485,-6818,-80,1499,-356
849,2420,7725,-4890,313,-818,768
850,-7063,5943,1400,1219,-1138,816
851,-6437,-1714,1891,-150,-322,-1074
852,-386,-7166,2191,1029,-1939,646
853,2157,1956,2453,562,-592,-1852
854,4203,6747,4456,980,-282,1037
855,5967,-1483,-6117,-6,705,-1811
856,1513,6298,-7627,-1383,-18,-884
857,-530,868,-2332,785,859,-376
858,-7141,1970,3784,-3,1831,-1808
859,-6193,-3097,4883,-1536,-718,1130
860,-1906,3906,6749,-709,1535,1941
861,-7146,70,-1102,1528,1419,519
862,-1303,3087,3530,1047,-421,-1353
863,3650,-1668,5037,-76,1722,-501
864,-3796,-3705,4769,-1861,-1,-1050
865,3585,-7747,-4765,905,-1941,600
866,4751,5910,5329,-332,1980,-1660
867,7810,698,-605,-1012,-1438,1452
868,806,6342,1667,-1475,803,1954
869,1512,3850,-5040,-1138,805,846
870,-6613,-301,7254,-1624,-483,1526
871,-1504,-6291,4467,-221,-288,-1861
872,-47,500,-1943,-1623,1180,-1824
873,-5157,2157,2215,1789,-27,-1532
874,2103,5292,3744,916,816,609
875,-4002,-1663,3570,-846,1258,1300
876,3690,3611,619,1076,-1802,-1389
877,-2505,7675,-5530,-1396,-1702,1409
878,-7064,-6376,-6971,-316,-358,1774
879,4666,-7487,2083,-554,1101,-1071
880,6650,-5945,5524,697,-389,1007
881,-821,7267,18,-1199,1439,-28
882,5780,562,-4352,959,-1043,89
883,-7665,-4822,-3548,-956,-1969,-544
884,-4290,-2778,-7203,1163,-629,1826
885,-5577,935,1133,1179,1367,1193
886,-2715,6192,4665,-764,164,455
887,-1795,1352,-2905,-1089,484,1454
888,-3251,-4908,6284,-1810,1359,1416
889,2361,-1162,-6222,-230,-1396,597
890,-4167,-2763,-5885,1706,1642,256
891,-1563,-4815,917,-1496,-1585,-1733
892,-2141,7821,-2397,1590,-1743,-1646
893,3705,432,4766,356,721,698
894,-2879,1655,-3788,1336,1831,348
895,-251,1756,1179,-1291,-605,-1403
896,-1820,-198,-2375,428,1472,512
897,7136,-2973,4596,-377,1318,190
898,-82,3555,-5792,1643,1148,-791
899,-1338,-909,5183,1435,-154,-1063
900,-5595,-1909,1363,-640,44,-517
901,-3165,-2831,-7689,-1826,-1262,-568
902,-5308,-1791,653,-1518,1388,1012
903,3073,-1181,-4807,1963,1645,1665
904,-6303,1037,-342,-1200,-341,884
905,7335,-4797,-4939,-624,1014,-463
906,-4877,-4137,-3483,-665,-1916,803
907,3939,-2595,7696,-554,1228,-53
908,-7671,-7060,3218,890,1018,393
909,-435,2825,5835,881,580,-471
910,-4936,-4320,-4895,-1878,-874,-1077
911,6938,4109,376,-1004,818,-700
912,3184,-211,1794,-1614,-1226,-704
913,2079,1695,-1278,302,1744,-1791
914,3588,-3220,-857,692,770,-897
915,-6803,6761,5739,261,-410,1758
916,-7713,3596,-6789,1614,273,-152
917,514,682,7128,-1565,-1210,186
918,-7842,-2034,661,758,1061,35
919,-3349,804,99,-1549,779,922
920,-4291,60,3833,70,-1385,325
921,2083,-2395,3284,-1908,1638,976
922,2462,-3975,-2530,337,1364,1752
923,1693,7583,4830,289,-1398,1117
924,3513,270,-5150,-965,1304,-1919
925,-5799,3166,2235,1833,-231,1248
926,3338,-6732,-173,-184,-719,-628
927,1548,-6139,4147,-555,1280,648
928,-4887,-3459,-6307,-1887,215,578
929,4934,2212,194,1735,-1892,-1180
930,-3803,1737,5928,-987,-1114,-127
931,-5532,4940,5876,1438,154,1132
932,-3007,-1989,-3750,-841,1801,57
933,3740,1994,4380,640,-1756,-1096
934,-3824,4695,-3848,478,1192,-277
935,-4401,2048,3688,-963,-1727,1856
936,-3236,-2911,7015,-112,-1450,-289
937,6680,6943,1540,1264,-432,205
938,7882,72,-6737,1083,-1085,386
939,6753,5249,7863,1740,-148,-694
940,-1492,-5317,2102,1382,-479,-1547
941,-1107,1166,-4123,-1040,1058,-1101
942,-3683,186,6476,-799,766,1541
943,-461,6015,3566,420,1858,-765
944,-5634,1592,6108,942,484,483
945,3503,-7064,-1341,-929,-996,1440
946,3545,7975,-153,602,-820,-336
947,1577,3668,1055,168,-750,-1169
948,1000,-2849,2376,-1944,1316,1599
949,3611,1957,125,93,-773,-473
950,-7945,978,7965,-1830,71,-217
951,-3414,-5666,2041,598,1110,-727
952,-7095,-6420,-7528,-1319,-1758,-1351
953,201,2434,-1595,810,1223,-1130
954,7395,-8000,-7079,1922,-489,-551
955,-2201,126,3890,1034,892,-1934
956,1143,-5295,-1090,-716,1819,-1729
957,-4302,6509,-1355,-849,-1226,1717
958,3938,-4789,7606,-818,-1623,-1800
959,889,444,-920,1420,-174,1414
960,6645,496,3489,792,50,1674
961,-6262,-5358,6603,43,649,832
962,7164,-4443,-2461,1998,1894,432
963,-891,7549,-4649,-1624,1493,-918
964,2850,-4903,-1534,884,487,61
965,2429,2716,7029,1516,1585,-1347
966,-3,-2609,3917,648,1607,-599
967,5852,-7581,-264,497,1459,-1175
968,-5169,2186,2487,-1453,219,-1241
969,4975,1235,-6520,-1827,-1945,1483
970,4836,-1881,199,435,-102,1010
971,-4362,1237,2280,-258,1894,320
972,-487,-7110,-720,-93,1225,-460
973,5024,6170,565,-222,-1016,-162
974,1542,-4864,-5491,-795,366,917
975,-6459,-364,-3650,-160,-558,-692
976,5574,-964,-5274,342,474,-60
977,2004,-1686,-2508,510,-422,-1101
978,-6689,-3533,2998,-390,1392,1492
979,7601,5879,3271,-1281,-1284,-623
980,-2910,-901,5245,17,-1915,-1052
981,-7009,-836,-6097,819,1534,-154
982,6272,377,3328,-1907,-1416,364
983,150,-6580,-3039,-1991,-830,-864
984,-2753,5072,7525,1251,311,855
985,476,-5790,7461,179,1025,-944
986,5549,853,3075,750,-1663,1485
987,-5859,5574,-5253,1152,662,-1049
988,2123,-1130,-6273,-1364,1990,-1395
989,-7315,-4576,2295,292,-1892,1436
990,5927,2845,0,618,1766,-724
991,3428,-2157,1413,-970,14,571
992,3134,-5534,735,407,-1639,122
993,5806,-4077,-4862,-970,-6,-1321
994,6540,-6504,4553,1506,1314,-38
995,3539,1609,-7545,510,1563,-82
996,3165,-7173,6216,321,-1832,463
997,2915,-6983,1978,-764,-704,-711
998,-7900,-5000,-4096,-190,-1197,1542
999,6206,5654,-7381,896,1292,-383
1000,644,-7906,3393,-298,-739,547
1001,5150,-7824,-1548,1508,-1575,1309
1002,-3760,1139,-7622,-1049,1566,1783
1003,-2748,-531,-6068,-832,-1728,-1059
1004,-3997,-4114,-5800,1157,1190,-166
1005,4469,4268,-4459,697,558,1176
1006,3382,-5517,-5920,608,-1556,-397
1007,2416,1376,2395,255,956,1251
1008,-279,6552,119,-437,1489,1879
1009,-7824,-4047,6304,-1264,-1257,-374
1010,-4957,2373,-955,1917,1510,1512
1011,-4018,878,-6517,-1348,-1332,-376
1012,-5530,-7366,-3205,480,-9,1503
1013,3876,-5219,-6409,-1663,1897,-1376
1014,-5471,-2085,1538,-541,-1774,-1997
1015,2050,44,5799,510,-332,-1358
1016,3689,7634,-6371,-1235,1929,1757
1017,-413,5612,-1012,-616,1843,-650
1018,-6396,1721,3657,1076,747,-1980
1019,6544,6183,2982,-860,-666,499
1020,4912,-6682,-7205,-923,407,342
1021,2431,4645,-7524,-89,1676,-1685
1022,7383,-3688,4080,894,-203,-1965
1023,-5720,-6111,4234,271,467,43
1024,7156,-351,-2451,-425,961,-1189
1025,-3241,480,-1194,1506,-839,-1416
1026,-3173,-671,-5052,1363,1056,-1047
1027,3782,5925,1638,-1167,1720,-1355
1028,-5387,2474,-1092,542,263,1511
1029,-3418,6239,-6340,1716,-91,-759
1030,-4508,7642,-4712,-147,1195,1377
1031,5552,-7507,-982,1726,-1257,844
1032,-5924,-2304,-6921,901,1264,416
1033,458,2437,7693,1788,1005,867
1034,2124,-2335,-1557,-76,214,1366
1035,-4789,2712,-7349,-112,-1024,144
1036,4330,2965,7911,1301,470,290
1037,5280,-3972,-3053,1922,-943,1322
1038,-6753,5943,-1343,1834,1032,831
1039,2762,2714,1926,-1065,1251,-548
1040,1374,7519,2841,431,-1187,-58
1041,7131,-2604,-2445,-1120,937,-1495
1042,7697,-93,2763,160,655,71
1043,4082,-6275,1190,-595,-796,-50
1044,4788,-7436,-703,-955,-177,913
1045,1705,-825,-6740,-823,1776,-306
1046,4042,-4189,-2871,692,1590,-876
1047,-3759,6910,-2553,-456,-1227,1471
1048,-926,-6479,-4478,1733,1018,-1860
1049,-2444,-3427,-1374,-525,-1820,3
1050,-190,3744,-5597,1745,469,-1830
1051,-5506,-1935,6439,302,173,-835
1052,-4132,-3312,-3004,42,-1573,-1228
1053,3770,492,-6295,-834,1979,-161
1054,-2966,6530,-4836,471,-406,275
1055,1659,-896,-3562,498,625,60
1056,4245,5304,3653,-128,103,-1886
1057,418,7927,-7462,893,1028,1358
1058,6076,6968,4009,-1887,-1403,1743
1059,3896,3916,-3150,1616,-1873,-417
1060,6117,-5608,1500,-632,-1310,-63
1061,-7455,-913,3117,-68,-193,-948
1062,-1945,3280,-641,-1547,1926,369
1063,-3262,3725,-117,-1681,-820,-326
1064,3595,-6632,2141,-248,602,-938
1065,-3875,6749,-2277,565,444,858
1066,-3323,2504,4543,610,-1288,1985
1067,112,-1308,-4319,-379,-429,-473
1068,-7321,-7709,7434,460,-1792,110
1069,990,-3379,4768,1681,782,-1674
1070,-5355,3184,6293,-1410,477,-1595
1071,-4213,3259,-1323,-698,749,1339
1072,-1252,-3848,-3978,148,775,201
1073,-4248,-1984,7831,57,-1284,-721
1074,5648,1536,-3218,287,-1215,886
1075,-1963,-6012,3301,-1623,-1256,-1565
1076,-70,-5342,983,-974,-709,-1222
1077,2830,958,501,215,743,607
1078,-2802,-2114,456,1114,-52,-1535
1079,-6304,-4767,-7270,831,1238,500
1080,7990,-5705,904,1503,-844,-64
1081,-5695,5066,-7300,-800,-164,-413
1082,-6884,5522,7287,-330,-1579,-556
1083,66,-5638,605,953,1669,-99
1084,279,-104,-4280,594,-1040,-649
1085,2663,-2001,1444,697,-55,-408
1086,-6678,233,2682,-1319,812,1901
1087,2666,1979,-1948,-1212,-1722,1048
1088,-4899,6784,-2037,-1026,-1492,-168
1089,7041,-7699,-2741,869,669,-1850
1090,750,5184,-5809,-326,498,-571
1091,-2559,2818,4854,1374,-450,1245
1092,6281,-7748,1600,506,-202,-842
1093,-1493,4959,-4240,921,-1289,129
1094,-1586,6248,1879,894,-252,-1028
1095,690,-7890,4227,-1380,-125,-1505
1096,6595,-2443,5922,-413,33,-615
1097,-7256,6644,-7005,-846,-179,-438
1098,-5755,-7983,3601,1906,858,-587
1099,7932,5240,-4300,1416,-562,684
1100,5403,-2703,-3510,-979,-114,-358
1101,-6556,-6607,-365,-713,-596,-899
1102,-4452,-5549,5365,435,421,-1725
1103,-2710,7766,-653,68,-1143,-168
1104,61,-6785,-3664,-1966,844,582
1105,-7188,5586,-4479,1181,32,-386
1106,5851,-4611,-7088,1746,1101,-307
1107,-190,1290,2176,19,-1224,617
1108,3043,-5774,-5204,1374,57,-805
1109,-7962,-6964,-1044,-727,1033,-485
1110,-3705,-6113,-1298,1838,-1179,1046
1111,6125,1967,-225,-1076,1347,-1632
1112,-1872,4543,3350,731,-778,-926
1113,2162,3565,-6670,1537,1309,979
1114,-4745,2497,-1244,1812,639,-686
1115,-2872,5413,899,666,-1622,529
1116,-4083,1445,-2301,1815,649,822
1117,-6711,6560,6582,223,917,-1135
1118,4336,7345,3106,1907,1404,-977
1119,-2240,501,2450,66,-945,-79
1120,5800,-2996,1485,1336,234,1060
1121,-648,7882,-7104,-270,1788,898
1122,-7606,4895,-4923,1905,104,916
1123,-2445,-1718,2430,612,1232,-170
1124,-7216,4823,-6441,1054,286,-396
1125,-3856,7862,5635,366,-1407,1243
1126,-2671,4680,-6438,1941,-1634,147
1127,-7861,2939,-1738,1061,-764,-851
1128,3905,778,4260,-1848,1392,1280
1129,5331,-3557,5451,-1204,802,1151
1130,-1277,1380,-2563,704,127,-699
1131,1029,6718,-6391,1897,1597,-996
1132,3143,-5005,-6317,-451,-1583,-810
1133,-1290,2598,-7609,179,1306,1929
1134,-4797,7031,1902,-1680,1424,402
1135,5390,-1891,-6607,-168,-1011,1475
1136,-4888,1879,2581,757,-683,982
1137,-192,3013,286,-1386,859,-1173
1138,2008,-5988,-146,-1461,1144,1383
1139,-3442,-5743,-4998,-127,-54,92
1140,-2375,4046,-2439,-141,-622,-231
1141,-5705,-183,-551,274,1970,-428
1142,-4696,-5890,303,-1828,68,-639
1143,-3100,3031,-7952,196,-456,953
1144,4493,-5554,-7442,1351,-1036,-338
1145,-3273,-1890,-799,143,1743,775
1146,-1446,3241,1556,1948,1490,1989
1147,4939,-4949,-1699,-97,-1636,1696
1148,-4676,4136,-767,-557,-998,-554
1149,-6946,-636,6514,-796,-1722,1358
1150,-299,-4676,4401,1742,75,1216
1151,-6235,-1739,7572,1340,-1580,-947
1152,-4026,-2254,-5551,-546,334,1200
1153,2899,5666,642,-79,1973,-1755
1154,5970,5549,545,-331,559,1407
1155,-1384,6633,78,-1340,1984,-1486
1156,-1899,-1039,-2787,323,250,1607
1157,-5321,-7572,3132,761,-491,744
1158,-2773,-3351,7301,-1691,-1220,-1364
1159,3074,5135,-2375,-96,-789,-1814
1160,-5840,-6458,3393,-23,1175,-1489
1161,-65,-161,2919,1918,-162,-1817
1162,-1580,-6574,-6333,63,921,1594
1163,7245,2159,-6512,-1797,539,1400
1164,-4666,-7661,-3001,-83,-1420,-376
1165,-4936,-2645,-2645,1981,1680,365
1166,5475,-949,7458,-1722,932,1962
1167,7086,-5948,-2634,1831,975,1695
1168,-7975,-3129,4311,-1817,-674,-1474
1169,5439,-1384,-2889,-1702,-158,-1898
1170,2687,6479,1530,28,-818,-1722
1171,-6127,6882,-5514,-1092,595,-843
1172,-4639,-6776,-1345,-72,-378,1741
1173,7420,5849,2369,17,-482,-857
1174,-1903,3346,4858,1459,38,-1580
1175,7255,5122,-1070,1820,1389,-497
1176,1318,-4540,-5894,-990,8,979
1177,-2808,6853,6367,-1540,1508,-804
1178,7418,7559,2110,1421,701,-1098
1179,-5422,-7495,6767,-186,450,1728
1180,777,5195,-4305,1803,-1407,852
1181,-7568,-3252,2191,-738,-1191,1526
1182,7645,2180,4419,-1795,1345,-645
1183,-3268,-1931,2860,-663,-942,-1057
1184,-3848,-1384,-7051,-668,1257,1936
1185,3562,-4102,5324,1091,474,1973
1186,-4908,3103,4138,-1604,1394,1970
1187,-3253,3174,-1169,1694,-692,-1196
1188,-3565,4209,3997,600,75,-1790
1189,-410,4185,1310,1617,-1341,-302
1190,7098,3771,4683,742,1202,-1649
1191,-6290,-5566,6101,-1633,140,-419
1192,-3581,-7313,-7839,-1762,-1143,-628
1193,2683,2059,-3534,907,1470,1628
1194,-6734,-4818,2294,-1965,1495,323
1195,-1485,-2345,-3945,-1757,-1273,745
1196,-6429,5971,2604,1172,246,-1596
1197,5515,6106,1613,-298,1495,1937
1198,-3102,4060,1539,-520,903,-895
1199,-7123,-494,268,-706,1743,-554
1200,-1097,-5157,7030,-447,-1439,-1581
1201,-7670,-4849,-2993,1561,-710,1163
1202,-6332,6818,-3448,416,-1120,-913
1203,-1208,-3774,-2423,-185,272,494
1204,-5835,673,2827,-252,-914,274
1205,-7843,-3393,7381,1709,294,1403
1206,-1228,-2146,7228,-1953,476,1911
1207,6372,-5675,5095,-1783,-1652,1757
1208,5926,4794,-3583,-1595,-290,-1707
1209,-3393,6996,6043,-733,603,-752
1210,2914,2356,-5289,243,1002,489
1211,-6932,2886,3573,-284,-1997,1208
1212,-70,-2740,-6847,1105,1497,490
1213,790,-4032,-3296,677,-1758,-1870
1214,-554,4792,-712,-1493,1512,-498
1215,4621,-4384,4541,821,-56,-832
1216,-643,-4028,-7833,-125,-1729,-997
1217,-5544,4587,-5181,-320,-1433,-829
1218,5011,1889,-4537,293,1461,47
1219,1394,3377,-363,1573,1573,817
1220,-7755,-1318,3128,181,-1286,-1238
1221,-4988,1084,363,-1938,-281,-685
1222,-5766,5536,-4854,-1168,-650,1936
1223,-4905,5465,-339,-1310,-931,-604
1224,-936,3041,2188,114,-865,-941
1225,6136,5161,-767,307,444,435
1226,-2897,-845,-5367,-699,-28,-62
1227,-2284,-1074,1971,-1162,-103,-452
1228,-5637,486,7100,-1212,921,-118
1229,-454,3860,-4160,-1114,828,8
1230,3664,6300,-7266,253,1067,-512
1231,6706,5792,-4366,527,467,1377
1232,-2088,-1635,-2500,1292,505,-1701
1233,-3635,3126,4034,53,-881,-1454
1234,-2363,-6102,-2112,-379,-790,-515
1235,3568,-7982,-6583,63,-935,1343
1236,1206,-7707,3883,612,1875,1235
1237,4990,6105,789,149,1955,224
1238,5540,-7262,-5530,-939,1085,1506
1239,-5724,-5384,4115,-532,-1728,381
1240,-4359,-3386,6253,1497,-996,-948
1241,5432,-546,-5537,-1426,-1775,-226
1242,-316,-6776,-3584,1646,-610,996
1243,-329,4495,-2940,653,-1804,71
1244,7725,-4350,6954,911,-1487,-1176
1245,909,-345,-5506,-758,-66,1325
1246,-5762,981,-6648,-136,-979,-958
1247,5672,7698,278,27,-840,1514
1248,3403,-2579,-1309,-1178,-295,-998
1249,6169,-348,-3139,946,-1116,1338
1250,-7971,7204,-4502,-1453,11,-906
1251,7265,-6236,2965,1134,1299,1628
1252,-3363,-3817,1493,-252,-646,-1003
1253,-7196,2139,4586,83,-881,1599
1254,1448,-7160,3669,508,1149,-985
1255,-5829,-3865,7710,1795,714,-1332
1256,-830,-446,-7003,-223,-449,1639
1257,2036,-503,6430,-441,802,-1074
1258,7974,-476,2629,-914,-1658,-700
1259,4260,-7211,6847,1371,-1129,974
1260,3804,-2193,3614,888,1347,1937
1261,-2571,-7209,1065,31,-673,470
1262,2672,5981,-270,-172,-469,-420
1263,6797,-4868,6043,-1253,1918,1884
1264,-5013,-1886,-3041,-906,643,247
1265,6231,-6544,4790,-1316,140,-1281
1266,7985,-509,-6072,723,1691,1377
1267,4101,-1541,4523,-121,-1766,-105
1268,-1933,671,7059,-885,1372,148
1269,1750,-2924,505,1741,-1285,1027
1270,6903,4832,-1634,1760,1959,767
1271,-1546,-7237,7852,-1958,1406,1993
1272,-5269,-530,-1288,133,-842,609
1273,-5380,2154,6916,-1224,-897,-1581
1274,2596,7321,-657,47,1232,1313
1275,-7648,-3567,4746,1442,-810,-322
1276,-1158,-7750,2596,-1936,329,-1320
1277,5745,3589,6628,76,149,1825
1278,-1886,-287,-5165,1063,1355,1362
1279,7537,2862,-5172,682,1118,-957
1280,5113,-2517,-1937,1423,1667,276
1281,-3691,-4647,-5062,-624,1493,89
1282,6937,5685,39,254,1587,172
1283,928,-5435,6740,-1611,641,-352
1284,-3800,6056,-1871,-9,-668,62
1285,4253,-2836,-2071,-396,-1208,854
1286,3090,-6950,7538,-612,1241,-851
1287,1909,-936,6526,-221,874,-338
1288,-4716,3082,-1416,697,999,-924
1289,-1441,-7084,-1929,-1914,1891,319
1290,-2936,2602,-3179,348,-1839,1280
1291,619,5177,-5400,-1794,-240,1045
1292,-7596,6726,4462,-700,232,1132
1293,3998,-4766,-7795,1931,-1704,1727
1294,-7762,912,7545,-1378,237,-198
1295,-7663,2106,-488,-564,1290,-658
1296,-4651,2840,5272,205,1101,1924
1297,-6251,-1340,-5625,1030,480,-1442
1298,7347,4026,-5092,142,-1842,-1670
1299,-6512,307,-6657,-711,1435,-1954
1300,7495,1962,-5916,1516,168,-434
1301,-5470,685,-2922,498,-1536,1911
1302,5930,3668,3421,-1435,1301,638
1303,-3302,-6675,-6093,-1477,-64,-366
1304,6725,7425,5472,-538,-685,944
1305,1483,544,-4955,-1012,-1423,-1181
1306,-353,1289,-6473,139,1538,-1915
1307,6509,-542,4052,1504,-929,308
1308,258,-1882,627,-1803,-93,-168
1309,2032,6839,3079,354,964,-793
1310,4312,-3210,-1333,-586,-969,1102
1311,2701,-1591,-2187,-1653,-663,1110
1312,-2952,-973,-2056,965,-75,-717
1313,-3807,1803,2268,-721,-1339,617
1314,2135,-3303,-6557,-997,37,454
1315,2276,5276,-374,935,501,-1400
1316,3484,6430,5965,-1646,1083,-1275
1317,-5590,-4368,-709,960,541,-248
1318,-6809,-3687,5153,-674,-790,-396
1319,7872,3743,-4180,227,1662,1824
1320,-5678,-3797,-1,-1503,1951,441
1321,7367,-2490,-581,-802,-1253,213
1322,-7774,-4678,-6206,78,-653,-1603
1323,5574,-1414,-5403,1890,-777,-1631
1324,-187,6816,7568,1215,512,425
1325,7342,1782,-2421,166,1970,783
1326,6416,6357,-798,530,858,166
1327,7367,-3466,5820,-1999,1213,-257
1328,-3316,5685,-5805,1372,577,1316
1329,-4493,1004,3010,1153,-557,830
1330,1666,6136,-4058,515,-626,363
1331,2779,6940,6893,-1844,1355,1770
1332,-313,7783,-1880,1857,-512,-1377
1333,-3680,-943,4249,-758,-140,-1095
1334,4068,7138,-1663,-183,1440,886
1335,-1511,63,4311,1348,1204,343
1336,3890,5148,-5166,-1832,115,-1706
1337,2885,7962,-6423,-525,805,558
1338,-5192,3707,1316,-466,1327,-593
1339,-118,-5132,1895,-272,1619,-603
1340,2912,-4685,3625,-729,934,817
1341,4118,4937,4191,1554,-232,722
1342,6194,-6644,-761,10,1848,-1928
1343,6631,7527,-369,-272,778,-218
1344,-4577,-1955,5789,-967,-1156,-1552
1345,-4886,-853,2742,1515,-1985,1006
1346,1220,-6572,6862,-1445,1646,733
1347,5486,6932,-1348,-963,-773,-104
1348,-7246,-4673,5086,272,1759,-159
1349,-3256,1713,3555,332,608,-1652
1350,6627,559,7519,-373,1263,1923
1351,406,3022,-2955,1497,-989,-1812
1352,-3439,-7318,-3381,77,825,1214
1353,4890,-4095,-3739,1251,-1608,1864
1354,1414,-6004,-3626,1843,950,1450
1355,-392,-992,5347,-520,-756,-1059
1356,1827,1409,-3244,8,1643,-353
1357,3289,3570,7920,1119,1067,1969
1358,-4356,-3134,5570,647,-1180,46
1359,-4832,-3742,7991,903,-1604,213
1360,3314,5407,-4837,774,-116,-564
1361,-3144,2782,7732,11,299,-810
1362,2124,-2342,-5712,770,659,1517
1363,2746,-3006,-6609,1813,861,-1933
1364,203,-7070,3299,-272,412,-1844
1365,-871,6209,1396,1128,184,-393
1366,-7069,-604,-7002,-1473,624,-1517
1367,6490,4516,2120,1356,1397,1979
1368,6792,5548,-1964,935,-701,587
1369,-7186,-595,-7859,-525,-892,1190
1370,-2370,5963,-6509,-1200,-542,995
1371,-4192,-774,-2455,-997,808,257
1372,-322,7600,-6397,1694,-935,1859
1373,-928,-3572,4500,-1477,-1631,593
1374,3177,3439,3229,-804,-518,1568
1375,-4984,-5172,1062,332,646,-842
1376,-6533,758,4680,-868,-1842,-1769
1377,1554,-3370,407,1190,-200,204
1378,-409,-2371,3764,-710,628,-1426
1379,-4925,-5856,981,389,-177,-1641
1380,-5642,-141,-6770,1632,1868,728
1381,-4557,3252,7171,-889,-1364,-40
1382,-6596,-6481,-1072,1483,-1446,-1256
1383,7798,-1914,-2169,-225,191,-1513
1384,-4020,-2716,3127,-885,526,-130
1385,3501,-5234,-870,799,966,-1197
1386,2296,-1544,-3562,1163,-1963,541
1387,-3149,3871,2285,1184,1427,1564
1388,918,-4658,-1677,-1761,-1856,-697
1389,2935,-4107,7974,-1749,1325,-1931
1390,-6218,-4627,6170,654,-1296,-1170
1391,2370,4643,3363,-385,-877,-385
1392,302,7939,4897,-720,705,-77
1393,554,-3977,-1188,-1591,-1631,-480
1394,-4713,-7281,1117,1459,1826,-434
1395,-3400,6238,606,1876,1342,-1142
1396,7536,-6418,-5611,-102,1778,978
1397,-5004,6315,-5255,1464,-1617,-432
1398,2642,-4874,2114,1191,-363,-1344
1399,-4823,-7876,-6795,1276,-813,1639
1400,-4861,5431,-6480,-1795,-1861,-1765
1401,-6392,6166,1812,347,1891,1641
1402,5580,-1417,-995,1345,-561,-1706
1403,-4961,-1054,7565,-558,-1615,-877
1404,5016,2093,3264,-272,-989,-297
1405,-4070,-2444,5871,-1498,483,-212
1406,4493,7757,-3024,1922,852,1953
1407,-2826,-2569,7968,734,320,-367
1408,3240,7117,4110,1710,-956,-1557
1409,5980,1604,-1069,1052,-915,663
1410,-2076,577,5503,646,598,-1723
1411,4206,-1199,-5020,1314,848,481
1412,6059,-665,-6339,-887,-522,1020
1413,1110,6986,-5786,-228,-1559,-1273
1414,3736,-2061,-84,-862,1690,-1997
1415,501,-7906,-7654,-722,1949,1412
1416,-6971,-6679,-4090,-731,1591,55
1417,6007,1317,-2348,852,1710,-1422
1418,5211,2492,419,-352,-597,297
1419,-2124,3013,-5179,-716,-147,300
1420,6431,-6064,-6722,-665,-1326,-766
1421,937,3328,1451,-650,822,654
1422,7631,1140,-7793,281,1246,424
1423,-7079,-7911,-1608,-663,-1128,1853
1424,1717,5874,-4914,1639,-1607,287
1425,2393,701,-2476,251,889,-869
1426,5402,5750,-3822,707,1914,1005
1427,-3420,-3939,535,426,-432,-1323
1428,-5753,-2233,-2600,-489,1636,461
1429,2168,4094,3063,885,-502,1279
1430,515,2741,-6466,-574,-148,-830
1431,6131,3998,1096,50,1969,667
1432,1972,3409,5749,-984,-1946,-1077
1433,-1478,6207,6437,-1013,-488,-1504
1434,-6656,-7509,-3152,-1275,-1682,181
1435,7975,1820,4750,311,1337,1057
1436,-1696,7706,-6033,-1976,1673,1126
1437,3021,-6808,-2392,1897,-314,-309
1438,4675,4351,2661,1557,1540,-276
1439,-918,-7573,7057,1137,154,1323
1440,-17,4855,566,-1877,-1327,-412
1441,5342,4544,4310,-1499,1905,-1270
1442,4399,-5241,2460,209,-1902,1741
1443,-3867,5976,-6950,766,-1701,-244
1444,1284,-1923,-2629,1321,1197,1765
1445,7010,2402,-524,1747,-1763,-1467
1446,-5658,2859,249,-231,1395,1675
1447,-3512,-4090,-4520,850,-1816,-26
1448,-5807,-5363,-1994,1287,-407,1629
1449,-6408,3065,-4794,1928,1387,1438
1450,-4864,-6904,6286,-880,593,1168
1451,-4893,2011,-6843,-491,1946,-208
1452,-7269,148,-2568,-1263,-39,-810
1453,5507,3711,7606,-473,918,1327
1454,-4376,-710,-4315,-647,915,911
1455,-6961,-6446,-1881,1190,-1091,-1431
1456,3869,-5308,-7896,-1999,-361,587
1457,-5432,419,-6046,1684,606,492
1458,-1811,6448,2326,-954,477,1053
1459,7503,-521,7389,1998,346,-398
1460,5883,-6433,563,-820,-70,755
1461,1206,6495,-4247,1751,1980,-540
1462,-1706,7338,1848,-577,1392,-1611
1463,-5265,-1113,2953,1819,-976,-1381
1464,3345,-615,-4012,-1771,1309,967
1465,7465,1634,6610,842,1639,241
1466,-5556,3339,1207,1396,1954,-607
1467,-1415,-1862,-4949,946,-1728,-1273
1468,-475,975,-5730,-118,1337,-427
1469,-5044,-2246,1016,1723,1223,1473
1470,5718,-7083,2786,541,1938,1709
1471,4488,377,3411,-1806,703,796
1472,4814,632,3294,-1038,399,1475
1473,-2129,-6769,-1881,769,-849,-1336
1474,4448,7031,5209,1408,-1495,-750
1475,-2280,-1785,-2980,159,-1212,1186
1476,-3211,-7040,-2581,-1014,-1408,1157
1477,331,740,449,1878,-1792,671
1478,-7782,2095,4731,-1073,496,51
1479,-422,-4345,2165,1275,-1124,-1232
1480,1448,-6035,7122,-1961,-1379,-1573
1481,197,-6671,7517,1740,1233,1485
1482,-6870,-1425,-1091,-1780,-193,-1688
1483,-1016,-6304,1758,-25,1893,-47
1484,-7228,-4724,6675,-1378,-111,1466
1485,-3432,-5407,-4952,1192,-1484,-1592
1486,7417,3664,4439,271,-54,598
1487,-6530,1955,-1193,127,-1835,-1630
1488,-2404,1249,6093,445,435,-1296
1489,5481,-4676,-4422,-1304,1251,-1156
1490,-3427,-1306,-6988,-78,-358,920
1491,861,-3986,-2758,517,-1903,-311
1492,-4998,-5816,450,-855,1430,359
1493,7758,-1460,-5524,-530,-1442,-1353
1494,6109,-6430,-3971,-1619,445,-1465
1495,-1621,-2661,-5595,845,-180,-1968
1496,2044,5264,-5119,1345,-879,-165
1497,5845,5511,-7482,1710,1917,-1347
1498,3308,5515,-1936,733,595,1656
1499,7814,2140,-7134,-1642,450,-984
1500,5800,4198,5274,-1503,1524,-1345
1501,-3878,-3661,-3827,-1963,-1920,1803
1502,-3425,42,4450,1477,723,1624
1503,5142,-3563,-7552,-1038,1087,217
1504,-1029,-4112,-779,1354,-659,-1265
1505,597,7518,4807,-218,-1331,-446
1506,-5087,-2713,-4452,1602,526,562
1507,7851,-4215,-2205,47,-351,937
1508,-2348,1759,3277,-313,1281,1500
1509,-4804,7996,4472,-343,779,-1961
1510,3859,3260,-1779,-114,1358,1445
1511,-4800,7342,3695,1090,-1059,1337
1512,-7114,-7058,-6755,354,-1951,550
1513,-1701,-6447,5286,1508,1002,1160
1514,-1772,-3702,1393,-1797,621,-1794
1515,1041,4622,-949,-1052,290,-807
1516,-4939,4285,-3773,-497,1588,688
1517,3128,5003,5437,-350,1697,156
1518,-7585,-2725,-4081,393,787,610
1519,-1488,-1802,-1596,-1047,-442,-17
1520,5859,4340,5902,1922,-201,-1512
1521,-2861,1361,4304,1113,36,306
1522,2453,6125,3879,-607,1468,1742
1523,-1022,-220,7375,-426,552,139
1524,-7726,-690,-2599,520,1458,-444
1525,5387,-5116,-2490,1719,325,117
1526,-1950,5570,3593,942,1001,1541
1527,7561,-2804,2452,1983,-44,1092
1528,-904,-6772,-6865,-206,-127,-701
1529,728,4849,-6216,775,1424,-1185
1530,5170,-3011,-6128,-36,-1597,141
1531,-4979,-6905,-5187,932,-1832,-1636
1532,-779,-4242,328,-1871,1494,-1418
1533,-638,5207,6728,-1023,-840,268
1534,3137,-4531,-2440,851,1649,-1413
1535,-4611,-6221,-7098,-127,-1469,-304
1536,-5363,7072,-1485,1819,-1665,1755
1537,-2940,6603,-1084,-302,-1191,-1113
1538,3009,-3676,-5816,1069,147,-65
1539,1783,5140,4343,-799,-803,-1684
1540,2687,-1713,4195,1409,-921,-421
1541,7415,-182,3563,1022,-1844,647
1542,2287,-4662,3925,-726,1534,1800
1543,-3726,-1040,3182,1203,-1127,308
1544,176,2945,-1338,129,1426,-299
1545,-5882,-3239,4230,1598,-1958,522
1546,2334,-2302,-6750,1761,-829,997
1547,-5482,7971,4768,1576,267,554
1548,2091,-2139,646,-1669,-273,-1836
1549,-5546,199,-6540,-898,-96,-1137
1550,2135,-7520,-4569,-1452,732,1821
1551,4736,6973,4583,718,1977,622
1552,-1281,1257,1789,-638,-1289,1327
1553,5231,-5255,7576,-6,1868,-480
1554,494,347,-7470,-237,-1893,1567
1555,3180,-6279,-6511,-1547,-116,-1975
1556,-4510,7307,5127,541,1305,353
1557,2521,-4796,-2012,1214,114,-929
1558,-4125,61,4643,-884,-514,1273
1559,-3422,2922,2114,1984,1891,-117
1560,-2360,6888,6574,1074,108,693
1561,7884,-2425,4416,59,387,321
1562,-2157,5695,-2050,145,1064,189
1563,5076,-2778,-7943,1751,-1414,-1761
1564,-7316,-3457,-7266,-1426,-1568,640
1565,-1737,-2173,-4877,1304,-1511,-323
1566,6665,3797,3218,1818,14,1094
1567,-1898,-6208,2847,1637,903,1434
1568,6309,-250,1213,153,-905,1962
1569,3463,-1917,-218,-737,-556,-697
1570,4762,2146,-484,31,-171,-851
1571,5203,-6642,-1643,1813,39,1940
1572,2072,1448,-5486,813,107,1353
1573,-5259,-5503,6438,1236,-1268,741
1574,-6758,-860,-2969,391,1630,1539
1575,-5125,1183,7492,1286,347,-79
1576,4036,-2976,-1999,76,-1560,-1879
1577,4722,6161,6943,-89,-1196,1092
1578,-7911,7856,-2869,-734,1088,-1871
1579,3609,-5886,-5477,-1643,-202,42
1580,-6939,-5016,30,415,224,-711
1581,303,7264,7599,-505,1158,1715
1582,1081,-5059,-5296,-973,-43,731
1583,-7056,-1515,-1579,878,-491,114
1584,-1790,-4772,4603,128,1483,-1148
1585,3706,1003,10,857,-133,1465
1586,5793,-3594,3500,-167,-1155,506
1587,4150,-6127,-634,1778,-440,-303
1588,-2741,-1291,3921,668,-1898,-906
1589,-3624,3035,-3070,-813,1752,1324
1590,3193,3422,-7919,-360,919,627
1591,6341,-77,-6497,100,490,1942
1592,7410,-1454,1387,-1490,-1650,-12
1593,-567,1857,2936,1805,558,-1884
1594,-4180,-28,-6575,1584,1386,666
1595,-3207,-1130,5438,-961,-940,-907
1596,-5268,4193,-6390,-1158,-315,1650
1597,-6740,3699,6769,-900,897,534
1598,1930,-1121,662,-1637,1549,801
1599,-3866,-5922,299,-1409,456,-806
1600,-3604,-7678,-7477,1606,-1306,1325
1601,-3659,4420,-3621,1342,-264,1603
1602,5589,1225,-834,-1089,-261,1146
1603,-741,2090,-4220,1617,-1084,-605
1604,-2020,-6866,7193,-1171,-1531,795
1605,461,6852,2380,408,-506,-1000
1606,5943,3590,4788,688,-54,-1700
1607,7201,3162,2605,-232,574,1086
1608,-2394,-948,-490,1608,1086,104
1609,-736,-2850,5795,491,1748,-857
1610,6058,-1805,-4546,-1702,853,-763
1611,-4264,-4254,-7860,-825,1789,77
1612,6984,-1108,6703,1680,1590,1305
1613,6601,-1406,7436,548,1574,-1265
1614,-3814,965,6592,-774,1557,1927
1615,-7098,-5498,-6134,1591,553,489
1616,640,-7157,-6127,1090,-1461,716
1617,5599,5461,5973,489,744,-701
1618,-7703,-623,4973,297,-205,-1129
1619,-1392,-7721,-1600,1648,1504,-90
1620,-1063,7930,1998,1352,-449,-725
1621,-6536,6179,2265,-609,-588,579
1622,-3281,-4159,3458,482,-1465,1462
1623,-1701,-1517,-1814,-321,1139,1119
1624,3171,7607,-7928,-1656,-99,974
1625,2175,2641,-4399,-1891,473,-1983
1626,6837,5263,-4241,-1824,445,1597
1627,2576,-4939,-534,-1714,465,1237
1628,3177,-1028,6935,-952,-1123,-1486
1629,-4819,-393,-1820,1984,1120,620
1630,-1072,6447,6000,610,1090,-758
1631,-7521,-225,-4705,1560,-884,-1507
1632,816,-5819,-513,-429,1105,293
1633,-6185,-7367,-1333,-1345,-1025,-927
1634,1755,-3458,-2992,1033,1556,-1087
1635,-6906,5279,1826,1883,-476,-63
1636,-4306,4876,-776,1859,1017,-799
1637,-5249,-1790,499,1601,-94,-872
1638,1912,6611,-6535,-952,1765,-630
1639,5987,7684,-7089,-847,1437,-1696
1640,-6215,2936,5057,-1575,130,107
1641,-1592,3148,-6476,1216,1009,-1542
1642,6216,-6935,218,1278,-1612,-1484
1643,4640,-287,1244,-1816,-1918,648
1644,-7331,-2846,4109,1974,-551,361
1645,-1911,-4834,6657,350,910,-765
1646,-5785,4483,5252,-138,-636,932
1647,-2226,-890,-6339,128,817,1250
1648,-6159,-1272,-4814,-445,1547,1583
1649,-6474,6355,-3059,-258,512,-1017
1650,-590,-6851,3548,-391,1503,997
1651,-1895,6789,-4190,1947,1295,1193
1652,2664,2386,-6638,430,111,-509
1653,-4522,-6054,687,-1477,1648,-725
1654,6408,4834,-760,801,-294,-1895
1655,-5057,-7272,483,559,1779,-1165
1656,-4911,7941,-685,-581,-1088,-1486
1657,-5953,549,-1896,-1148,297,309
1658,7991,-27,5936,-1736,-51,-1673
1659,5579,2430,1709,-329,-1436,301
1660,-4253,2421,370,919,-1689,1805
1661,7296,4780,2935,-866,-545,745
1662,-99,2532,-2526,1480,-1994,-784
1663,4836,5662,7979,1378,-1372,948
1664,5741,-4047,-3136,814,767,1100
1665,6464,-2510,7948,160,-1888,1487
1666,-7587,209,-2068,839,-1911,-1283
1667,-5278,2506,4647,-155,-143,357
1668,5584,4432,-4739,285,-1841,-1971
1669,-363,-7580,-4596,-630,1190,-1346
1670,6358,-4414,822,-1793,1309,-308
1671,4811,-3363,-3596,-1251,583,-1121
1672,-5578,-5627,3319,-1306,1115,-1401
1673,-2659,4656,254,891,1681,-1223
1674,417,-6937,2595,-294,358,-1089
1675,6232,1236,4822,-1024,-1416,1849
1676,6496,4743,-4524,1191,1469,-544
1677,5881,765,3260,1116,-1626,-236
1678,-6887,2350,2882,418,403,-891
1679,5747,-553,-3691,996,1324,-1983
1680,-3122,-1826,-3735,-1933,1599,1352
1681,-5811,5708,6400,-1558,203,1672
1682,-5795,6636,5591,803,-1017,-699
1683,-2961,-2012,-2645,1513,503,1572
1684,7104,507,-3574,436,1763,985
1685,3251,-3549,-4936,-1176,-345,-212
1686,-854,7546,774,-1315,-876,-1902
1687,3167,-3904,171,432,260,-460
1688,706,4061,7462,-1787,1311,-71
1689,-3106,5264,2457,1254,349,245
1690,3951,-85,1220,-118,-1921,792
1691,-3095,-1801,-3979,1357,1802,-1838
1692,4043,7769,-7752,-1830,-791,854
1693,7857,-5797,716,1322,643,409
1694,2088,4917,-2626,-1465,-332,-1039
1695,-446,5915,308,-1666,-1067,229
1696,-3771,-5384,4094,-1670,-1790,-1718
1697,307,-389,5633,1563,-1560,-1980
1698,1753,-6487,-7982,691,-1590,-1530
1699,5271,-3681,-7403,-999,139,1030
1700,6179,-6933,3893,-816,877,-44
1701,2070,-6356,-6577,-1725,1015,-1069
1702,-5288,-2327,7273,434,-482,-1827
1703,-2209,297,853,1104,1795,379
1704,1450,-1297,-5402,1059,1317,1808
1705,-3314,729,5321,333,1650,291
1706,7208,317,1183,675,-554,-1251
1707,-5779,3072,1478,-1049,1884,-1010
1708,-4879,-4961,1874,-820,-922,1302
1709,-5340,2436,3953,-482,-941,822
1710,-5586,1955,-1132,-1601,-291,-1682
1711,-6893,7190,-4924,-516,1581,1417
1712,671,2995,4890,506,-940,603
1713,5009,820,-1604,127,365,-1865
1714,-3389,-1388,5282,1619,1144,-1239
1715,-4186,6379,1067,847,1534,437
1716,6823,-3726,-1876,-1594,1296,-256
1717,7710,998,-5390,156,541,1173
1718,7740,-502,7173,-1679,-106,-1184
1719,416,-4212,-382,436,570,1451
1720,-7455,-3005,5493,807,592,-62
1721,-2814,-1493,-3663,-1913,891,-735
1722,6638,4951,3684,-995,1003,-1238
1723,4513,-5994,1690,-412,-602,175
1724,950,4933,-3547,1319,-818,490
1725,6429,-2787,288,545,494,-540
1726,6449,558,-4065,-375,-1416,-1994
1727,-1534,2277,1457,627,-1877,-1553
1728,5998,3458,5630,-412,-330,-185
1729,1158,3621,5041,953,421,-1131
1730,-5688,-4167,-6085,-230,-1954,-806
1731,4648,7046,5744,1717,-178,1857
1732,-6644,1319,6985,1289,421,1777
1733,5550,-841,-5424,86,-1032,-260
1734,-6106,-5547,793,582,371,564
1735,1242,4630,3982,-1612,-1358,-119
1736,-3477,-4209,4823,-1935,-374,-192
1737,3448,-4243,2708,-545,-1651,1867
1738,7607,1228,3450,-13,232,-170
1739,-2072,1872,3847,1736,-1171,694
1740,290,7669,-1019,-22,57,1383
1741,357,1328,-1274,-439,-164,-1927
1742,-7664,-2474,-6591,432,1317,-81
1743,6718,-6049,5719,-1915,794,-629
1744,-1071,6714,3555,1483,929,-1226
1745,-607,-5046,7950,1267,-684,708
1746,-2183,3409,-1221,-1992,1109,281
1747,-3322,2524,-6605,-418,1898,1242
1748,6900,5817,-2978,1817,-226,-509
1749,2151,-7844,3064,-1153,1497,1889
1750,2802,6595,1223,-1767,1836,783
1751,7449,-6628,2068,415,-1135,-1110
1752,5178,-4006,-2137,1922,-807,1582
1753,-2463,6921,7219,-129,489,445
1754,-4391,4105,3291,-1313,-1067,824
1755,-3091,-6178,-5654,566,-1203,-750
1756,1174,-2137,-1543,796,-883,1061
1757,-663,-7286,589,-1143,-728,1293
1758,7794,5494,-4138,59,-1021,1833
1759,-7292,5577,6232,-1949,1421,-1810
1760,3156,2284,593,1909,-1012,1012
1761,3522,2003,1381,1181,-882,-1932
1762,3661,6510,-3772,1960,1992,-216
1763,-2711,-3058,-4646,-1049,-1322,-991
1764,-6978,-934,-1034,337,1919,1776
1765,-2711,-291,2257,-1828,-1498,-1688
1766,5209,4324,5693,-917,-744,231
1767,3793,5538,-5468,-637,-1723,1572
1768,7438,4186,-5590,707,-1624,-173
1769,4975,-3862,-7754,-1437,-192,-152
1770,-3829,-3929,5017,696,1991,-1712
1771,4632,7360,-5724,1385,1628,1451
1772,913,-1506,-7135,-999,-524,-1986
1773,-5394,-2459,3819,-1220,405,404
1774,-7942,-5984,4483,-922,-776,-1433
1775,-7099,-5443,-4791,1478,-855,1311
1776,2208,-6533,3123,-1032,-781,-759
1777,3203,-2977,-7554,341,-1189,16
1778,3942,-917,7092,-894,-330,-298
1779,1230,6685,5044,1138,-1748,186
1780,5437,-6228,517,886,-591,-577
1781,-1347,-178,-6579,279,-1512,-786
1782,6761,6151,2802,1486,1135,788
1783,-3975,5337,1273,-988,-1507,-868
1784,6486,-346,-3639,-1512,560,1915
1785,-6985,-320,2031,-1440,1188,1288
1786,-3559,6811,113,-849,-535,-733
1787,1451,-525,1745,-896,-843,-964
1788,-3633,5996,13,1134,1632,-1118
1789,-6438,7774,-3011,-1864,-1923,1248
1790,5389,-5530,-1056,-44,-1737,1367
1791,-7766,2230,3119,657,809,1522
1792,6313,5650,-220,-1512,-593,382
1793,-2561,2313,-3557,1198,-1642,316
1794,7676,-6275,-792,122,1554,-1204
1795,4164,-124,-4457,-378,436,1952
1796,-1827,6008,-710,-951,734,-270
1797,-3428,7320,-7829,-1521,-1559,1470
1798,7009,1341,-6563,-192,-1263,-1104
1799,-39,2391,-5657,9,-1842,-588
1800,3219,-714,-571,-115,1674,891
1801,1551,-7006,5449,-164,-1546,-1732
1802,1248,-7890,1950,1876,707,-1723
1803,5673,-2534,-3997,243,759,-1261
1804,-873,2031,-7353,1313,1535,-423
1805,-550,7933,7079,1626,660,-551
1806,-187,71,7508,1069,666,1436
1807,-2146,562,2348,437,1759,-1492
1808,3193,6936,4923,-1013,295,-1305
1809,840,-4507,2757,-860,1722,193
1810,3145,-1648,-7046,-488,-802,661
1811,1925,-4143,-2372,1887,1428,-1310
1812,1293,-1526,-353,586,-1868,1758
1813,502,-121,4527,-391,-1578,-1650
1814,4080,-1260,2164,1848,-543,360
1815,3331,-7560,-6162,184,-1551,-434
1816,5203,-2352,4649,450,-725,-993
1817,6600,-4686,-2812,-1304,-989,44
1818,-3628,1957,-4789,825,562,-1203
1819,1438,-2288,5857,1763,1588,-341
1820,-3318,6025,-6260,704,1029,1989
1821,-6744,-1306,3182,325,229,-276
1822,1593,-2053,-3335,87,104,401
1823,3266,-5158,4044,219,-64,-1729
1824,-1534,2274,-4373,414,-1311,-935
1825,-7702,-5871,-3142,1736,-544,1957
1826,-6320,-1655,-4620,1615,521,-116
1827,7851,1294,4690,-364,276,990
1828,-7,6083,4328,1556,674,-634
1829,-3294,-5501,-6617,1162,68,263
1830,-5467,3627,-3630,-171,1718,335
1831,4225,-4477,4168,-103,-207,1016
1832,-7508,5668,-2301,-259,-3,95
1833,-493,763,6701,-159,-1375,-1940
1834,3260,-5601,2945,-673,1644,-940
1835,1273,-1922,-5745,1386,-861,997
1836,-151,6260,-6748,-1505,1878,1104
1837,-3098,-4563,6585,-1194,-733,1070
1838,336,-4133,4549,1389,-1925,509
1839,-6008,7076,6495,1045,1140,1198
1840,6499,6597,-4470,346,-1934,7
1841,-6330,-1243,3996,1599,1718,-669
1842,186,-3536,3022,1544,-1772,1434
1843,-6457,-5534,-61,-1219,-1602,-801
1844,5794,-4706,7753,-1616,-140,-290
1845,2075,-1341,-1619,-740,168,606
1846,-2780,-4069,-6190,-1508,547,-1203
1847,-3965,470,-4237,885,1612,-58
1848,4405,-2408,4420,-1901,-1157,1453
1849,-1334,7204,4023,-988,-891,1388
1850,-3592,1487,-3049,1896,-609,1146
1851,-5780,7603,4395,-1465,1235,180
1852,4821,-304,-6974,-179,1937,1058
1853,2767,-1561,-666,694,991,357
1854,4723,-5184,7847,1813,383,-1875
1855,-4689,-6635,-7693,764,887,-1535
1856,-4254,90,-5209,228,-164,-1527
1857,-2926,-6291,-1147,-545,1912,1560
1858,-2849,939,2648,1938,1782,-407
1859,4814,5273,-1,-1158,-1040,-398
1860,1007,64,2877,-558,158,1030
1861,-6881,7032,342,506,-1499,1100
1862,-3591,-186,6555,1478,-753,-1177
1863,2760,3673,-3454,-1205,311,1695
1864,-4236,1191,6324,1921,-233,1711
1865,1888,-2490,-2028,-1716,278,433
1866,4664,-878,1308,1217,1643,-31
1867,-4225,-7602,5040,1370,-1716,-1679
1868,316,-361,5240,-683,869,-725
1869,-2570,-3322,449,-414,940,-504
1870,606,3491,-955,812,-318,863
1871,140,6354,2772,49,-471,-349
1872,5220,3397,895,-1364,-598,1913
1873,2656,-1621,-3549,1259,-249,1624
1874,-4016,3413,560,1771,1721,1105
1875,413,6951,1416,-172,-1834,651
1876,1106,-5638,3340,1851,1637,-983
1877,3353,4616,2446,13,-571,-1090
1878,-4650,2122,-884,1412,321,1698
1879,7862,4272,2531,-1905,982,878
1880,6081,-2376,5299,-1576,-765,1486
1881,3342,-2359,3350,1422,1409,-1403
1882,2831,3720,6419,-826,-442,-711
1883,-3774,-205,-2835,-1088,-1984,1091
1884,2273,4651,-2992,-799,-177,651
1885,-6945,-5410,806,-412,-311,-713
1886,7385,2331,-2656,153,1044,842
1887,5640,6090,6908,-745,-1445,1372
1888,-709,-7256,-5854,-982,1679,836
1889,2089,-6786,7133,392,-310,-73
1890,-1024,2376,4624,-1043,-1007,-507
1891,-7368,5992,-6932,1027,-1957,-788
1892,1533,-4433,6191,790,-375,-463
1893,-3649,1862,-4666,-1302,-704,-738
1894,7850,-6282,-2449,-267,871,1151
1895,-3131,5063,-2489,-1452,1486,-816
1896,1159,972,5934,939,692,-1159
1897,-537,6112,1539,-1407,-1992,-817
1898,-5990,4055,-7727,-1544,-1683,1045
1899,4955,-999,-3144,-1514,-1530,-1007
1900,-7274,-6961,-7216,-381,1890,843
1901,4788,5237,4906,205,-924,-415
1902,1999,7903,1935,1187,23,1050
1903,-4895,-7766,2831,-1435,146,-562
1904,7219,-6541,-1728,-677,171,-601
1905,3071,-4658,-5390,770,-1754,1355
1906,-204,3504,-2394,1884,-26,116
1907,-5436,2239,-4594,1140,-373,1393
1908,2168,-6027,-4641,-1773,1900,-925
1909,3524,-917,1283,156,1461,1859
1910,1718,2525,-2441,993,1553,1593
1911,-3537,441,362,882,-386,1655
1912,-81,5579,6186,-1755,756,504
1913,-5340,-5446,456,281,1137,-570
1914,-1293,5334,6992,-1577,-1559,1681
1915,1275,-1120,-7273,1169,-402,870
1916,5043,4838,-7621,-1018,-544,-9
1917,7728,7510,-3950,-1602,151,442
1918,531,-1485,203,-1044,1903,396
1919,-4464,-3270,-1267,-1800,-1512,-1324
1920,6135,-6774,-7004,470,-56,920
1921,-5548,-7118,-5240,1703,-381,298
1922,4662,1175,-7677,1274,-1778,36
1923,-3963,-1198,-2062,-1921,94,1290
1924,2384,-6523,-1290,1406,240,1681
1925,3229,-5312,7076,132,-606,-550
1926,-3166,-2490,-5507,-1727,124,-1697
1927,4733,1105,-3898,126,-1045,-1755
1928,-3764,4736,-7921,-146,26,574
1929,-109,3578,-2328,114,1705,573
1930,6209,-6930,-69,1921,776,-28
1931,-7708,1516,3972,-1651,785,-480
1932,3191,-2618,6773,1165,-530,29
1933,2581,1850,1830,1743,-1212,-120
1934,-4092,216,-5943,1606,-546,1224
1935,6261,-104,1757,1177,-1936,-1366
1936,7158,3317,-6327,-1359,-1010,548
1937,6749,5215,6549,1672,-1838,1002
1938,-6522,6071,6800,1490,1954,-606
1939,7652,539,-4753,1748,1456,1282
1940,4867,-3728,-5582,-1062,-1557,-879
1941,7222,-1743,-7058,1247,1,-698
1942,-7117,-6315,3695,-1745,-1998,1494
1943,7635,106,-2236,-1397,318,640
1944,-3663,2814,2905,607,-1814,-1011
1945,41,-3086,-5670,857,1289,1312
1946,6055,6236,3780,-184,430,1089
1947,1873,-596,-2179,-1267,-1127,31
1948,-5462,3798,-4566,-273,-458,-1030
1949,6129,-4113,1511,270,-37,-354
1950,2395,6549,4205,-347,1911,1493
1951,2440,-6633,-4653,-1481,-623,1943
1952,-1694,-316,7248,-470,753,1598
1953,6350,-3214,-7898,1301,-784,1658
1954,-3640,-3010,-2165,-468,-400,61
1955,6112,-3256,788,-65,-1536,809
1956,574,-2193,-6625,1289,1813,-442
1957,-5986,960,-2685,-1220,934,1722
1958,-3422,-4271,2192,1347,-477,-546
1959,-2499,-2128,7258,-884,-180,1830
1960,-3197,6444,2000,880,1750,-300
1961,-5259,-344,3521,460,826,1341
1962,-1488,4870,6638,1542,712,-1408
1963,-67,-1350,-7080,-923,931,1503
1964,-6234,7852,-4850,-688,1781,-946
1965,224,-5180,-3871,1719,364,-1986
1966,2284,-2990,2492,-130,-495,-415
1967,5506,6038,-1448,-1782,-1883,270
1968,-2793,2783,4265,-843,-1591,-447
1969,-1182,559,-4189,-1325,592,1800
1970,5408,822,-113,1346,517,-1829
1971,1250,-7089,-2198,650,1903,-295
1972,3177,-3460,7982,-1095,983,340
1973,5988,-7675,-3568,734,-205,985
1974,-6171,7355,7880,1422,347,571
1975,-4302,-5524,4431,-32,-1179,-616
1976,-2148,-3303,753,-1154,1690,-1649
1977,-5887,5637,-3386,-649,1999,-1280
1978,5082,-4839,-1074,751,1108,-122
1979,-1945,3479,5677,194,938,1896
1980,-4644,-159,-3806,-781,-433,1332
1981,-5564,4719,1195,1152,1776,699
1982,6081,2664,-1324,-670,1350,-1304
1983,6609,-5194,-4890,1000,-422,304
1984,222,6636,7240,-1525,864,-1883
1985,6093,-98,-364,-822,1719,749
1986,-3094,2291,4064,1938,-1080,794
1987,4547,2816,1234,1260,-1969,1671
1988,-7628,-2448,-1606,957,585,961
1989,-6656,-2131,-7827,70,492,1216
1990,2460,4795,-7997,1752,-1139,245
1991,-4753,-4551,-6256,-1151,505,-941
1992,1471,6033,-1488,-565,1612,-967
1993,-7780,-4825,-5346,1037,173,1745
1994,798,4332,5573,47,530,-1207
1995,-4754,-7247,140,-119,1285,828
1996,7420,-7159,-3496,1019,-475,1340
1997,220,-3812,7803,-97,-509,-1685
1998,-3911,-1531,-4260,-1552,818,-1
1999,2870,3098,-6842,-1655,1964,-1963
2000,2152,-4485,4098,1221,-1896,-830
2001,-6,5861,1573,1480,-130,-1189
2002,-3843,3674,550,-1601,-1897,504
2003,2848,-4471,-1524,-1501,1063,-1340
2004,-2692,-6988,248,-270,1638,1980
2005,-7017,-1923,-44,-251,-1760,-651
2006,-1722,1151,4587,300,1038,75
2007,6115,-1191,-451,-1160,85,-221
2008,2107,33,2207,-1274,-1577,-1204
2009,-2960,-3545,1573,-534,-1046,1150
2010,4430,-1879,4584,1009,-34,-1998
2011,-521,-1508,4127,677,256,-1931
2012,7392,4598,-1952,973,1969,-805
2013,-1807,-4488,2546,536,1340,281
2014,7087,-5712,7623,-30,-1396,1946
2015,4366,-145,-2986,68,1775,-1967
2016,980,5643,3355,1583,578,505
2017,-4876,-6131,-319,1444,-1444,-1010
2018,5872,-217,6898,1694,1212,-735
2019,2343,1669,-1379,-35,428,-852
2020,4796,-2849,-1655,1174,-554,-447
2021,4749,-4066,-4062,-1804,1722,817
2022,5883,4464,-1437,-1483,1394,-1088
2023,7777,2360,5692,-1023,507,1199
2024,5579,606,6850,1096,-1890,-538
2025,6463,6156,-1440,-1763,-920,333
2026,-5857,-683,-73,-1864,1668,-363
2027,-6444,2777,-2631,-1371,1691,-105
2028,-7447,4834,-2688,1752,269,-166
2029,3143,3365,583,1397,-212,564
2030,-1434,6632,-2799,-592,1626,705
2031,-1489,-390,-3500,-1002,-1279,1106
2032,4665,-6186,-4632,1503,-1769,-655
2033,1885,1108,1898,1682,-1917,734
2034,4405,-1912,-22,1686,-1054,-1776
2035,2725,-485,-920,82,-80,191
2036,42,-6178,-3242,-237,-329,1117
2037,2099,-7904,3800,-1442,407,-519
2038,-4750,6835,-168,1673,-1061,-541
2039,1551,-2773,-1181,-1554,-981,-1489
2040,-4291,4417,3984,799,-1817,33
2041,-1970,-1651,1006,-1049,-202,1630
2042,-3577,-340,1038,-609,310,688
2043,5060,-3617,-618,774,1956,911
2044,-1387,6129,473,-1868,-1403,-1196
2045,3494,510,-5047,1689,1960,1616
2046,3736,-6917,5704,604,922,199
2047,4278,-7991,7127,745,1812,-935
2048,2556,-2888,-4327,-1263,1835,-1576
2049,-7082,5850,-3831,-308,35,-147
2050,-2649,-7584,7116,1525,-1220,-169
2051,6920,7904,3228,1176,928,-265
2052,-3630,6942,-6230,1527,1418,-1551
2053,5102,-4135,2108,-366,-1203,1623
2054,39,-3679,2092,873,-1867,-1405
2055,3298,786,5899,-617,536,-652
2056,-5987,4517,-1752,-1469,669,1949
2057,-4173,3735,-2353,878,-948,307
2058,2564,-3473,1362,1773,941,-1429
2059,-934,7929,-6173,-1407,471,1113
2060,-1783,556,1239,-1492,1727,86
2061,781,-6383,266,1059,1042,1553
2062,-28,-6954,1951,1275,-4,-644
2063,-401,1553,4607,759,-1396,1395
2064,5489,-7558,-146,-1606,1346,-439
2065,-5033,1718,-2025,-1478,1014,696
2066,3589,-2209,730,1522,1372,-1353
2067,1042,4720,1141,-1286,1837,788
2068,-2389,-1157,-5417,-133,14,1698
2069,2807,1385,-6352,820,1548,-226
2070,5092,-2448,7255,-284,25,36
2071,6203,-7190,-3651,774,224,-422
2072,5046,945,6598,516,-391,-980
2073,-4891,2519,-1029,-1921,1784,-1344
2074,-7209,2712,-1483,-82,1350,-709
2075,-4089,-4227,7212,-118,-833,-1267
2076,-712,856,6872,-1406,630,-638
2077,-2554,2462,7826,-1864,1978,-444
2078,5081,-3663,3952,-1132,1765,615
2079,-4988,7558,6544,1544,-1701,-956
2080,3028,-6091,-3456,1112,-1035,-1363
2081,-1138,5624,-1656,-1065,823,764
2082,4409,7374,6777,-1103,-1338,1003
2083,4066,6706,6021,-681,497,-1877
2084,7785,-6021,-2565,1535,1291,-502
2085,7911,7122,4953,-1550,938,878
2086,-3200,-2627,-316,1367,415,1236
2087,3090,-538,-1562,-1891,-1183,15
2088,1033,5542,-5774,-351,-1793,-170
2089,4660,-1518,3684,954,-155,-281
2090,4811,-2125,-6153,-213,961,357
2091,2988,3323,1359,1761,1511,354
2092,4294,-5845,2105,152,-1614,-1288
2093,-941,-2766,-3616,-1536,196,570
2094,-1918,6303,2977,-213,534,1164
2095,-5014,-6655,-5145,1304,-734,-1510
2096,-5212,6582,-1023,-594,-332,285
2097,3367,-5873,-1523,44,-390,-304
2098,7633,-2384,-6931,625,1591,-1054
2099,3733,-6223,1884,51,-44,-533
2100,7048,2619,995,-77,583,429
2101,5793,6367,-4761,-1489,1968,-1156
2102,3444,251,4381,705,-1627,1189
2103,-2865,-1743,-4114,612,1730,-1183
2104,6226,-7309,-5199,567,-425,-1169
2105,3433,-4755,-5255,-231,77,1611
2106,1748,6343,5063,-952,-1702,542
2107,-6592,7412,-3703,1746,94,-1777
2108,-5444,7268,1862,156,-1301,1639
2109,736,-6872,2180,-596,-1931,830
2110,5968,2936,6471,-1228,307,-1981
2111,4309,-5198,7356,-1527,1619,422
2112,157,4890,-436,323,-388,1682
2113,620,-3660,5145,1939,1974,-594
2114,-5351,6143,-471,-820,1893,-1222
2115,-4677,2085,-1029,-1332,-739,739
2116,510,-7423,-1539,-1001,185,1787
2117,562,3596,-5581,155,1125,-1855
2118,7674,6057,-1879,515,-339,1601
2119,7352,1370,-1469,-1269,603,-988
2120,-5503,5746,-2392,-1566,-1423,807
2121,7128,-3675,-6236,506,831,-807
2122,6983,-2182,299,527,-1198,1904
2123,4036,5463,5907,-825,1123,-1407
2124,-1312,-529,-1844,-1297,1658,-1835
2125,-6121,-7794,5532,234,1550,845
2126,-1973,-6674,-7136,618,-1653,-1264
2127,-6282,-1072,-2289,-1793,-828,-738
2128,-1500,-2881,2767,968,416,1266
2129,3698,2511,-7353,-1228,-738,1195
2130,-709,47,-1171,-1112,1205,426
2131,-697,2175,3065,942,1789,-1005
2132,-2250,-5635,-7067,241,1837,1229
2133,-3436,5331,-1550,-195,465,702
2134,6053,-5869,1112,-649,1176,-671
2135,5119,-7156,5890,1332,-1120,-1304
2136,4017,1840,-646,-713,-1995,1521
2137,7157,-364,-5565,1844,-1629,-437
2138,1868,345,-3358,-537,-555,-1706
2139,-2850,1865,6096,-1568,-1790,-109
2140,-620,-1844,-1719,737,-1779,-10
2141,-1488,-1312,-1752,-579,-165,-1557
2142,7381,2383,1131,-1682,-1405,-1681
2143,-4591,-5004,2774,66,-795,-1524
2144,3654,-7541,-2490,788,-187,-1653
2145,-7780,730,3447,937,296,350
2146,1680,-1890,6256,487,1777,1844
2147,6462,7578,-7512,692,64,1607
2148,-2013,1733,-221,-1783,-595,-945
2149,-7206,-4202,-5941,-1533,1290,410
2150,4515,7232,7534,-220,-9,-715
2151,7265,-2560,-5138,-635,-92,1359
2152,5944,2194,3360,-230,-333,1862
2153,6578,4188,3071,498,-1046,-1080
2154,-1277,-1327,-5328,-997,1745,712
2155,-208,-2722,7298,667,-1601,1602
2156,3860,6718,6406,1279,-1663,1582
2157,-796,3987,3184,466,-184,-662
2158,-2250,-3729,-317,-180,-636,-521
2159,1495,-7472,1038,1126,1388,521
2160,1718,-4955,4543,-1390,1887,832
2161,436,-5660,-3113,-1444,1405,-628
2162,-986,-3360,5497,-459,-918,-625
2163,7091,6695,-4196,-1743,1446,1725
2164,-1448,1319,-7951,248,-193,-393
2165,-5511,4058,-5689,795,-827,-81
2166,-1513,-2976,1416,1401,-1974,515
2167,-6581,4529,-7259,702,-1891,95
2168,-7678,-1029,-5294,-770,80,1674
2169,-6459,-777,1082,-280,-851,1233
2170,2943,1662,-6709,-471,958,-1012
2171,3035,-5409,-3821,38,-327,-360
2172,6560,-4802,-197,-1706,-69,-286
2173,-6904,7664,5123,-586,-1323,-547
2174,5693,7533,708,-1136,1711,-579
2175,3030,-2187,-2141,-1781,-349,1450
2176,1564,-1851,-6497,475,1501,-1125
2177,3764,-4073,-820,215,624,322
2178,-6860,5318,-122,65,-1190,-1399
2179,2461,3130,-7081,-1941,1299,-1224
2180,4349,-6780,645,-1427,663,1212
2181,-6585,1717,5305,-1872,279,-1927
2182,4710,-1769,-3255,-1585,-1000,1430
2183,7437,1060,-2194,-1288,-574,1241
2184,5120,-3840,-6302,-1712,-1498,586
2185,1003,-7796,-1676,-1847,530,1039
2186,-7954,-4876,-7888,876,937,-802
2187,7897,-2651,-6916,844,699,-160
2188,-2502,5281,-5184,-1291,-658,405
2189,-7979,-4233,1590,-130,-906,1649
2190,-6511,-7499,-6914,1893,1680,-1190
2191,391,-5964,4800,843,1400,263
2192,-64,360,-5976,42,446,-557
2193,7225,2128,-5653,-1271,-800,-958
2194,-657,2911,4623,-1002,1860,816
2195,-5389,1844,2065,-1544,1288,-1607
2196,-548,-6008,4557,1092,919,1452
2197,5457,-325,-471,-1179,217,1860
2198,3254,1236,1154,1809,-74,-1102
2199,-4216,-1455,6982,8,1753,1011
2200,7146,-7406,-1391,15,1085,-995
2201,-4111,5547,6413,550,-1235,-904
2202,-3023,-4965,3625,209,503,-1705
2203,1036,-7089,-4098,1416,-1361,754
2204,6281,7055,1378,-325,396,-943
2205,-3261,-4012,6939,-1453,-252,1458
2206,-4358,7504,-1431,-185,728,-1440
2207,-2327,2144,6461,1980,1698,-481
2208,5080,6825,-6145,-251,-287,1594
2209,-7234,-3886,2265,1532,1690,521
2210,6092,-7234,3325,-458,1177,-38
2211,1499,4557,1080,604,-710,1317
2212,3827,-1192,-7539,1454,-1902,-771
2213,2670,4633,-7741,267,1873,-441
2214,-4113,-5412,7986,-782,597,81
2215,-7045,3337,-7700,-178,-78,1315
2216,-5943,-2156,1632,255,484,-1607
2217,-2122,6907,-3161,-1373,-952,1611
2218,-3465,-1439,-3642,-1029,1512,-1748
2219,3329,-1758,3098,-102,-1213,-225
2220,-3631,5809,6869,-980,-1668,-72
2221,3271,-5095,-3297,779,-732,1096
2222,2940,1154,580,-815,635,971
2223,-4123,5874,2359,-130,-797,-427
2224,1197,-6929,-5570,-70,673,1383
2225,6544,-2382,-1690,-698,-342,-1863
2226,-6687,6544,-6142,-1224,-1679,322
2227,-5285,-648,-2262,-742,543,1397
2228,1254,734,-1160,802,356,432
2229,4385,551,7695,-392,1511,-276
2230,7664,-1725,-388,-479,-1507,179
2231,367,-1197,2300,1827,1683,1357
2232,6833,2263,-1983,-1894,1978,-1197
2233,2370,-4133,7507,1193,-830,353
2234,-1330,4482,-7701,348,1752,-1490
2235,-5909,1681,-7921,-161,-162,1410
2236,-3309,-3506,-2796,-259,552,1435
2237,1657,3234,2947,1707,1678,1216
2238,-5656,801,1265,-224,-1608,788
2239,-1829,5547,2409,292,-580,1426
2240,-1709,4727,-1490,-475,1550,688
2241,3693,732,4534,1603,-1429,1922
2242,6063,-6612,-1541,43,949,739
2243,5851,3630,-7336,1066,-964,-587
2244,-4570,2010,-1775,1677,1246,-550
2245,-2667,-639,2696,543,-280,-853
2246,-3666,7665,763,299,-201,552
2247,2319,6875,-290,241,1350,640
2248,5991,4146,-657,-906,-98,-358
2249,-3798,4574,-7291,988,-1132,-1320
2250,-7801,-1392,2690,734,1694,-229
2251,-4318,1731,-4996,-1826,663,-190
2252,-7734,-3885,6266,-791,1987,-1218
2253,12,3998,7215,-1887,-1445,-1542
2254,-2236,-698,7232,1738,-569,1153
2255,-16,2940,6245,-1312,-285,-96
2256,7385,-345,-4819,1322,1130,203
2257,383,-3617,4256,128,-1211,-1182
2258,3915,5182,-6086,-44,279,867
2259,-6468,-5103,5849,-115,-149,-1300
2260,3223,7335,-19,-1220,1291,-1549
2261,4439,7132,3732,749,-1624,-426
2262,5295,-2514,-6289,318,-191,1106
2263,-4090,2850,5466,239,-25,1613
2264,-6833,-3322,5699,1092,-1635,-874
2265,1910,3898,-3583,477,1190,1399
2266,-2958,-6942,-3282,88,1083,931
2267,3960,7947,7233,-1451,-1316,346
2268,-5138,-1801,-5713,-233,751,674
2269,-2354,6629,-88,-1852,-222,-919
2270,-2443,-3572,2761,624,963,-1916
2271,6731,-1914,5756,293,65,1556
2272,4784,1703,4749,-391,575,-1272
2273,-5893,-6577,6796,1633,-1394,1935
2274,-332,1377,-2341,-79,1981,-296
2275,-3110,-7784,-1732,1288,-400,124
2276,-3232,4833,-6206,380,1001,5
2277,5506,-2068,5487,1766,1368,-198
2278,4073,-2634,-1078,1372,-627,1270
2279,2174,1080,6265,1425,-1078,-224
2280,2402,4928,4333,-1698,141,-237
2281,1199,-1542,2331,-1672,-1914,-213
2282,-5344,-2287,-6561,-1425,1835,-90
2283,5116,-1363,-1327,606,-1065,1390
2284,2107,6026,-3210,-1937,-988,1163
2285,-2941,6382,1315,-813,-1907,417
2286,2805,-1849,-7094,-1904,-1168,754
2287,-4497,-7881,-1350,762,1107,1943
2288,2599,4953,3386,-633,-934,-252
2289,-6279,-7677,640,-1982,-33,1006
2290,-3563,3488,626,943,858,915
2291,-1605,-1402,-6227,1157,1062,-525
2292,-4158,3883,-3256,-823,-554,177
2293,-786,-4996,-6908,-1768,-711,1825
2294,6016,-424,-7480,-1859,-1296,-1433
2295,-2082,883,6535,-1624,-901,-232
2296,2509,-4091,3992,-1500,-685,-1452
2297,7519,3882,-6048,-1763,-1172,1918
2298,1728,5461,1507,485,726,1100
2299,4381,7507,-2870,-1406,130,1131
2300,-6243,829,2681,157,-1327,-759
2301,1878,-4629,-6918,1926,-1414,696
2302,953,5736,3365,567,-1026,-269
2303,-1879,7090,2890,1998,-1605,1525
2304,-7551,7848,6954,1667,-1032,-462
2305,-6924,3492,6740,-197,1287,1714
2306,7448,1879,-162,1170,-647,-1375
2307,3733,7268,-3989,-886,-563,1607
2308,4503,-6211,-4105,1934,838,-963
2309,2967,-3503,1051,1935,-1310,-184
2310,7008,-2968,-4201,-1928,84,295
2311,-2442,-1519,-7036,1511,-649,-1555
2312,3902,2252,-1040,-1017,-1588,-239
2313,-4513,5293,952,1770,-317,1299
2314,-5543,1762,4173,-357,-1082,578
2315,-861,-2469,-4753,-1107,-151,-423
2316,1500,5060,3751,-1259,1874,1298
2317,-351,-6195,-3900,-733,1018,105
2318,3985,-5362,-4521,-1425,-281,-1815
2319,-4790,-2679,7670,-56,-1466,284
2320,1540,2196,-4521,-1114,1854,-539
2321,-1899,-5493,-1511,-1893,1917,1053
2322,-1763,-3481,-3168,-1777,1690,730
2323,6343,-456,-1997,310,-139,-91
2324,-7202,-3661,2672,1173,1277,1558
2325,1870,-6400,4624,1713,1438,-1576
2326,-5505,-2734,6395,1876,-1026,1632
2327,-404,4865,-35,-1759,1683,-1059
2328,4610,7925,674,-1877,-698,-1167
2329,3930,-3490,2710,-1989,616,1366
2330,4473,2066,1617,-345,-1662,-612
2331,5213,5588,-3485,-807,1820,1951
2332,-1469,1408,6872,-29,-1206,1046
2333,-1044,-5228,-787,-1544,42,-74
2334,1769,6898,-5654,-381,764,-1247
2335,2424,6171,-257,1510,1937,-172
2336,3624,6955,-6089,-701,-1904,-897
2337,6293,-4358,-2998,-1730,-179,1652
2338,29,6477,-3615,-1247,1155,798
2339,-4168,906,-659,224,-1523,-1520
2340,1271,-2247,-5448,-1394,243,1846
2341,6066,-4695,3272,1729,-827,-126
2342,-5750,2408,1243,797,1382,41
2343,2037,-3829,-5761,1132,-876,-1361
2344,4992,4751,-598,1188,1867,801
2345,-1241,-1444,-3892,-613,169,-904
2346,-1006,2557,-1879,-315,-265,-1625
2347,-888,4100,-7366,864,442,1166
2348,-5204,-6794,847,-1565,1387,1277
2349,-5573,-6940,-4833,-273,1080,-1480
2350,4082,3060,-6100,495,924,836
2351,-7455,-5011,-7618,-1752,-911,-849
2352,7229,-5164,-1724,1641,1033,563
2353,141,-1655,-4091,-225,-737,-103
2354,1527,3824,6736,-675,1874,769
2355,6499,3891,-1053,-1090,-1799,-930
2356,1878,2988,3191,1558,-1482,-791
2357,-4893,-2976,5116,1294,-1346,1964
2358,1979,5412,888,-1428,-237,-1715
2359,-6139,464,5825,-1488,145,-476
2360,-3986,4384,5779,-1638,810,256
2361,736,3484,-4356,624,-357,676
2362,-2539,-6181,-2759,-1888,131,-1119
2363,157,-879,4895,406,1356,469
2364,4291,-3691,-6253,314,307,883
2365,2333,6079,3563,-1984,-1733,791
2366,3046,3040,2317,-899,-1285,-137
2367,-7700,-4216,-2415,-458,109,-201
2368,912,7300,-6926,-1055,-1318,1889
2369,-1721,7818,2070,-618,-238,125
2370,-472,977,-7829,302,236,812
2371,1338,-7833,-2918,-495,908,36
2372,-1312,3392,-4286,590,-265,-715
2373,7481,-7397,3450,-1569,705,-1031
2374,1751,-7392,3041,536,-894,-77
2375,5612,-6547,1328,454,283,1906
2376,-6541,-4894,-5693,-826,-1276,1295
2377,3414,-5126,-1204,-1108,1933,71
2378,-6002,-334,7024,-1,571,-1857
2379,6528,536,-2228,941,1614,-1501
2380,-7274,7403,-5680,1032,-1905,47
2381,6999,7375,-1863,-1327,-673,-1805
2382,-564,5163,1061,649,-63,-1345
2383,6416,1589,-438,1141,-309,-842
2384,-5576,-1990,-1706,927,-1672,-1016
2385,-7329,-1694,-3633,881,918,-777
2386,-4190,-5654,-2250,1065,-1757,-351
2387,7626,-771,455,1885,-109,1631
2388,-5176,-6468,1850,-550,1496,1991
2389,2522,-4224,6446,-624,-815,111
2390,6703,-1012,993,-1897,885,1174
2391,588,-2968,-3593,1701,116,-1195
2392,3344,7663,-7386,-1510,827,-1046
2393,7721,-7170,-1476,-905,-747,588
2394,-7480,1162,-4845,-1951,-1956,573
2395,2774,6165,7983,-1050,1771,-1171
2396,-7889,-2764,-4076,-528,-305,-761
2397,1371,5076,-5132,1808,1734,1094
2398,-493,5016,-363,-81,524,1883
2399,-7299,-7050,-5850,392,149,-219
2400,3488,-1763,-6233,-1692,1996,1036
2401,-4339,-5829,992,334,-211,-1674
2402,-1667,2383,1053,1712,-639,1014
2403,1806,-1297,1082,-1695,-1332,-1938
2404,-6915,5668,-1252,-947,-1534,-1990
2405,-4257,-322,-3354,495,1544,468
2406,5602,-5327,-5308,1748,968,-280
2407,1664,3002,1995,1586,-1421,-1234
2408,-3570,-5535,2463,-481,568,-1901
2409,-1504,-74,-4872,-807,510,331
2410,4114,-6015,-5319,846,96,1363
2411,5532,-873,3837,1635,-899,1122
2412,5492,-2996,-7866,-33,1296,-92
2413,-3550,59,5035,1043,746,1675
2414,-4930,-6318,-1638,-1102,712,-819
2415,-4595,-5022,547,-929,1374,1835
2416,594,7074,-164,491,894,1854
2417,5220,3695,2789,-83,-908,1088
2418,-4416,3405,-6941,-1697,-854,-1042
2419,5470,-387,7577,-85,-800,1271
2420,-512,-7718,-1219,269,1307,-271
2421,4940,425,-7573,-1221,40,-890
2422,-4378,7467,1895,-1550,-899,-1759
2423,-395,-5791,4118,-1740,-213,-966
2424,2114,-7155,-5858,-441,-466,1507
2425,3862,598,63,1165,-1391,1508
2426,7873,-5169,-213,-1925,739,990
2427,396,-169,7616,179,1149,-1273
2428,-4799,5537,-5253,1724,-763,1686
2429,1466,640,-1317,-170,-713,-164
2430,-6015,3431,-3202,-1637,1318,173
2431,3758,-4898,-6848,853,118,-1656
2432,2701,7341,-6622,-1007,-536,-1757
2433,3327,-1091,2289,-1785,47,1732
2434,-3222,2771,-4468,309,-209,1256
2435,-6330,-7887,5649,-1260,-774,11
2436,174,-7770,-4730,1964,399,-1130
2437,-595,-3140,-2478,1724,146,-1344
2438,2023,2448,-5616,428,-1827,-604
2439,4678,3174,4858,699,-872,-53
2440,-4127,-2360,-2560,1566,-1000,-937
2441,-4160,7342,-7573,571,-1546,1878
2442,1518,2235,-849,-1804,-1126,-1534
2443,6117,-2675,1636,-1781,-25,1024
2444,-3562,4246,-283,-1139,-1000,-1950
2445,-5875,-1012,5203,-779,1629,1644
2446,7205,-7425,2091,962,-212,1838
2447,7705,3347,3002,-1164,1462,-1175
2448,3784,4408,-5765,1244,-1513,49
2449,5510,5067,-7893,-1529,-1875,-1931
2450,-7426,779,5003,116,1839,-360
2451,-6610,7785,-7334,-1282,1183,-347
2452,2460,-6055,-2891,1490,661,182
2453,-2070,-146,5766,-1201,971,1100
2454,-6953,-2804,1381,-1348,1332,1024
2455,6691,2785,6817,1631,670,413
2456,6432,967,5612,-575,-1287,414
2457,536,-6141,6311,16,885,-357
2458,5275,175,-5665,1760,23,303
2459,-7081,-3238,6375,779,1049,1018
2460,-1505,-714,4827,-1009,-1924,698
2461,4760,-6358,4878,1459,1639,365
2462,-5319,-4724,1739,1726,-260,1879
2463,898,2154,-6482,243,-988,544
2464,7003,1607,7158,-288,-1754,-938
2465,1160,2597,-7,701,466,850
2466,5802,-438,-4773,1767,-1567,1060
2467,-5951,7257,5808,-1330,1253,-1346
2468,3354,-647,-7392,545,1389,43
2469,4736,2398,7660,-1304,1321,908
2470,3532,6071,2514,-986,77,-392
2471,-5875,465,-7749,-1459,-165,1499
2472,6557,5941,-35,-1268,1888,1781
2473,2000,-4271,5262,-869,170,-346
2474,-644,-6514,4664,873,591,-168
2475,4492,5684,-5844,-99,1782,974
2476,-5659,-4076,-5338,1630,-596,-499
2477,-2043,-7697,3981,344,-453,-151
2478,-1368,-699,5299,-42,504,264
2479,2614,5116,5823,579,-1953,-1712
2480,6073,-4587,-7491,96,1179,913
2481,7402,-5944,-5356,1910,-224,1152
2482,-3688,-210,7836,182,-63,-951
2483,-7503,7215,6547,1738,-1070,-615
2484,5262,-682,-4218,1675,-1912,1574
2485,-7961,-7198,-2626,-301,-1700,671
2486,-3510,7519,-5958,400,709,-651
2487,7790,428,-6683,-1612,-845,46
2488,1940,5236,-3506,1595,-215,1099
2489,6598,4358,-2243,-452,908,890
2490,-5029,3558,-6434,-311,1957,-685
2491,1239,6090,7858,-1429,623,888
2492,-4415,-1842,-7951,190,-468,236
2493,-2208,7476,-6327,-1496,1946,853
2494,-858,-4944,-2421,1093,-1339,-1880
2495,-877,2561,-355,-370,741,1797
2496,2132,-3473,2459,333,-1845,1496
2497,4177,-7580,2554,86,-752,-580
2498,-4626,-1046,-586,334,866,273
2499,3529,-4229,7013,1303,-1833,-1280
2500,-440,-7836,212,-1170,-708,720
2501,4043,-5593,1730,361,14,-1647
2502,-2674,-4000,-1242,1353,-1302,1006
2503,-4646,-6121,-6302,-1045,-593,-448
2504,6691,-7337,6314,-1323,-1550,619
2505,-7270,5048,-7121,648,-1892,-703
2506,-2739,-6350,2080,-554,1309,827
2507,1353,7158,-7591,764,-496,733
2508,4922,1180,7837,798,542,-1601
2509,-7708,2775,-1594,1647,1446,2
2510,1606,-2258,-3252,609,-1684,1728
2511,7220,5609,-1251,1063,488,1013
2512,1811,4651,2889,-1814,83,888
2513,7356,-3847,-2101,-1813,-1267,-334
2514,5315,-7273,6766,105,1839,74
2515,611,5885,1923,-1508,722,-1143
2516,-5403,7945,-7776,1091,1573,-274
2517,5886,-5615,5755,-297,1791,-1935
2518,-4491,-1510,2065,-162,-1616,34
2519,7314,2411,1123,-73,793,-72
2520,-3397,6601,872,143,661,-382
2521,1299,6849,-3764,-1016,86,461
2522,7440,504,6086,-359,-128,997
2523,-2064,3048,-2350,921,-1882,66
2524,-187,3446,2704,329,1495,-917
2525,-5143,2824,5238,-481,438,949
2526,5588,-1299,7414,1058,1453,-1004
2527,-3938,-2855,-7199,473,214,-362
2528,3903,5728,-2774,-879,-142,1975
2529,660,1618,-3566,-1657,-902,240
2530,-6497,7315,-3001,752,1919,207
2531,-6081,-3526,4610,-1930,1606,1491
2532,-4628,-7026,-7909,-1038,-1865,-434
2533,7583,-7379,7267,360,-1607,-677
2534,-4555,-488,5714,-381,-723,442
2535,-3851,7988,237,448,-1682,1049
2536,-3013,-2480,1271,1122,1866,-127
2537,1553,5375,-7687,-144,-230,1709
2538,-3490,4582,-5946,-1195,-1222,1983
2539,992,-6829,-1699,-643,1663,565
2540,-445,5274,2152,-579,240,-387
2541,4494,-3586,-5880,-800,1615,-1859
2542,2682,4100,-4330,-802,1742,71
2543,-4554,7748,7627,-954,421,1695
2544,6384,-7502,-4360,-1726,-1419,-1734
2545,-409,-7657,7312,599,-247,585
2546,6014,-616,-5482,-1814,293,946
2547,-5390,6974,3867,1877,-676,-1907
2548,-1754,7427,5751,-932,-1805,949
2549,-555,7738,2170,1135,1061,-546
2550,-1063,7958,-6430,1123,-576,-1984
2551,2878,2836,259,-794,1368,35
2552,4211,4319,-5616,183,-1245,1223
2553,-5381,2907,-6122,-1292,-1012,-144
2554,272,-492,574,1926,936,666
2555,-1244,7725,-3322,126,834,249
2556,5634,-4274,3890,1257,341,-1065
2557,-4923,-59,-6240,1910,492,1641
2558,1352,2017,-1654,-263,1993,-914
2559,1273,1532,-7425,-866,348,-1105
2560,-6007,7262,2122,1247,-768,-1688
2561,-6368,6192,-3199,-1540,-738,-1578
2562,-1240,7168,-7749,-238,-1832,87
2563,-3058,-3094,3346,-360,-1723,1047
2564,2603,103,3827,655,1844,726
2565,-5415,-4712,-6878,-507,1746,47
2566,1034,-4494,1295,311,-311,1919
2567,-2800,2192,5129,-413,-97,418
2568,-2981,1331,-1503,-893,1978,932
2569,138,1550,-4649,-1814,-1814,-110
2570,3337,2568,2951,1971,-1740,-462
2571,2532,-1882,3836,-1748,1941,1053
2572,-2249,-5088,-2832,-438,-300,-840
2573,2434,3416,4799,1452,-817,1873
2574,-6709,2002,-6190,1504,198,-625
2575,-2185,-1762,5948,60,1422,1933
2576,6186,-1993,-2270,54,-1976,853
2577,4695,-425,-3367,-1250,-1810,-1548
2578,5752,-3335,3537,1649,1513,-276
2579,-2998,-3887,-3076,475,1882,-1733
2580,-7307,6144,4397,1286,231,-1955
2581,-4796,-2960,910,586,-1239,1840
2582,4138,1268,7273,309,-1086,1379
2583,5574,-5284,3400,-1086,1270,1753
2584,3482,-3157,3780,645,-1685,1488
2585,2204,2431,-3743,708,45,1802
2586,-341,-1029,-4068,-119,1098,-1646
2587,-1979,-2880,5896,-778,-172,978
2588,7573,-4705,-23,448,-1063,1781
2589,5779,-3392,1191,-51,327,810
2590,2818,2035,-259,116,-695,1203
2591,891,-5372,-4775,676,631,-633
2592,-1212,-3527,1898,600,-494,-715
2593,6027,-1615,-961,1660,603,1956
2594,4773,7318,3500,403,-1589,416
2595,-6113,-2194,1598,-418,177,73
2596,7185,2181,134,-1461,1077,-511
2597,3242,-3240,-7448,1994,-1793,672
2598,-2940,7685,-7148,947,-1350,632
2599,-4028,7093,5388,639,577,635
2600,-3346,-2704,-5534,236,1020,317
2601,6223,-523,-3737,814,87,1377
2602,-228,7362,-2768,1105,-1809,-368
2603,2959,-5777,-598,-142,-436,-465
2604,1500,1116,636,-1893,648,1932
2605,-3980,3064,1386,935,-8,483
2606,-3828,2078,5683,-1116,1632,-466
2607,-1868,-2232,-5266,139,-847,269
2608,-2115,7123,2361,-1632,1317,-1928
2609,4423,-4499,5216,252,1871,737
2610,-1168,-4812,-5774,32,-682,-1541
2611,3167,4035,-5916,-1800,-1411,1231
2612,-1932,6162,-2271,1203,-717,-1942
2613,-2326,100,5528,1077,972,-1813
2614,-2494,1945,4676,1136,60,-663
2615,-1239,-221,1604,210,-1184,-772
2616,1316,442,4302,-628,-154,1743
2617,6595,-4679,6024,-516,931,622
2618,6735,3587,-7706,-105,-1222,1896
2619,4201,-2926,-5779,1596,1193,225
2620,-1881,7062,-6613,-421,885,-1102
2621,7430,-4136,-3414,-151,986,-745
2622,-87,6995,3964,-1631,690,1229
2623,-3845,2128,1328,1712,-1217,1004
2624,6182,-2516,-1520,964,1684,849
2625,-600,-2077,-7605,-1610,-412,-1176
2626,1625,7515,7909,1244,-375,374
2627,-5010,-106,817,-1342,1495,-1073
2628,3080,-3741,-3496,199,1863,422
2629,-2810,-1130,3259,-1857,1116,-466
2630,2624,4771,518,1583,907,-170
2631,5436,-2107,2802,329,-992,-388
2632,6582,3519,5598,-864,1673,1106
2633,4269,2265,-7392,851,770,-906
2634,-466,-6573,50,-762,-1884,1389
2635,-4280,2261,-1069,-1561,-1627,-249
2636,1830,-3620,2682,-406,865,652
2637,-5021,7036,-6592,1819,859,-1956
2638,3072,-685,-3022,-920,1539,-1131
2639,5217,2398,4896,-195,-357,985
2640,4532,731,-4602,-1729,-803,-1207
2641,6692,-5898,-6255,366,1777,928
2642,382,-6138,1575,1916,277,-124
2643,5120,-6473,-1350,571,-1222,-1126
2644,-2825,3235,-3399,-1409,1924,-39
2645,4723,5855,6418,1424,-394,8
2646,-4409,5327,-767,-625,1,-276
2647,3864,-1017,7265,-1357,-1149,-1850
2648,5447,-2349,-2272,343,1696,-1770
2649,1104,-3628,6335,-1989,-1369,-650
2650,-4731,-2826,-5247,30,1714,1738
2651,5442,6888,-2092,-1042,717,1691
2652,7172,1047,1037,681,1779,1683
2653,-4090,4012,-7243,1022,-321,-18
2654,1395,-5304,4307,-2000,-122,-963
2655,6645,138,-1588,-1673,762,-312
2656,169,-3457,-3921,-904,1541,1369
2657,5981,2069,1741,1881,-1102,696
2658,-3603,-6758,-5792,926,1793,324
2659,-1203,6736,4072,1861,-393,-80
2660,-3577,-6237,253,32,59,-1849
2661,-7980,-5630,-5618,623,-795,1822
2662,4062,3282,873,-192,920,-1079
2663,1065,4354,-6992,565,1822,-925
2664,3593,2156,3869,-996,1741,1503
2665,5092,3423,7450,-1173,883,-538
2666,-7817,-3066,-6477,167,-1652,-1582
2667,-372,7387,-926,838,1603,-563
2668,6818,-5449,7260,-736,-279,1219
2669,4895,7739,191,-22,-833,-1492
2670,-6272,-7838,2266,955,1888,-1578
2671,-2351,-3289,-4812,-1643,-1851,1405
2672,-1010,702,6765,-779,-1385,-843
2673,-1004,-2978,-2957,-1644,281,885
2674,664,-642,-193,-1106,460,765
2675,-3274,690,3912,1118,1737,1885
2676,1900,7101,3765,-121,-1021,1191
2677,7331,3291,-1803,-1854,-329,-211
2678,5005,3394,-407,940,500,-1923
2679,2881,-7434,-1818,901,1818,1087
2680,4112,-308,-4412,-652,282,698
2681,-7990,-6260,1253,808,460,-117
2682,-3196,-7567,4038,-823,1877,-690
2683,1014,-5434,-3721,-1939,421,586
2684,-2248,3431,2063,1976,1661,1833
2685,7384,4800,-2368,1671,412,-1797
2686,-6830,-5196,1087,-322,-920,-744
2687,-7276,-5570,190,-1209,1498,427
2688,6891,-4448,-3065,-1456,-557,1302
2689,-7979,-4519,6434,-780,-1595,1084
2690,-1866,-1988,656,-934,-1244,-1694
2691,-543,-759,3791,-1926,-420,823
2692,-7492,5913,-3878,-454,-147,-587
2693,-5678,-1017,-702,-1533,1959,1909
2694,4121,-663,3393,1493,1197,1821
2695,5258,676,371,-170,-1572,-339
2696,6866,-3707,4509,-103,1066,-1260
2697,7292,-533,7889,-573,-1457,-1337
2698,-3990,1125,-1847,1591,-251,1377
2699,-7524,7318,-975,-789,-1599,1849
2700,-4106,6432,1159,1031,-1947,-1446
2701,-7164,4808,7715,1903,-1573,-1990
2702,-3555,1339,5245,1997,195,-306
2703,-2371,-5558,-5156,-1718,-1049,-1707
2704,-7121,-3547,4498,331,747,-1554
2705,-7220,1905,-3940,1479,329,143
2706,-6862,-6199,3523,520,-1860,72
2707,-509,4373,-1889,-588,1680,178
2708,6613,-4406,6946,1185,654,-493
2709,-2156,-2411,-6109,1699,-1642,-1649
2710,3051,-3068,-3582,879,1524,1424
2711,355,5461,4042,-550,1299,247
2712,5168,-5266,427,-1244,-1175,-710
2713,-3623,-1713,6913,735,-228,-62
2714,1831,4337,4699,1153,-1727,1742
2715,-4985,-2346,-3685,-420,5,-302
2716,6809,-2519,7618,-1912,-1797,452
2717,-6582,-3546,-4293,-1688,-926,543
2718,-1433,4347,5019,-1788,1887,1013
2719,-4800,-2688,-7764,-1056,1357,-1166
2720,-7809,966,6087,1630,1328,226
2721,7356,472,3125,-195,-388,-1271
2722,-1496,-3638,-7306,-1272,-1331,-1957
2723,-2675,2936,1850,782,1992,1212
2724,-4847,7171,-6095,-107,356,-293
2725,-4577,1791,1415,1227,-1655,-1939
2726,-7789,-5252,7347,-1292,1328,1270
2727,3058,-4401,4061,-1725,-1495,-242
2728,-4661,7045,3780,700,-2000,1002
2729,-6545,-5256,-2565,98,-982,92
2730,5657,6181,6468,-1655,-314,-973
2731,7416,6436,-5508,1153,-650,-535
2732,-4560,-4318,-4823,731,1438,-572
2733,3123,-2678,-2901,-74,482,-976
2734,6494,6854,-3864,1134,-1027,557
2735,6136,-2434,-6971,-1729,-1410,1926
2736,-1233,3424,1290,1809,-382,783
2737,6158,2261,3785,213,-194,754
2738,-3918,4437,-669,-131,-1935,-1705
2739,3635,-7259,4138,1838,-1528,1803
2740,-6065,7647,2149,1500,-1773,1316
2741,-159,-6743,-2220,-1104,1657,242
2742,1919,-4300,-2800,1461,-312,467
2743,-2090,-5155,2255,-1405,910,-569
2744,5688,5082,7720,-312,444,-857
2745,4133,488,5960,1912,-1097,823
2746,-7244,-6393,1360,1175,-1192,1881
2747,6195,5094,1303,128,-133,854
2748,5182,6439,-732,-1035,-1561,-135
2749,-7898,6514,1555,-1173,459,-261
2750,4381,-2628,3529,-1203,-279,863
2751,-7012,2007,4349,299,-1351,1608
2752,2739,-7168,-6644,-1133,-1719,692
2753,-1582,459,-3507,-230,-1643,-1670
2754,457,2100,7394,1475,1858,-1552
2755,-7023,-749,-2290,1783,592,-293
2756,-6568,-2551,-3067,312,411,-775
2757,-4933,7897,-7903,118,-219,319
2758,588,3607,3718,-815,-1728,1471
2759,-5896,3123,-5936,1417,1525,-626
2760,1721,1970,316,1738,3,-270
2761,-4497,3186,-7260,-1958,-998,-1806
2762,-982,6284,2858,731,-218,-108
2763,3771,3868,-1733,-96,1241,428
2764,4541,5404,1526,1835,1127,-560
2765,-3682,1490,-6343,-253,-637,-1772
2766,-898,6267,-4097,1434,-1316,-836
2767,-2571,7251,-2113,1542,-841,1941
2768,3325,-6272,-613,494,-90,-612
2769,-7633,7321,-163,-1341,-431,741
2770,3526,6756,-5875,1866,573,390
2771,-3667,-1542,2147,267,1986,-405
2772,-578,7620,7866,157,1373,4
2773,-4554,-2779,692,570,1744,1029
2774,6911,-3487,-6502,791,-1461,-337
2775,-697,130,-6143,1483,-324,-178
2776,6520,6809,7588,13,-1828,-1829
2777,3801,-5719,-7223,1449,508,-1403
2778,-5114,1942,5480,-296,-1740,-254
2779,666,6823,-6228,637,527,-1930
2780,6785,-3935,-7066,1529,-783,1024
2781,4581,7413,-7476,-222,1914,823
2782,3318,-3238,7129,-70,-445,-1614
2783,1725,3737,-6947,1035,1491,1776
2784,-3125,2493,-1186,719,728,-1189
2785,3586,3486,1738,406,993,768
2786,-3684,-1711,2641,-422,-1243,-1735
2787,1425,-7094,-4155,-1731,56,662
2788,-4308,5779,-4133,1077,-1593,960
2789,-4675,2597,287,1269,1609,1678
2790,-2378,-2746,7672,-378,509,802
2791,5214,-5098,-2722,74,-326,1940
2792,-6560,164,-5366,371,753,-1644
2793,-7009,5350,1582,1612,1484,-1673
2794,6650,3138,1886,709,-1964,929
2795,-214,-4722,5680,258,1042,-776
2796,6714,322,-7469,-451,1677,-1257
2797,1790,-5692,1575,-1147,358,748
2798,5720,-3299,-3193,-871,1585,-1681
2799,5834,-6162,-6872,926,-261,709
2800,-3606,-3609,437,1660,1078,-933
2801,2023,-72,-70,-1767,382,1532
2802,6743,-3784,1595,-992,-56,1763
2803,3790,-7670,4039,-291,-641,1274
2804,793,-2755,-2474,409,-747,-1921
2805,6260,-1669,-1420,686,1221,-1156
2806,-2848,-7261,-1970,-1373,-1793,94
2807,-237,-3708,7696,1354,1513,1014
2808,439,1745,-871,-1656,-1982,-677
2809,-5221,-6921,-5388,359,288,543
2810,-6372,6150,5236,1417,315,-1615
2811,7337,-1627,-7525,-256,1578,-1143
2812,4671,-1321,7719,856,40,27
2813,4389,3138,6209,1436,-1300,234
2814,-4678,5833,3252,-653,720,-1713
2815,1697,1159,7060,1945,940,22
2816,-6241,-5743,444,-4,-753,-45
2817,-6581,-2118,-426,1216,792,540
2818,4552,6296,2712,1311,-820,538
2819,2585,3721,5753,-746,-738,-327
2820,-6355,-4349,-917,1955,1992,1087
2821,1739,3713,7066,443,-1650,-1274
2822,4368,-6157,-4893,332,939,-1215
2823,-5462,4177,5281,1362,-153,487
2824,3289,3834,-5635,-519,1619,-1112
2825,-190,-2121,3313,-679,1228,-199
2826,-3183,6535,2528,761,1161,559
2827,7947,-4766,-3762,-1240,-449,-222
2828,2875,3736,2381,-390,20,-1049
2829,5686,-6001,5549,-1079,1350,-449
2830,4900,-1742,-4907,1950,-715,813
2831,2419,457,232,-56,-1984,-523
2832,-273,-5770,-3400,-927,177,847
2833,5492,-1071,6783,-1707,11,583
2834,-1107,-1383,7568,-1281,-1625,-1694
2835,1471,-5950,-4189,708,-1949,-679
2836,-5144,7795,-5464,-1844,1200,-1298
2837,5196,-6524,-3032,1240,1270,-597
2838,1689,-3409,7083,803,-839,603
2839,-969,-2684,-6163,1114,-962,-1276
2840,4608,-6032,-2238,-57,-1574,1054
2841,-863,-4870,3166,1914,-1088,-288
2842,7641,2281,-2491,-1807,1929,859
2843,-743,6565,-2763,-1957,1057,-212
2844,-4449,1765,1026,-1865,-1483,579
2845,2280,-1976,7865,-1884,-1366,880
2846,-4545,-756,2068,-867,-1605,-1423
2847,-3650,-7457,-5565,1758,1315,-1319
2848,-6637,-2122,3303,1083,-929,989
2849,-7364,-5449,3668,-1554,778,1902
2850,620,-7633,-1623,-232,-1666,545
2851,6202,-1035,-6387,-632,-968,839
2852,-726,-5412,7064,313,-963,-449
2853,-4175,-6539,-5225,-1259,-1874,-1247
2854,3040,-2405,-6042,-1169,63,-1798
2855,5126,1352,-7855,1623,-1855,-899
2856,6694,-696,7098,561,-308,-783
2857,5515,3186,-5167,-901,1925,1724
2858,845,-6800,-5505,1750,-1364,1204
2859,-4101,-1551,7877,1658,-1437,1818
2860,-923,-7833,7032,1957,685,1659
2861,2323,5364,-3271,757,-254,910
2862,7414,3801,-4880,1429,1535,1844
2863,5644,5484,-1574,-755,565,-946
2864,27,-986,-6790,1433,-1745,248
2865,-1175,5122,-5316,-842,1742,-69
2866,-5564,-2468,6535,1519,-73,-949
2867,3150,-7138,-984,-1717,735,1017
2868,-7590,7995,-4035,1868,-1161,1473
2869,5905,-2745,-2309,1933,-145,-1462
2870,1007,-7364,-949,504,1738,977
2871,2521,2481,-2834,-1537,1509,-1461
2872,6574,6028,2070,1722,-112,1006
2873,-6964,-2341,4057,1461,1244,-936
2874,-2896,-6001,-1306,434,779,1549
2875,-6443,-5183,-4329,-841,-1656,1661
2876,3769,1545,3934,315,448,1198
2877,6245,6409,-1000,-613,106,-1433
2878,4628,6362,2192,-1318,300,786
2879,-2220,-3929,-995,1328,165,-1677
2880,3214,4057,7692,-117,-1752,1314
2881,3759,-7789,-7201,-1559,1813,1145
2882,-3017,-4904,-7420,329,1753,664
2883,269,5856,1106,-1040,-943,-1064
2884,6058,1249,-5953,-489,1780,-778
2885,-6423,7545,-6936,-1670,-1753,-563
2886,-5141,-649,5423,-1429,-157,1938
2887,2559,-5726,-6374,-209,-1926,-1582
2888,-2197,3401,-2622,1259,-1808,595
2889,3579,4809,2137,241,-588,1044
2890,1108,-998,-2961,-90,-1873,-217
2891,4625,-226,-5147,1728,-1674,-1852
2892,-3406,4700,4555,1967,-1410,1042
2893,4362,5534,3190,-49,-49,1181
2894,7610,-6445,-3139,-1290,-1396,1205
2895,-4853,-3023,-5517,-597,1793,-283
2896,-1481,6510,-6818,-985,-79,-342
2897,2479,2187,-7896,-265,-233,1413
2898,-7892,208,-1456,-1242,1508,1149
2899,-4461,-7393,984,-1766,-1483,1571
2900,7652,2419,-1704,-654,-1993,506
2901,-3392,-6834,6678,327,-137,522
2902,7738,-3291,6849,1047,-638,-1451
2903,2883,-1728,5790,-1502,1250,-1436
2904,4449,4544,-6861,-88,-665,-1219
2905,3168,935,-4365,1965,-900,-1553
2906,7935,-3747,623,817,1895,-895
2907,-2086,1616,-2653,1725,-1897,1746
2908,-4271,-5468,-4748,-942,-1610,1873
2909,-4551,-4202,-1918,1635,-1887,1333
2910,-5824,-2771,-5819,-410,1256,383
2911,6705,-5386,5207,-354,-1499,1559
2912,3481,-1366,282,-373,-554,1095
2913,3842,-3987,-153,-1621,1451,109
2914,-4780,-2002,2978,-1613,1062,-1067
2915,-6012,821,-7035,817,1791,-1241
2916,149,7630,7779,-892,944,1528
2917,-2014,4942,7860,-934,-1834,388
2918,-3837,-5638,6674,1714,1061,973
2919,7712,-6060,1463,-975,1898,0
2920,-3453,-6462,-6803,-759,1654,-660
2921,7902,-4101,740,213,1071,307
2922,-4382,5397,-3146,-174,1916,-575
2923,1558,820,-7801,-1332,-217,667
2924,3614,-2026,-6021,797,266,1688
2925,-4382,-3730,3781,281,-1381,639
2926,-5759,-7765,6371,-1671,-405,-741
2927,4243,-4414,-2000,-1580,150,1019
2928,6969,-6490,2781,-426,-1836,-1302
2929,-6615,-3940,3608,848,512,879
2930,-5343,-6851,-4923,-183,1115,-25
2931,5430,-5805,-1882,530,-713,581
2932,-3084,2582,3753,-1756,-1225,-657
2933,-346,4672,-3368,-952,651,-1736
2934,2405,4943,-5050,1540,-851,-1552
2935,3276,988,-3824,-1501,1301,-1836
2936,-3824,3184,-88,874,-1631,-293
2937,-6561,-6436,-623,1693,353,-706
2938,4065,-3780,-6142,1286,-1219,48
2939,-5499,3089,4946,901,-27,687
2940,-2067,3006,-3764,1803,-742,-609
2941,-7259,-717,-7619,-959,772,1804
2942,1711,7265,-5435,-322,1847,-1019
2943,1771,-552,-675,-942,-1911,-1216
2944,5510,-1134,-4184,-387,1827,-872
2945,-5146,-3668,-2615,-928,1259,-347
2946,-2279,-2758,-2682,1396,-1814,-56
2947,-2240,5596,-2591,-1540,913,1253
2948,618,203,-3654,-1403,-128,607
2949,4667,-1554,-2846,722,987,-1604
2950,7515,-3612,-5907,-27,-555,13
2951,-5206,-6999,2264,-1120,-71,748
2952,-399,-6634,-7862,-1792,1954,1104
2953,-5883,-2900,289,-78,845,-1959
2954,-2911,1788,-5946,13,-1722,-16
2955,7460,7897,-1243,577,-1088,-282
2956,3111,-2467,444,771,494,-1867
2957,6319,-6304,7829,-640,-183,-1902
2958,-6752,3448,3679,401,206,-490
2959,2055,7387,4342,-233,80,686
2960,-1612,-3076,-7385,-528,-1645,-1781
2961,5037,6328,2269,1100,1181,26
2962,-6419,3570,-1960,888,-1555,524
2963,5309,-7752,-7323,1422,736,-280
2964,4725,-6214,-4618,1536,112,27
2965,6121,-4141,7850,-912,-658,-1641
2966,-4027,2307,1390,1256,163,273
2967,-3146,5573,-7015,-282,1736,74
2968,1531,7166,3276,1817,-313,-90
2969,-961,3275,4715,347,-212,-219
2970,3565,-5284,-2565,641,1531,386
2971,2663,-1724,-1645,-143,477,-932
2972,4994,2635,1746,561,-182,778
2973,-1120,6340,5432,950,327,-1773
2974,-215,-2362,6256,-179,293,1535
2975,3859,-3481,2261,-66,1599,1007
2976,-975,466,601,1214,-1783,-722
2977,2551,6165,7623,1525,48,-1856
2978,-1378,-4873,-3674,-843,-80,1687
2979,-7928,-4859,175,-790,56,-1619
2980,-2820,5318,1105,-98,1050,-598
2981,-6127,-2546,-5177,1240,-997,-1140
2982,2490,5499,7259,1620,1901,669
2983,-5219,5020,5584,529,676,972
2984,-7007,-4296,825,-606,968,584
2985,-3945,-3861,-7336,-1269,1480,-454
2986,7574,-3377,2794,-172,212,47
2987,-5720,4163,-1228,-1872,-780,311
2988,6686,-1155,-4913,1492,419,-666
2989,3424,3752,594,-1312,-972,1547
2990,-507,403,224,60,1945,-502
2991,3971,-3843,-709,1142,-1974,-1336
2992,-1030,5841,4613,-560,677,-1314
2993,-7043,-2162,5330,-775,-187,1376
2994,-2426,-1295,-6079,211,-238,209
2995,-1267,-6985,5116,-1859,1357,760
2996,-3966,1094,5457,-14,876,103
2997,7073,-2338,1475,452,94,-1332
2998,5611,-6816,973,-1344,-605,100
2999,1477,-8000,-3401,-1740,-663,98
3000,-295,-1020,1065,-345,-1157,-200
3001,4737,-4976,2232,-1544,1809,1313
3002,-6846,-4372,4735,-1973,1575,-968
3003,-4910,-4689,1534,1437,1679,-776
3004,-4545,-174,-3385,1251,401,-107
3005,2345,-7844,6652,-496,-1106,1955
3006,5929,2315,-2670,-248,-1290,1293
3007,423,2439,5811,735,1080,-1298
3008,5058,4507,-5702,-51,-1084,993
3009,-2131,3685,-955,-449,1718,-819
3010,-2563,6470,-245,1982,-708,1767
3011,2645,-745,-907,-1957,-1061,610
3012,1666,4064,2551,1285,-81,953
3013,-519,1413,2482,1709,1623,118
3014,1519,2495,-590,814,1236,1817
3015,950,-7616,-7277,1480,1822,94
3016,4424,-1339,-4021,-716,1750,-635
3017,2196,5345,-4244,901,132,-988
3018,6864,1025,-1169,155,-1804,-1536
3019,940,-1261,7935,1889,803,1124
3020,4802,2488,-1316,-1113,905,-548
3021,4532,2643,6930,692,-1984,445
3022,7512,4680,-6493,-1267,-106,-420
3023,-5841,7513,3836,341,1387,-233
3024,-2101,2873,7297,-1308,879,858
3025,-3365,6338,-2786,-1318,1617,-492
3026,-6169,-2038,-7650,163,1602,-1997
3027,4280,-131,-2358,-455,-699,1064
3028,5549,254,-7546,1059,-1769,-453
3029,1862,2364,-4533,780,1255,1806
3030,-427,2560,-4061,1041,-1628,-1609
3031,-6213,355,-2614,431,1837,1849
3032,4816,4321,4404,1476,141,-1117
3033,4530,6913,3870,-416,1203,770
3034,-3416,-2593,7636,-1733,1371,1818
3035,-7219,2720,7579,-196,756,-644
3036,-1403,2804,6661,991,-942,997
3037,-4006,-1529,-7156,1362,-1106,-1264
3038,3068,5317,859,-179,1415,366
3039,5514,6291,2718,1715,1821,-66
3040,1870,-2197,5955,1955,1286,188
3041,1666,-6622,-5146,-926,-725,430
3042,-5311,7707,-7062,221,233,-1512
3043,3602,-906,-7529,1210,-1274,1785
3044,7302,-151,3039,-1710,1579,-389
3045,-4322,4232,-2780,-1427,-79,-1024
3046,4574,897,-1167,819,1297,-1957
3047,6297,-3467,596,292,1943,1525
3048,6808,1170,-3173,75,-1741,-1208
3049,5713,2293,1038,-1249,367,-1164
3050,2399,5992,1166,579,499,10
3051,5813,3140,2710,-663,-1305,-1267
3052,-681,-6246,555,-501,1236,-780
3053,-4743,6235,-4318,-1198,1823,-368
3054,-6656,225,2758,-554,633,-1320
3055,-4337,520,-3051,-141,626,-48
3056,-4074,-7796,6930,760,1286,-1912
3057,-3506,-4509,1507,310,-1159,-903
3058,1580,-7749,6939,-1651,1513,1787
3059,-7052,3638,4272,489,499,-333
3060,-4675,-6343,7213,-809,1312,-685
3061,-5937,1758,7336,-506,-374,1441
3062,4682,-4001,-6344,1294,-215,-1974
3063,2536,3471,6936,-1120,-1483,-1559
3064,6092,-1853,5146,1628,-1185,469
3065,-5873,7600,-5442,56,510,-907
3066,-3935,-5868,-3539,-1682,58,-1180
3067,4177,-3877,-5376,-167,-803,1911
3068,-1625,4639,3909,288,445,731
3069,-5015,-7874,-2245,-343,-1100,987
3070,-2615,-204,-2377,-953,-845,1022
3071,997,7268,7765,-690,273,-1424
3072,946,-6560,2543,571,-1456,1291
3073,-5867,7533,7971,-1909,-812,1142
3074,-2127,4566,2018,849,939,1967
3075,-2596,-3210,2469,361,59,-1218
3076,3090,5838,-1676,343,-761,-72
3077,1851,7100,1707,699,119,1623
3078,2221,206,-5656,-41,-539,-1461
3079,-1565,-6072,-4513,-704,-425,-166
3080,-7534,-1997,-3605,739,251,955
3081,4376,4409,-1953,-1711,-236,-248
3082,299,-3078,4892,1108,-897,330
3083,4228,-3412,6779,374,-1721,1385
3084,-5578,-1077,463,-69,-848,-1336
3085,-3054,2744,5384,1681,-784,800
3086,-4414,-3990,-7169,1169,-667,1431
3087,1781,-7359,-2204,1563,-323,1004
3088,4528,5697,7805,618,-547,12
3089,3443,-2910,4597,1848,-1780,1122
3090,-6012,-7657,2037,-368,1285,764
3091,7125,7995,-4151,367,-625,1683
3092,-3183,-3141,-4905,-1387,-4,-861
3093,6620,-7392,5332,535,504,230
3094,1665,-1767,5550,-1514,-685,57
3095,4174,4357,-1174,-1751,1984,426
3096,5916,5179,5344,1453,897,1479
3097,1740,1750,2405,-1431,-1659,1455
3098,1332,-6981,2286,614,1458,-326
3099,6693,2231,2910,1439,-1781,943
3100,-5247,-1730,-4211,1791,552,-313
3101,125,-180,295,-1220,498,1907
3102,-1142,-5482,2250,561,-1942,924
3103,-3372,2894,6776,-88,-332,-766
3104,-2964,-3764,-3717,398,975,1246
3105,-4149,6657,-5271,109,1755,-572
3106,4881,-857,-1023,-508,-903,-1680
3107,-6557,-5184,4907,1166,1210,-1748
3108,3253,-3590,4479,867,-1114,-1020
3109,-1556,-1645,7501,716,1758,781
3110,-6552,6780,-7177,1918,1578,-1900
3111,-4656,-7055,-6208,-1991,1896,1002
3112,-2776,2084,-81,-671,-360,-10
3113,5273,6219,-3241,1753,-1479,41
3114,-6090,515,5184,-1230,-1547,1160
3115,3632,1552,2593,-878,-140,-343
3116,-2241,-129,6235,-1731,-839,-427
3117,-570,249,6531,1555,-1972,245
3118,-4128,2565,3616,1178,56,-1939
3119,-2302,5328,-4670,-141,-1249,-1850
3120,725,3152,-7365,-196,-104,-1696
3121,2439,-948,-1407,1411,1799,1232
3122,-1406,6850,3682,925,464,-1258
3123,2434,2555,-5180,-1419,-1170,-603
3124,-2659,-735,-402,-967,-1765,912
3125,4306,-5155,7393,-1355,1723,788
3126,-4835,-3135,-5306,-1845,-912,1115
3127,-2159,-3632,-800,-1410,-549,-943
3128,2235,-7565,4257,509,2,1512
3129,-3976,7293,-7710,-1728,1378,-862
3130,536,-4664,-6728,1385,3,563
3131,4813,-7953,-2132,-1152,1756,23
3132,-929,-747,6712,741,754,1043
3133,5682,6910,4927,-1636,-880,1608
3134,-5791,-1075,6565,-716,-622,-939
3135,1078,-5501,-6844,-391,-296,-1219
3136,1041,-2450,-5230,217,-77,450
3137,-6440,-4536,-1609,620,-391,-1405
3138,1401,2960,-1750,979,-1023,862
3139,-3817,2910,-746,-1707,1647,831
3140,-2964,5259,4629,1221,904,-79
3141,-3605,-3592,1175,917,984,-676
3142,-467,99,-4958,-1161,-1329,1908
3143,-3387,1835,7404,-972,-309,-902
3144,7739,-2142,2445,-1611,-14,90
3145,1110,-2266,-1874,-573,-472,1647
3146,2891,5629,7025,-1894,-931,467
3147,633,-4859,5635,1518,260,-584
3148,-1024,5456,3841,347,63,-1594
3149,4763,5262,912,-642,1397,-1769
3150,1603,-4939,6449,-1428,-865,497
3151,4674,2323,-5604,1670,626,-1434
3152,4261,688,4997,1797,-1684,493
3153,-1059,3904,1996,1535,1938,-989
3154,3973,3213,-2347,66,-765,-1027
3155,7477,5199,1577,1751,-1714,-406
3156,-3698,-7759,-389,1921,905,-563
3157,-3356,-4786,-1396,-9,179,-1865
3158,7991,-4617,7865,1550,1392,-862
3159,3116,-7254,-4029,-1785,-464,-1808
3160,4514,166,5478,1911,-1080,-1193
3161,-7610,-7686,-7807,1254,453,-1833
3162,2645,-4287,7053,-1764,908,-14
3163,-5147,-5771,-5137,1480,1618,-881
3164,-3969,-733,2437,1324,1541,854
3165,-1517,-2651,2743,1326,-1936,646
3166,-2033,3248,5982,-1757,1612,1710
3167,-3326,-6199,7368,-971,-1865,351
3168,1263,1705,-4777,1935,-705,-1122
3169,4992,868,5016,1651,-211,1258
3170,-2925,4036,-7960,-356,-875,363
3171,-1046,2237,-6871,1855,-811,-1094
3172,-430,-6478,3545,-1330,-957,513
3173,-3417,-1109,-7082,-1432,-204,529
3174,3378,7255,-6128,-1436,-878,1608
3175,4037,5810,-7866,-1906,442,1779
3176,-4735,5502,-5024,-640,131,891
3177,-5952,-4498,3912,1507,-1889,762
3178,612,781,-109,-1208,467,1467
3179,-4278,5928,-5124,1197,1702,-829
3180,3545,4566,5709,-1182,-1881,1337
3181,2243,4053,-4851,1424,1104,1948
3182,2695,6753,6932,1607,1376,-1715
3183,-4727,2325,-732,-1331,-571,-1724
3184,6925,3095,3946,914,62,921
3185,5486,1746,6756,345,370,-1534
3186,4239,5208,3777,-1763,577,-278
3187,-5456,-2291,-5907,1550,-24,1097
3188,5815,-3188,-5360,-120,-1386,-45
3189,4498,6425,6627,313,-71,770
3190,1602,1870,-4253,-358,854,1707
3191,-2190,-3352,7094,1400,1387,-1019
3192,7985,4525,-1567,-1316,-230,-907
3193,2197,2681,-6689,1069,1515,1018
3194,-3023,4672,1259,-972,59,-1446
3195,-3487,7339,2982,1685,1257,-1905
3196,2186,7493,5834,32,854,454
3197,-6164,-2355,1642,-995,1637,1335
3198,3212,5233,3476,-701,-1646,-161
3199,-5173,95,-1051,-1687,-1008,-852
3200,2609,2847,5646,1986,-558,1697
3201,3095,1564,3686,-720,-52,1806
3202,4869,-6616,-763,-1276,788,-1529
3203,-3789,7290,-3812,618,745,-1869
3204,-6821,7992,-7764,-1993,-266,1004
3205,1904,5894,4177,1393,-1009,1601
3206,5070,-3481,901,749,-1162,-21
3207,2009,-2699,-2816,1847,1586,-106
3208,-3770,5167,-6761,-168,-152,-1710
3209,-7001,-3048,-2395,1976,-312,1016
3210,1055,-622,-150,-1738,-1064,-516
3211,69,-6543,-4587,-184,1286,77
3212,3371,2750,-7888,-550,1157,1451
3213,3506,-7398,5917,930,23,-1763
3214,-3878,-7650,-6130,648,-722,176
3215,-7713,6319,3942,1750,-1315,73
3216,4558,-6114,2997,1891,832,573
3217,-7602,2945,-1920,-1755,1031,435
3218,-5649,-3665,-4255,273,174,-94
3219,6184,6435,-6236,-1291,-441,-1072
3220,-6726,1166,-7899,1450,772,-917
3221,3602,-3684,1369,-506,-510,-1029
3222,4673,1313,-3990,-1521,843,408
3223,-1904,-900,-4411,295,-960,-1049
3224,4545,-3951,-4763,254,-1346,-679
3225,670,-2020,2293,-340,-1028,-1342
3226,5135,-5617,7280,-230,-1512,1122
3227,2090,-100,3888,1822,-1666,234
3228,2975,1455,3765,-1102,24,-585
3229,5366,-3941,-685,782,-473,-1002
3230,5445,-3000,7440,1517,638,573
3231,1358,-4762,-6392,-1551,-1166,-886
3232,4850,2534,-6490,1566,-1912,1434
3233,5674,-4086,1077,1562,-1498,-349
3234,2670,-7972,-1290,-494,-567,1192
3235,6256,6659,-795,1093,1844,110
3236,-7240,6397,-7333,-506,378,-227
3237,-3903,5836,5253,262,-1932,-946
3238,6586,438,-7633,1352,420,-1116
3239,-6211,-3976,5540,-1659,-137,-1151
3240,-5979,-3262,-1968,-996,187,-119
3241,5550,-1701,459,-1950,1650,-613
3242,4947,984,-2922,-588,569,1574
3243,-4814,-3057,-5840,-563,949,-1608
3244,1153,2270,-7229,1281,1626,-1347
3245,7837,-5384,-7279,-1295,-1862,-1759
3246,1536,4012,4595,1790,342,262
3247,2267,-7489,1781,264,-784,-1029
3248,-2741,3852,-5183,645,1586,-183
3249,3726,-956,7546,-1924,-1552,960
3250,-2947,2896,-844,-726,-1276,-1451
3251,5588,1514,-7850,-1448,-1220,328
3252,-1553,504,3108,-1435,-268,1866
3253,3654,-2447,-5447,-1030,1944,817
3254,5284,7516,3464,26,549,511
3255,5049,-1433,-4188,-920,763,-1777
3256,-5976,600,598,-297,1933,-1610
3257,301,-3170,5455,-698,1741,-483
3258,2782,-2870,-5450,74,1964,1990
3259,-5439,-5602,6076,-543,617,-345
3260,2637,-1359,-2532,1865,223,1332
3261,809,-1814,-7744,1843,1812,492
3262,-6222,6713,-7660,2,1927,971
3263,7368,5802,7317,1506,-1642,401
3264,3476,-205,-1345,503,-1850,1014
3265,2673,-4067,3537,-1394,224,1562
3266,876,-4113,5039,-427,998,1438
3267,4936,6299,-3698,-428,229,1393
3268,3596,5029,-7290,-171,-1794,559
3269,-6862,-349,6726,-42,-1422,1935
3270,4142,3781,-7515,1452,-850,212
3271,-7840,5955,3837,-1996,935,1349
3272,-198,1567,-4367,-687,-1240,-470
3273,7474,6914,-6755,224,1269,437
3274,-4672,3048,1427,-280,1948,56
3275,4923,-1943,6431,1095,-454,-998
3276,6873,-416,2440,-1688,1571,-1874
3277,2137,-6489,2422,743,-392,296
3278,7987,-6671,-7188,-1211,-337,1505
3279,1307,5758,-5998,505,-1241,1809
3280,4153,3569,-929,-688,247,-1253
3281,-3243,7990,1841,677,1635,1589
3282,-6991,-2370,-2797,1116,-184,783
3283,-2083,4618,-1650,1827,-1442,-1955
3284,-3578,-7689,7242,267,1123,110
3285,1586,-5673,-482,1931,656,-1132
3286,3994,3469,1555,497,1704,-1432
3287,-530,711,-7852,26,751,1406
3288,-5393,2556,-1037,-1504,-968,976
3289,-5924,-1725,-1753,-235,772,282
3290,-1250,-3688,1732,-1813,-1821,1070
3291,-7695,733,592,-906,-1450,-964
3292,4898,229,268,-1466,-149,-1392
3293,-1276,-1994,-474,-689,-1854,617
3294,-2862,-3038,-1302,296,1957,1216
3295,-6683,6184,-7617,1118,-1156,-1060
3296,-443,4238,1096,-141,1865,1779
3297,-639,240,3287,1247,198,556
3298,5929,-7489,-1333,-217,496,-121
3299,794,553,4395,-697,328,1749
3300,-1015,-5707,-5081,38,-1233,1527
3301,7866,-6623,-1151,1590,-1535,705
3302,4001,-1646,4556,-1905,1216,-278
3303,-1206,-4791,6942,-783,1695,735
3304,-2156,4899,-970,-1349,-1758,-1451
3305,6772,4026,894,-1567,-1537,1374
3306,7297,3014,-3711,-659,-758,386
3307,-4746,-6589,-2268,121,681,959
3308,2055,1455,7685,1487,967,-979
3309,2405,5962,4315,-4,-1176,446
3310,-3426,2523,-6014,1365,1530,792
3311,2686,-7372,-3297,-1343,-764,-94
3312,-3416,5116,-2348,-1840,-352,925
3313,-2069,1440,7419,-1838,-665,-3
3314,-1102,124,6274,275,-785,311
3315,6242,-1794,-2756,1074,-694,719
3316,2647,-7180,365,1340,1340,-1591
3317,933,3639,-3987,-957,1794,-454
3318,1938,-3309,541,-1994,1298,1789
3319,1103,6247,-5138,-1695,-825,866
3320,-3408,4068,7520,-767,-1136,1762
3321,1254,-5907,-7959,898,1991,1414
3322,3153,-2941,-4349,1661,-1935,-473
3323,7059,-1716,-5104,-610,-426,-481
3324,-3320,-6047,1278,-486,-1798,-555
3325,-787,2300,6123,1524,325,-488
3326,6902,-3935,5299,-1188,-494,-535
3327,-6481,-162,5565,729,-666,-766
3328,1527,-2427,-6039,-1906,-1973,1981
3329,-7811,-5169,-915,554,120,-1799
3330,-5743,-1617,-7434,1175,-862,-784
3331,-7135,5034,-2843,-1344,-193,-1866
3332,5838,-4472,-7737,-1622,-82,-422
3333,1935,-1444,4695,-611,1407,-918
3334,7137,3485,2920,305,-1714,1863
3335,5269,-1955,1894,906,-502,-786
3336,-6030,-2360,-6223,-280,1731,850
3337,2398,105,220,302,1793,-1453
3338,-6040,5498,-3246,1117,-1999,769
3339,-1437,-7954,-3425,-1872,800,1985
3340,6500,-7809,-3392,1262,-97,-583
3341,126,-6178,2833,-406,-1052,-252
3342,-7743,-6225,-692,1223,-1241,1203
3343,1613,1295,-676,849,466,-1716
3344,-949,5398,-5985,-724,1459,357
3345,-800,4638,-939,820,1243,1533
3346,-230,-7301,2323,1532,-232,575
3347,1894,-3790,3697,-1531,1998,-1850
3348,-4474,1843,-2518,-194,-1992,1582
3349,7302,3388,-1310,-749,1944,-341
3350,-1557,5732,-770,-128,103,1173
3351,6862,253,5100,397,-1313,181
3352,5619,5799,6596,1020,1035,-544
3353,2892,4876,4245,1192,-1215,615
3354,-5298,7319,-5058,525,-559,-934
3355,1863,7493,6940,-271,-252,772
3356,771,-5825,281,-1714,-1473,1107
3357,6033,1843,-4133,1329,-1074,-422
3358,-1751,6413,-22,-957,1457,-1598
3359,5841,4275,-7583,-60,-137,1702
3360,2533,7960,-2253,-399,398,1169
3361,-7428,3632,-1781,1895,308,-909
3362,6934,6642,-5976,-1593,338,1117
3363,-4716,7717,4735,-186,-1423,-1068
3364,-2129,2008,4699,-900,-670,-1047
3365,4040,-249,2060,1987,-1464,-1478
3366,2275,-721,-1023,413,12,-557
3367,-4797,3641,-1502,1952,1231,-1710
3368,-1588,-7247,-3766,972,1921,560
3369,6913,-4932,4755,1316,-324,-1098
3370,-2697,-3882,1049,1269,1099,-1876
3371,-3445,4508,7634,928,-1732,-463
3372,-5595,-5731,5162,1346,1249,-596
3373,-4133,6729,5404,-1125,-910,-1039
3374,-188,-5136,1033,1328,-1761,1107
3375,3023,6575,1197,353,668,1540
3376,-6786,-748,2848,-1777,647,1110
