Sample,Ax,Ay,Az,Gx,Gy,Gz
0,6608,6888,-1016,33,-1050,-1258
1,-4424,3310,1763,1655,931,-1151
2,-6794,2189,5160,1599,-1728,1838
3,-5941,-1244,6542,-71,180,-177
4,7101,-5592,774,643,-283,1531
5,3980,1585,-5799,-330,-1505,-1131
6,483,2035,2208,-1145,761,219
7,7750,730,7691,647,-1272,643
8,2089,-5540,-2963,1095,1577,687
9,-1962,-1691,6427,1735,-723,861
10,-4705,731,-3436,550,-1151,-1451
11,-4785,2395,-3671,-972,-553,614
12,-1091,1999,5793,-973,320,-1413
13,2500,4776,-4856,-1169,740,268
14,-3244,4771,4425,328,614,219
15,1603,879,1551,-1489,1342,-826
16,-2312,5127,-6340,-1343,1916,474
17,-1537,-6545,-772,335,-968,1949
18,-240,-6615,-2076,-1857,-1513,-986
19,6418,5301,6703,-724,-1329,1938
20,1612,-702,-3686,663,1768,856
21,-3502,1166,5931,412,-1891,1445
22,3616,5853,3856,1095,-330,-689
23,1575,3664,241,-334,1425,-2
24,3278,7093,-3436,98,1072,751
25,-6193,-1995,-6551,1869,1602,1054
26,6145,-4945,-1899,971,1631,-1433
27,1313,-7579,-3155,-1940,-1115,-1647
28,-317,7616,-805,1767,1264,438
29,1093,3683,3139,-1287,288,-728
30,-6457,4222,-4801,689,1142,1231
31,-5182,-7675,-1592,-1252,-1337,760
32,-5617,5602,494,1900,-1532,1034
33,2660,5615,3088,993,1868,365
34,7607,3737,2764,-1142,1647,17
35,7424,-5304,7839,-727,-1265,351
36,-7600,1800,2046,565,1685,1645
37,-5215,5340,5953,875,1249,1693
38,7743,-6002,1261,1315,-35,499
39,22,7970,-1537,-1761,607,-1669
40,447,-4449,-6494,813,-544,-88
41,-5515,6317,-4083,-1464,1908,-769
42,-3801,-5952,2021,866,-942,-893
43,-7091,3239,4956,-291,1527,-1970
44,-4691,1031,1206,-1135,226,-1852
45,-897,3356,-2842,-1375,-1940,-1698
46,-2283,-7541,6356,1190,-501,-954
47,-6851,5462,5746,-54,685,-737
48,6937,5324,-5088,1169,-1661,859
49,4736,3886,4469,-653,383,1560
50,6980,-2620,-2289,-854,-1722,890
51,-2774,-3719,3648,1378,786,-1940
52,7449,5508,2768,-582,1360,-43
53,-6766,6418,2894,-1739,-1050,777
54,6779,2543,6495,-2000,1317,-933
55,-3994,616,4951,692,-764,1820
56,1789,-5334,5728,-1267,-1990,-485
57,-2577,2887,4081,-497,-1500,1678
58,2313,-6875,-3012,-482,-1808,1326
59,-1450,2797,-4867,-1370,-1900,-1340
60,-1948,-1313,7716,-1046,720,985
61,7942,7310,2436,668,1553,714
62,514,4418,-4447,315,-156,363
63,5594,5142,-3362,1930,-721,-1202
64,1919,4284,-7843,-774,892,675
65,-6591,5861,5896,314,-1852,-60
66,1727,-234,-1302,571,299,145
67,-2304,1607,-7873,658,-1361,120
68,-820,4124,2370,-336,-585,-1900
69,5839,-3880,7918,-1658,1393,-705
70,6032,-7321,-4039,-127,949,-899
71,-4246,5414,7079,-386,-1567,746
72,237,3700,-7902,113,-1604,-159
73,5984,1307,-3517,1732,-1626,-874
74,5506,3509,777,-247,1212,-1290
75,7267,-3761,3557,1119,-57,1569
76,-53,7876,7989,1920,1135,6
77,-6975,-1832,6805,-217,1492,1563
78,2571,5477,7813,-1618,-1160,-114
79,-5794,-1846,-5427,-1304,1283,1078
80,-7997,-5211,-1938,-424,976,-379
81,-615,1233,3480,-910,-87,324
82,-3090,7358,7869,316,-628,-1186
83,4916,1165,-7192,-1047,39,1344
84,-1736,3872,4100,1430,741,381
85,-2284,1270,4651,-899,-1780,1443
86,-6653,-4878,3590,-1300,-1408,-1133
87,-1226,-3727,5800,-456,1158,-234
88,-3685,4720,5688,-479,1316,-790
89,889,5123,-2128,-1160,272,-126
90,-6088,-4589,719,705,102,804
91,2875,2891,-111,-365,1446,-838
92,2300,-2229,-4244,1396,915,-992
93,4302,1773,3250,1662,-1745,-1616
94,2980,6736,3430,-53,-1124,-1025
95,-2256,-3806,7109,1898,735,-1474
96,-74,1861,-6452,-986,1345,942
97,-1521,-1014,-5214,437,-900,1010
98,150,6625,1128,-1792,336,861
99,-5380,-3749,3524,1519,1358,1705
100,7946,6699,4555,-1008,-1150,-577
101,3845,4981,-6854,135,1833,-1509
102,-454,-7093,-7773,709,-296,-1426
103,-6633,6370,1636,-1101,-532,295
104,5381,4030,-7552,-969,-1019,-1817
105,-7935,914,4380,-1162,499,1338
106,-1013,-7246,7821,-1832,-1229,-304
107,6769,-7205,6474,928,816,109
108,3907,4731,-1999,-1742,850,938
109,6800,917,-995,-798,1589,1411
110,-648,688,6694,-1191,1370,-1607
111,2807,110,-789,209,-1159,1722
112,1177,-650,-3904,106,582,1719
113,-3110,-2343,1980,-267,1270,-1405
114,7587,2199,-3991,-1475,715,-1700
115,-2682,-4624,-3819,-1096,1854,-522
116,1682,602,-1530,321,-310,-1678
117,-2171,-7864,-1812,1243,-551,-1079
118,1256,1739,-617,-153,-23,-660
119,137,-3247,348,1720,-254,1928
120,3767,-4840,-7328,1446,814,1728
121,864,-6126,2228,-171,1543,1766
122,-3869,1060,3445,1736,1329,1359
123,-7648,-4404,5119,-855,-603,-444
124,-7787,-3697,4894,848,344,982
125,5466,-4058,1461,-385,138,-954
126,-3481,-5961,-5904,-385,512,-893
127,6931,1180,7270,-940,-350,1535
128,-7580,-4501,-5932,-172,1646,1675
129,-3001,4414,1624,-1955,-1528,-1702
130,-7928,-342,4585,-277,1489,-428
131,-7528,2442,-6050,301,-395,152
132,5074,7824,4396,-561,933,126
133,4843,-7375,-3508,1182,1306,-301
134,7224,6915,-5820,1384,1158,-185
135,436,4107,6050,375,1529,-920
136,2174,-6330,-4909,-1368,679,-1464
137,-4300,-7053,5424,-532,1039,622
138,3907,-2036,-1724,1238,445,1460
139,-601,-345,7203,-1853,-1932,-1708
140,-4259,-3986,6459,683,-353,615
141,-1972,-7963,2892,-807,-929,-1852
142,-2792,5323,6495,1773,-1102,-1161
143,4328,4788,3017,1926,-884,867
144,5362,820,-4413,1201,-924,96
145,5931,6906,1417,1292,-689,841
146,2567,6492,-7656,1700,578,1606
147,-6804,6538,-6738,-29,-288,1274
148,-5863,-902,1299,1452,1351,-131
149,-1055,-7734,-318,-1573,-1986,973
150,-7333,-6870,5744,-1444,449,1989
151,2447,-5395,-2330,220,-1919,-632
152,7911,-7228,-6688,-1002,-681,-528
153,1412,6853,118,-1715,-552,1625
154,-5304,7907,-3399,1272,635,-1848
155,-1794,-1911,-5380,-426,720,507
156,-456,1526,-4704,1422,-161,-964
157,-676,-7974,-5463,-1148,1471,1975
158,-4675,3758,1770,1314,-1217,-500
159,-4895,2669,-6116,55,-1646,373
160,-2412,793,2034,270,-1887,302
161,2088,-2021,7172,-1630,-856,1119
162,-7857,-331,5579,-1787,719,1475
163,-5941,-6128,2710,1639,-641,1079
164,-4580,7609,1060,405,1900,226
165,-145,7025,5470,-490,-1755,177
166,-3531,-7287,-6843,128,400,324
167,-391,5759,-3673,1846,-248,-946
168,-6296,-3367,285,99,-166,-787
169,2321,7216,-7452,607,558,-1809
170,-1304,-235,-2137,-387,1651,-329
171,-103,-1655,-1182,390,1870,1478
172,-6603,4433,5077,-771,215,641
173,-3295,2273,-7297,954,151,1037
174,-2891,4938,6394,-1474,1185,-926
175,3205,-3577,3946,-143,863,224
176,-1821,-5096,-7595,1248,289,1334
177,3704,3303,5339,-715,-94,1170
178,3781,-2211,2493,928,671,-519
179,-2860,-3365,-4187,1632,485,-1608
180,-2572,-7090,-6149,223,-284,1591
181,-3151,1241,3434,1088,-1671,967
182,-2939,2818,-5247,-1728,-1125,-1865
183,-3294,1108,1134,61,-487,1822
184,989,-5707,-2806,-1877,-706,-253
185,-2885,7070,-351,945,-1053,386
186,-4926,864,-4400,1640,-493,-691
187,-7581,2037,1579,1073,408,-636
188,-6267,-2599,768,1322,-428,-1534
189,-2966,725,307,971,-571,249
190,1094,-7348,242,280,563,1791
191,-6458,7972,3198,-1541,-91,-765
192,4620,-2040,-5304,-1219,-1039,-1299
193,7714,-3997,1511,2,-815,-1359
194,5816,-3054,-6976,-148,-1419,-1648
195,6314,2746,6707,679,787,-355
196,-7834,-2889,-1287,1280,-1423,1213
197,7020,-5709,6060,101,-557,616
198,3700,3676,7181,-1139,-31,988
199,-628,-7239,6458,972,-1342,-823
200,-902,6437,-3293,930,377,-1675
201,2115,5096,-6627,884,1208,1124
202,-6568,6534,1738,1326,-508,1570
203,-5482,6037,-1003,-183,-1023,1768
204,3033,-6316,5427,117,-1816,818
205,-2292,6071,-5192,-1108,-910,-1297
206,6997,3671,-3647,802,16,101
207,-7686,-6941,6816,554,559,1998
208,-7074,3489,4380,1292,-702,-596
209,3536,4756,-4321,-1068,721,-68
210,-4236,-2689,-7598,8,1551,-1016
211,-1727,-923,5122,337,774,1735
212,5516,-894,4632,56,-1261,1107
213,2742,-2119,1255,-1641,-1927,-878
214,-6315,683,4332,1622,1565,-114
215,454,2019,891,-12,-278,-1894
216,-6945,3395,-6124,959,652,-1871
217,-2158,-2982,-1990,1033,-1894,1177
218,-4800,-5676,-1912,106,-1279,-1561
219,-3938,-4958,-1099,-108,1369,-1116
220,-6881,-72,-6987,-1452,-544,-562
221,1375,-3452,-2600,-701,-1821,744
222,-196,-3985,6764,-1401,-1014,1973
223,-4350,-5697,-5563,-596,1008,458
224,-556,-6133,-4968,165,-408,936
225,4911,-4302,-7064,637,-960,-1287
226,1284,5056,61,1234,-1846,-582
227,-7781,-2118,-3681,-1556,1632,519
228,5302,-4464,7678,-998,802,-1853
229,5912,-7423,7071,14,-33,-133
230,7176,-3302,7388,1553,-1174,-1695
231,3180,6897,536,-641,402,661
232,-1810,4663,7311,521,-1006,357
233,5683,-6844,3279,-616,-471,-904
234,-2367,4133,-2833,961,541,1851
235,-6603,2825,2968,1371,520,-42
236,-2735,2140,1499,1659,-1610,-1150
237,5358,-6937,3791,1131,1367,-1311
238,-4097,4112,-4443,1579,979,124
239,776,-7650,-5710,720,1847,1814
240,-5653,1124,7117,-533,-1043,-1007
241,3887,-1810,-5611,1016,-185,-1401
242,-862,-6161,-6409,-1174,503,-97
243,-7357,-3702,-1320,600,-1177,1896
244,2368,-7388,-5633,904,1571,-127
245,5432,2787,-1502,-287,-1082,-1911
246,-64,-7813,-3212,-1676,976,72
247,-256,3982,2453,-1773,-1986,1065
248,-4934,7291,4555,-453,-1541,1094
249,-98,1009,-5574,-1923,-1740,560
250,1636,1560,-7108,449,863,75
251,6244,-3462,-3407,260,891,1433
252,-2155,4038,923,-1081,1545,-1031
253,1307,4995,-7322,1569,261,1187
254,1302,-6897,-3828,-687,-576,-707
255,2009,-6101,-6640,-761,609,1713
256,5102,4594,-4196,-1323,673,-1235
257,7557,-409,-674,-1907,-28,887
258,5593,2882,7297,497,-662,-696
259,2574,7428,-210,789,-1044,-1005
260,-6292,2685,-6490,911,1310,-1201
261,-4155,3724,-5665,-1214,595,-1676
262,-2940,2835,-1442,877,1100,730
263,6295,-7038,-6973,781,641,-972
264,-3687,-329,4999,1185,1038,-778
265,7822,-6998,-1880,1481,742,-322
266,-4912,-2,3419,1900,1567,-408
267,4586,2048,4470,-1160,1249,-1494
268,3926,-6759,-2921,115,-756,-1698
269,2830,2924,1351,-726,-1200,1479
270,-984,3330,5068,1563,1255,-1845
271,-5932,-7945,-2702,893,1863,450
272,-701,3750,2463,574,-564,-323
273,-1436,493,660,820,455,966
274,3922,6281,-164,-75,-1498,-427
275,-3283,-1878,6917,495,-1725,-932
276,5622,7728,-5652,91,1178,48
277,-4701,1380,-6521,-423,-1885,-214
278,5446,7776,-6433,1289,-127,-545
279,3166,2758,-7064,-732,32,1895
280,1582,-6872,-4452,-1465,1516,992
281,-7671,6895,2689,-1633,-1461,-1298
282,6905,-6100,7949,1873,-1715,331
283,-1188,-5399,-4718,1066,-329,1844
284,5531,7590,-4481,-1773,1753,399
285,-6262,3842,-5815,1101,181,647
286,-191,254,7494,1796,1941,564
287,7774,-3160,2256,133,-1714,1689
288,-2913,-2737,-6524,-701,-272,-1804
289,-1656,-2881,-3223,-1505,-127,711
290,-7147,391,4054,-888,474,-1799
291,5592,2103,2420,-956,-374,684
292,-4765,5592,-7949,-1070,-649,-661
293,-6130,-6402,-195,-1207,1440,-260
294,-4559,-6944,-7525,1454,692,-1425
295,-348,7728,-1256,1920,-1033,-719
296,-3788,-6965,7688,579,1090,554
297,1530,2723,2791,-1869,-1243,-1160
298,2902,6272,-6739,-1410,1060,139
299,-7066,7634,-3175,-1344,-1390,-26
300,5532,2888,5612,-1710,1165,1222
301,-7080,-5834,1486,-380,-1652,-579
302,-5167,-2026,5770,476,-1117,898
303,1355,3789,2472,-1810,508,-187
304,-2097,7533,5097,1746,-1889,637
305,-2464,-5285,1129,-538,351,-479
306,-769,-655,-1971,1748,145,8
307,-7855,-5141,1556,1664,1211,237
308,-689,4071,2196,1694,438,-1715
309,4793,-1535,942,-1853,1113,-1437
310,-5232,-4004,-7525,-1380,-1152,1909
311,-4869,-1217,-6415,1037,-1156,-609
312,-125,-6201,-7646,-228,-561,-1372
313,-1938,4038,-5536,1944,1256,-67
314,1320,4527,-1587,721,1599,-1265
315,5516,-1201,280,-1897,1475,1738
316,5602,842,-1638,-453,-1568,-468
317,6832,1215,-3246,1376,1735,1167
318,-5337,-805,5717,941,813,-367
319,-3675,5651,-2718,-1879,-1503,-1220
320,1479,-3650,3904,-1290,-972,1361
321,-6590,-1971,-301,1416,1409,-2
322,7478,-210,-7571,-381,-1371,-1908
323,72,5086,-3696,-128,712,1536
324,1517,358,3992,-1915,1624,-1723
325,-4050,-7829,-5438,921,186,-405
326,7638,-1302,-4739,1439,1464,-862
327,-2083,5760,2813,1537,743,973
328,7099,-1168,-4370,335,-427,-149
329,1761,-1599,227,1634,-1558,-1734
330,6084,255,-1325,1045,-618,773
331,7878,3211,7545,668,-672,490
332,-3605,-6708,-4607,-1345,-1484,669
333,7615,-4532,89,553,1465,1311
334,4810,-1365,92,142,-463,-256
335,533,-2520,-2287,-1779,-827,110
336,-667,-1293,-1871,1804,-1432,1694
337,-5232,1126,3368,-370,-24,-1814
338,3330,4673,7173,-1055,-378,1621
339,-4394,-79,7836,-1388,-1730,-1727
340,2469,-924,4707,1752,60,-1357
341,-3421,-7938,-285,-540,-18,65
342,-2015,-3855,6703,1120,92,-1073
343,4734,7016,-3229,-1976,-539,1033
344,1385,1695,-5306,-978,-74,-912
345,2201,-6771,5336,1416,1590,-1747
346,-7020,-5095,-2669,-1134,1194,-881
347,6175,3592,3056,197,-1843,636
348,-7298,70,5183,-605,-1441,-1216
349,-5642,5035,3875,-272,1355,-390
350,4666,5974,3222,-38,1209,875
351,6326,4591,538,-1506,1121,-1424
352,2424,-5100,-4177,-661,-84,1893
353,-7235,-4952,4820,-352,-1216,151
354,-1527,-5986,-2644,-228,-539,-1859
355,5502,218,2856,794,94,-1146
356,-2159,1289,5678,-1918,1781,320
357,-4460,-1371,7486,-309,78,1981
358,-559,3337,7698,-388,1277,-800
359,-7346,-4142,3534,0,-682,-685
360,-4082,1865,2169,-651,107,142
361,-7227,5411,-1893,-613,-79,-783
362,-6002,1383,2744,-492,-1835,1056
363,2798,5179,-431,1925,-1787,1884
364,-3131,1967,652,93,958,-1300
365,1928,-4674,1321,1145,-1637,-1842
366,-1053,-7340,3145,-154,523,-1694
367,4497,-2677,-6856,-1241,-911,-172
368,-4222,1289,-1044,-1129,-774,-1564
369,20,-3052,5910,1712,1792,1205
370,-4682,6649,4442,546,-1681,-1571
371,-3580,544,-3867,105,-1656,602
372,1560,6429,6034,599,-1514,-1032
373,2050,4689,-118,744,886,172
374,-5847,-6762,72,1414,1880,1984
375,1976,-1935,6049,1136,-1887,355
376,7958,4195,-1850,-533,-418,709
377,3236,549,-4565,1922,-1601,-1317
378,-2937,2148,-3060,1109,-452,1028
379,-5939,-7096,2409,-1184,537,-694
380,-2860,6700,5060,327,-26,-370
381,-7967,-4200,-6506,-1327,-1600,1158
382,1839,-4690,-7955,-906,1269,-1325
383,-3295,5089,6939,-542,-801,-494
384,-5310,7559,551,-1747,-1687,-1613
385,-905,7143,-286,-1710,-1631,-484
386,104,-7922,-6086,-1442,1789,-1250
387,-2329,-4148,2469,1245,-277,1312
388,2031,1410,-6144,1947,1808,1136
389,-2847,2088,3134,899,-966,1131
390,6536,5528,-1853,863,122,-1490
391,5210,1801,-2846,-736,-655,-1998
392,-4675,7142,-7955,-342,581,-90
393,4520,522,-5324,-1944,-392,482
394,-6319,-3682,-5862,-1158,1811,-525
395,-2836,-6540,6680,-1608,-680,1041
396,-4642,-5941,1202,1860,-729,-1580
397,6552,5574,-6097,469,1949,235
398,-5527,-1676,-4951,-339,-1975,963
399,358,-1985,7248,-862,398,-317
400,-7999,4465,5783,-181,-728,-1680
401,-7255,4891,-7576,346,655,583
402,3615,6687,-1852,-551,68,103
403,3926,-7072,7698,560,-1024,-297
404,7601,-3744,-996,414,1231,1302
405,1526,823,-6992,-1939,1798,51
406,7281,-6845,-4529,-16,-156,1890
407,-4761,256,-3465,-853,837,-1718
408,-6145,3968,5848,-1253,-990,-79
409,-2126,5192,342,1848,-829,757
410,-7439,1797,630,336,1156,-1055
411,2683,7046,-4119,1578,1799,465
412,3607,-2440,-4803,-1478,1064,-1851
413,579,-1253,-2723,194,1631,-136
414,-32,2576,-6202,-1968,1527,1813
415,5334,-7476,2085,-1701,-714,-1165
416,6360,-7371,-124,-851,991,-1378
417,-3220,-5444,-5443,-1882,1297,-1933
418,-2834,-2661,6212,-152,-405,1368
419,552,3694,2006,-291,312,1918
420,2481,528,-5728,-1567,-435,-1884
421,-2934,-3942,1565,-1280,-23,-255
422,-2745,7001,-5356,-365,-1228,-94
423,-1422,732,-716,1187,1055,1551
424,-6235,-737,712,1781,-618,762
425,1733,1386,-6373,-1765,1105,1290
426,-335,-6341,-4288,-472,-1941,-577
427,2161,-3016,2817,204,-1881,908
428,-7425,-6330,-301,-518,838,-1723
429,76,-7681,-3363,1791,-1682,-121
430,6340,541,4845,-1572,-1689,-269
431,-3941,-144,-3918,-1587,-1539,-766
432,6698,-6832,2298,1445,378,-1432
433,-7127,-5353,-5500,1452,1186,-661
434,-2647,2726,760,-831,968,-973
435,4615,1920,-1249,1685,-148,197
436,5010,3854,-437,164,1882,58
437,1265,-1705,4381,-1980,1566,1321
438,-7892,-3636,7004,1145,-51,-1037
439,-6621,-2414,1047,965,-966,941
440,3594,2595,-6898,-1605,1855,-1770
441,5357,5801,124,872,-1881,1609
442,3001,152,6391,154,-787,589
443,-4344,-485,-524,35,636,-1268
444,-4989,-2511,-2778,277,1035,-1371
445,-5854,-3893,-7754,342,-1295,-1751
446,3360,-5880,-4208,1590,1202,-70
447,-7471,6906,-449,-371,1107,-1720
448,5711,-875,-3013,-401,-940,-83
449,-4043,-6058,-3105,-89,1633,-1750
450,745,1322,1165,1132,-1010,637
451,-7206,-7883,4926,-1579,-1849,-1842
452,-3152,-642,4362,24,-1602,266
453,3327,-5565,-6178,-526,-1146,-230
454,-5777,5402,-4676,575,-493,325
455,-4234,7623,-527,-1790,-147,-1163
456,-3868,-2360,906,-1438,-801,-476
457,-983,-906,-2009,605,-1122,-1911
458,-5842,3818,-5504,-301,-59,383
459,385,-118,-6463,-1377,1024,1480
460,6622,-6292,-6176,-580,1067,-202
461,-5113,1274,6236,73,991,1500
462,4558,5415,5320,-498,-932,-335
463,2696,4858,-5381,-1544,52,130
464,1510,1677,-3336,-234,1103,-1142
465,663,-7094,3276,-643,-1419,-1600
466,-2308,-3673,-7944,-1468,827,198
467,-443,-480,3270,29,-624,-1326
468,5724,2561,5030,-1139,1376,1620
469,1572,4724,2991,688,-567,469
470,6596,1262,-1433,-7,-564,-1187
471,4844,-5499,1363,1707,962,-1853
472,7652,-4750,-3399,1505,-1049,-574
473,-2116,-5321,-7999,-47,306,403
474,1138,2551,-1010,1016,-1354,96
475,-6354,-421,6806,75,341,536
476,1041,-781,-4007,1139,-1652,945
477,2155,-3702,2730,400,1764,322
478,-3147,-2024,-5953,1833,-159,1110
479,6161,6278,6493,1299,958,1103
480,-2115,5457,7546,-256,1553,1353
481,-7530,3789,5408,1425,646,1367
482,4594,3885,4275,974,-1501,235
483,-6150,233,3762,1751,-787,-1873
484,-1327,2718,-1693,898,1650,-1721
485,-1927,3739,-2103,-672,-462,-1169
486,-2232,-810,-6553,331,421,971
487,-3903,-4944,-2808,-34,-753,-170
488,-6715,3026,-6365,-1699,-1567,167
489,-663,-4050,342,1560,-1266,1758
490,5557,-992,-7584,-59,-1447,912
491,-7146,-1445,3949,-1135,-1068,304
492,-7153,400,741,-176,-421,-977
493,3025,3522,-5399,-175,1846,-900
494,6837,-7282,-7202,1917,241,1028
495,7787,-2939,3387,1455,316,1281
496,-7884,-2743,-6946,275,835,-1480
497,-6141,6040,-6275,329,248,508
498,-1464,7610,4794,-20,-1156,965
499,2590,4672,-7747,-1515,1456,815
500,3804,-3394,2062,-280,1956,-1082
501,6583,-988,-5806,-1567,847,1956
502,-7903,6221,398,419,-1427,-721
503,-3220,8,5613,923,-1233,1823
504,-5002,-7386,-779,-266,355,-106
505,7018,-1490,6895,1132,-1071,1510
506,-7665,-1539,7293,1823,-1076,-1826
507,3277,-789,267,-1062,-1724,284
508,-187,-5316,-7945,-1479,-1306,-1229
509,6338,-7167,3426,86,-1972,342
510,-5682,-80,-4621,1755,-1147,620
511,-4096,6927,-4850,-1770,1515,72
512,2409,-4762,-2383,-310,836,1182
513,-3211,2722,-5652,1970,1984,1877
514,-1572,6460,-3017,1569,358,-208
515,-5522,-4013,3890,1181,1484,-1251
516,4227,6379,1800,194,404,-1239
517,2199,6099,7835,-1808,-1705,-1406
518,-2276,5919,2466,-1614,1855,-1730
519,5059,1425,-5759,1308,-765,1705
520,1780,5611,-5135,-775,281,1856
521,6251,-5199,3165,-694,-1412,1648
522,-4909,4489,-4937,-1952,366,248
523,2601,789,6120,-1293,-130,-1896
524,3606,-3148,2760,337,777,1867
525,-7773,3349,-1355,664,-1161,968
526,166,-2310,1224,1867,-742,1187
527,4093,5076,649,523,751,232
528,-2794,-3024,-7517,-539,-1926,1428
529,598,-510,-5461,-1678,-1082,-26
530,3683,-7852,-1220,204,1081,621
531,-6077,-3766,-3325,-1506,1017,283
532,7318,1630,-3358,-340,230,-927
533,-7960,-2586,7794,-1817,966,1494
534,-4058,852,-1747,845,1075,-406
535,-7905,-3149,3921,-1449,-1814,1859
536,-3313,-4021,6435,969,-212,-1516
537,-1274,6950,4083,-573,1967,1035
538,1993,-5817,6436,1754,-1305,377
539,4476,1158,6951,1845,1624,-1437
540,7451,493,1597,-1200,-254,285
541,-2309,3325,5195,1277,-1138,-172
542,4214,4120,1775,516,832,-579
543,4138,563,2639,-220,-1136,765
544,-6432,4958,933,1864,-1034,-865
545,-4076,4499,-6870,-1024,-1065,-1166
546,2467,288,-649,-767,-326,-153
547,7020,-6358,3266,-1901,291,1957
548,-398,-7377,356,467,-1240,-1140
549,-3227,-4860,-6125,-119,522,-745
550,702,2710,2929,872,582,1228
551,7894,-6353,-2384,-1134,-845,85
552,-682,-2405,-3307,-685,-1670,1520
553,7976,6678,4920,-1639,-1535,-1224
554,1724,1788,-7498,-51,367,1865
555,-5462,3088,3057,1855,1265,235
556,-4120,7666,-5589,1061,26,-1315
557,2740,-6117,-3324,-50,1003,-1881
558,-3420,-7497,-1078,257,560,759
559,6860,1369,-3475,1661,-1103,-613
560,6897,1750,-4054,-594,1242,-1501
561,174,2283,-5231,-662,1044,-200
562,-5780,1962,-5296,-1150,-1410,-466
563,7858,322,-3845,-1072,669,569
564,4722,1942,-6909,1050,-1074,1299
565,2025,-1758,2949,1878,51,1743
566,-5909,7270,2329,580,-1991,-1517
567,4208,5391,643,1499,-1463,-525
568,-3353,4680,4526,-923,1115,-559
569,-506,-2811,2644,1477,290,1239
570,-321,-6675,642,-672,-1469,-663
571,4504,1290,-1569,1881,1716,276
572,7847,-3900,7230,1211,1674,-1738
573,1562,5274,-1997,298,164,-1593
574,-3967,-6136,-4320,-868,-117,612
575,7781,-1554,-3485,-1177,753,108
576,2326,599,7415,544,-207,-1902
577,-1084,1643,-7241,688,50,-1824
578,-1880,-1992,3442,-1332,-1274,1543
579,6552,-2492,6116,413,-1461,828
580,-6466,-2737,4871,528,1111,-1671
581,5572,-2781,2942,1294,-1003,1388
582,6717,-6509,6550,-1821,817,-1241
583,3719,138,-2870,596,1123,-1621
584,3321,7050,3868,-1632,-431,140
585,4945,2881,-505,-1063,-595,-586
586,-1699,4001,953,1232,-313,-142
587,6342,-2612,3674,1314,1722,-449
588,1514,-5461,-6034,1364,-1049,753
589,7872,1056,-7462,-347,166,1991
590,-3764,780,6921,1722,194,1952
591,6859,7993,4802,-1865,-1061,77
592,-3671,5279,7431,-722,93,1013
593,1486,1550,5668,-1634,997,-19
594,-5593,-7614,2421,-1456,-104,1228
595,3271,863,1118,-1866,1895,-1402
596,-6097,-7343,-213,-1432,12,-1723
597,-2487,1444,6814,1304,-377,-1701
598,1205,1178,7883,-626,-378,-1456
599,1698,2090,6393,-1389,1858,871
600,-4092,-1968,3888,1650,-614,-1374
601,-6397,4421,602,-42,-325,-1318
602,6860,1893,4164,-744,1254,-951
603,-1710,-1248,1561,259,-107,-739
604,-7707,-7005,4019,-279,1857,-1239
605,5538,-199,820,-1407,-1664,1092
606,5340,3129,412,-196,545,-1406
607,-4702,-3080,-758,-1807,1609,-1331
608,2776,-1123,-277,-1122,-1592,-453
609,-7643,4653,7536,268,662,-1476
610,-3522,5246,-869,-167,1403,-1384
611,6750,188,-1365,-731,561,-388
612,486,-6808,4975,-701,957,-1467
613,1638,-726,-5226,-888,977,730
614,-3780,-4670,-7726,733,904,1111
615,-4256,-3690,-311,38,29,-882
616,5076,-3242,-4353,-1213,1568,1428
617,2476,972,-4383,-1178,-1861,-871
618,-6492,4037,3357,-1810,907,-195
619,5034,1453,-3667,-1156,1563,434
620,-7974,-2948,-4326,-705,1312,-314
621,6090,3420,6335,-1881,-1486,1172
622,5730,3079,1407,-1334,-488,506
623,-7112,7210,-355,693,930,-1390
624,4311,-430,5602,1834,757,-1599
625,3361,-42,-5926,-848,1266,1828
626,-4084,-5325,7988,-1359,1222,1294
627,-5962,6057,-719,1703,1596,1555
628,4651,3660,4946,-1461,220,-1288
629,-5284,3624,6639,49,-1157,428
630,4847,-3345,6876,326,1953,-240
631,6228,-5349,-1108,-1594,1106,528
632,766,-7086,2330,-339,1502,-1868
633,-4914,41,-7509,660,1030,1131
634,3657,5618,-3917,1690,553,-349
635,-1756,3061,1488,1848,-233,1738
636,4758,-7084,-5342,-1696,-1027,1473
637,2097,-2636,4887,-777,1401,-291
638,423,5791,7248,-338,-571,86
639,1911,3447,1333,124,-1545,91
640,-5514,1057,-4172,72,240,-1134
641,-2742,-1016,7612,-472,-1533,1539
642,3827,2638,5305,-1146,668,-642
643,-1855,4361,2908,235,241,1708
644,-6684,-745,3601,-933,-1464,1394
645,-4779,-285,3811,1025,36,1012
646,-5239,4287,219,1825,1183,1574
647,-6176,6052,-6976,703,749,482
648,365,-610,175,1900,-1901,-731
649,-259,2133,4062,-1634,1697,941
650,4959,2788,-6669,-1617,991,-1058
651,-638,6286,-4347,1893,-1836,904
652,-7147,-2501,5597,-1692,-267,-1318
653,-554,-4549,-2924,-490,1941,-177
654,-7920,-2341,-4478,1944,-1360,-642
655,-3848,-751,-2024,464,-1787,759
656,1541,1539,1554,-913,-1496,-669
657,761,-603,4821,-1124,1549,1433
658,-5044,-688,-4110,-482,1271,1696
659,-574,1950,-5742,-1704,293,-1534
660,6867,6748,250,-1843,-1133,1892
661,1631,2311,-5217,705,-1902,-1557
662,2630,4396,-5056,-1626,1902,-1333
663,3194,1820,-300,-1638,-1795,433
664,-3516,-555,-556,-1931,74,-542
665,-6791,-7365,-1562,730,-506,332
666,3735,290,4286,-497,-694,-1316
667,-3302,6160,4949,-1645,35,-1396
668,3727,-214,-3446,-1683,456,-849
669,422,5562,6660,-777,120,465
670,-7216,3296,3667,594,1628,-1400
671,7244,-62,5470,196,-1632,-302
672,7594,-4032,7085,-1608,564,1942
673,-2443,-4217,7638,1851,-1522,1843
674,3443,-6772,-3384,360,-72,-1384
675,-6333,-5373,1269,263,-55,-1829
676,2939,-4463,5827,757,198,1856
677,2199,-5866,-2962,-728,905,630
678,-7584,-6919,1497,-1982,-24,1393
679,2728,-1129,4685,424,-1927,1396
680,-1906,-3268,-7880,1616,-11,620
681,3178,-4291,3444,262,-1290,-1967
682,-6829,7509,-2641,-931,-1491,-1660
683,4725,5235,-1438,-740,-1515,995
684,3764,4980,-7137,1635,-731,5
685,786,3471,-7959,870,331,-1165
686,1652,-1509,-61,746,-939,303
687,-5463,6347,531,1331,-18,-709
688,3071,-7148,-378,-824,-330,1099
689,2587,4699,4799,-453,-277,163
690,-6064,-5226,-4824,-264,1514,316
691,6655,-3695,-2567,-650,976,-1181
692,-5594,2709,-3952,-228,1685,247
693,-1472,950,-7448,864,420,-1826
694,3518,-3967,4329,1261,-936,1513
695,7232,1804,-5779,1459,-1090,646
696,6945,1393,36,1906,-1480,1366
697,6341,2866,3271,1414,-1624,714
698,-6073,-4768,42,1656,-1748,-1643
699,-347,5014,-6307,1131,952,697
700,7631,3461,-6558,607,1103,34
701,2183,-510,-4697,1896,1614,-1162
702,5711,-7936,4208,349,-869,-1284
703,-3738,6942,7772,-48,-1864,439
704,-746,4852,-2373,1785,-1112,1497
705,-6541,-611,-7805,-1274,-503,-611
706,7464,3022,-1453,-672,-961,-412
707,-7222,7154,3928,-1486,1343,757
708,-605,-5377,5603,-1377,225,128
709,6910,1048,3970,-535,1385,-1084
710,-6304,-6326,4258,1130,620,-1834
711,7163,2635,-5327,-1269,-669,407
712,734,830,-5373,-402,-1467,-569
713,3521,1744,-542,422,136,1361
714,-7725,6260,-3086,90,993,660
715,253,-3786,-3697,-748,1110,193
716,947,2722,1330,-1875,-1184,1633
717,1135,-7288,-811,538,-33,-235
718,-2639,-185,-2417,1449,1236,820
719,361,2225,6949,1061,-1310,1498
720,4824,-5311,5272,13,1892,-131
721,6217,-3127,-6412,1157,-1150,1617
722,1501,1280,-5388,-1727,-1234,1531
723,6440,2502,2898,-1904,332,290
724,-5245,3612,2131,-893,-1760,-1551
725,1984,-1788,5929,1960,-257,1321
726,-1203,-3067,6101,-841,640,-811
727,-6097,-5607,3000,606,1117,-175
728,7539,-5539,475,1309,39,831
729,-6020,-5621,-3140,-993,-490,-654
730,-4764,-5286,3914,-1991,1980,1341
731,-4526,1353,3440,250,339,1103
732,3462,2619,3274,-1889,1193,1867
733,4341,-1350,-5806,1187,1592,136
734,-3648,-2865,-5625,-1031,723,-1441
735,6033,140,1187,777,-295,498
736,5502,4527,3396,-1841,1533,1156
737,3476,-2234,-2622,621,1612,1353
738,-6472,-334,624,-922,-471,-461
739,-4404,3304,7340,-46,-1654,1479
740,3633,1621,6460,-464,810,569
741,-6497,4370,-3365,-1284,-656,-359
742,-1807,1215,6869,1489,-1205,710
743,-4188,-5273,-4056,-1910,1843,-1695
744,-7138,4965,6511,-1151,-1238,-1829
745,-97,-3982,7446,750,1035,-1444
746,2546,6685,3734,-390,1833,-1763
747,-3042,1497,-7583,1384,-745,-673
748,2213,-2879,3850,-1174,1189,715
749,-2669,-6965,1315,-1881,1603,1494
750,5703,-1160,-6108,1534,-129,1443
751,-4134,1612,6386,1259,1207,51
752,-6268,7606,-7923,913,1070,1401
753,-6600,4530,-6329,-301,331,-933
754,-2434,-6812,3273,-572,-144,-1198
755,850,3151,6926,1442,1100,888
756,-6879,-4466,2870,-1076,-922,1590
757,-7048,5664,330,-1563,-37,-1410
758,6214,-877,2510,1174,-587,1531
759,-5911,4941,355,524,-1299,1196
760,-408,-257,4885,730,449,-890
761,286,1722,-5365,1741,1414,673
762,198,-1814,7510,-1698,-1837,1188
763,1955,-1970,-6790,1116,-552,768
764,3741,3702,3805,1387,-243,-555
765,-4789,512,1403,1488,506,-772
766,-1407,-4358,-4125,-1619,-1773,19
767,-119,-2610,1296,-997,264,-1699
768,538,-4578,-7452,256,-1458,1131
769,404,-1863,7425,-1918,-554,141
770,5664,-7311,-2093,-789,-626,1872
771,4174,2131,635,-1472,1973,-205
772,-467,-5767,5374,-746,-1478,-252
773,-5410,-1332,930,-920,134,1295
774,4706,5427,-2619,-1549,-1390,-1881
775,-6278,-4192,-5053,1713,271,676
776,-3465,-2159,3935,375,-1620,1001
777,-6218,-7648,251,1554,1671,-1625
778,-2665,-1137,-2999,1344,1124,239
779,2723,-4892,6473,-1086,1697,1914
780,-7152,-289,-5710,-1721,-290,-836
781,-4556,-4464,-1931,-737,-1908,-1794
782,-131,5585,-5374,-1106,393,-1200
783,-5221,-3750,3978,-1290,580,-1679
784,-2164,4040,7544,-1269,-1890,1868
785,-2637,5629,-588,885,733,-1960
786,-4347,7742,-2506,1564,-827,-1185
787,-3760,124,-4393,-1897,-964,1766
788,2328,-3433,6876,-1473,1132,1491
789,-2696,-4907,-2259,1126,1626,-1705
790,1286,-10,4316,-1506,268,-1156
791,-538,-2252,-464,1681,288,1135
792,5358,-7187,2663,-1930,1715,-469
793,-2800,6775,-2062,-881,1892,-1668
794,3984,1381,5881,85,1536,-1451
795,-2702,7266,5910,753,1534,-1934
796,-7040,1250,6503,-1923,1748,389
797,-2003,7677,-5817,559,2,-524
798,7566,-5329,-3407,-1503,933,-840
799,7360,-6793,-1721,168,-1513,-1754
800,-3324,-419,6105,-121,1663,42
801,2554,7810,-7873,-230,1690,526
802,3366,7184,5023,-1711,-1162,-686
803,-2421,6227,-4250,-1465,77,1201
804,-6533,7627,5119,-1262,1876,937
805,1836,-1212,-3691,1569,-1884,-178
806,857,-3561,4754,-1302,-136,-1892
807,6031,-716,-3029,-1216,-1011,150
808,-5525,1805,-3844,-182,-986,-1625
809,650,-1352,-4861,-545,286,1632
810,-5912,1235,-1636,1992,-953,166
811,5261,6119,-3922,-1884,-1547,-653
812,-5774,5376,7643,-676,-36,1205
813,-6048,-6126,594,433,-393,-1734
814,-3642,-5187,6767,-1618,-1901,466
815,-3403,4856,7748,-1658,1557,-1887
816,-1796,-3941,-1829,546,1011,-431
817,-7473,3698,545,-691,351,1208
818,-5007,-3948,-5269,-412,-1625,-1333
819,6379,-3419,6408,783,-1779,1869
820,2374,4499,-455,463,-1071,1638
821,-9,3190,-7754,-745,959,136
822,-6327,4199,4701,-1106,405,89
823,-475,-4563,-4704,1265,1828,400
824,-4180,-3912,1107,355,-27,-1708
825,-4081,7805,2934,-271,-1862,223
826,626,7068,-7726,14,-1941,-1054
827,-1376,7274,3271,1445,181,288
828,-2126,1706,3589,-663,1778,1645
829,-2473,1922,-4250,253,816,-186
830,-6059,3659,-1494,880,-1865,-328
831,-4189,4532,-4779,-925,1192,-85
832,966,6782,-682,-1121,-1524,1638
833,1833,2610,-1788,806,1726,2
834,4289,7570,-3484,219,-712,1569
835,4764,3172,1890,585,-1139,-359
836,7094,2593,-2039,1416,285,-1725
837,-4615,4589,1711,263,-1683,-903
838,355,2732,2697,-934,406,-1356
839,-3793,1604,-4428,1292,1028,-1595
840,-5070,-5856,515,1824,775,-1067
841,-4004,-588,4842,-1317,-967,1435
842,-3610,-2321,-5499,-931,-656,-202
843,6675,3958,6085,1383,-1328,-1036
844,3170,-6047,1000,441,-1557,91
845,-2104,-7451,1322,1530,-1033,-1339
846,4331,-2902,-5961,909,-1087,1199
847,-3386,-5384,-2619,-1575,1768,-7
848,-7271,-2283,6819,-1764,-94,-829
849,-3091,-6053,2581,1059,904,-1363
850,-2568,-3020,-5697,-723,-1555,-183
851,-3239,-3777,-1619,1093,-609,-1666
852,1394,-962,7218,-505,359,-1432
853,-6734,-3116,811,-53,1929,-1565
854,5951,6668,1162,-1739,1263,-1512
855,5388,2282,-3880,788,-877,1891
856,-7986,3845,-4088,-966,1599,-759
857,846,-3876,-4140,1849,-711,-544
858,-682,-3336,-21,1428,-1057,-673
859,7111,-499,7835,-588,527,1955
860,238,6131,2726,1840,-921,1873
861,-7103,-1823,4497,1325,-851,365
862,5644,2549,-6240,46,869,962
863,7963,-7861,-1917,855,-311,-1600
864,-5141,439,1562,-632,1692,-568
865,2238,5536,2540,-630,-1146,-1381
866,-5795,12,2210,-862,838,-1602
867,5987,-6978,577,-1882,799,-494
868,-6038,6218,6137,-1551,-516,-1169
869,-2281,-2344,-764,1690,1573,-1331
870,-5392,-6586,-2348,-229,-436,1876
871,-6321,-139,-495,-1625,-1428,192
872,1533,-476,-507,-1321,391,-1905
873,7015,-7757,-1678,-132,-1915,1661
874,-3297,6572,7831,1617,-421,-657
875,-2548,6858,6386,1862,1285,-1396
876,4259,3691,4726,701,-1218,110
877,-6312,-6644,5533,1848,1319,-1290
878,-5499,-1528,4055,1120,-1159,1397
879,-2145,-3719,1686,-1250,-773,476
880,791,4048,3125,999,-1930,1769
881,1906,-4969,7153,1234,405,-1707
882,-2930,654,4917,1935,-914,1427
883,4375,-5299,2925,1899,1808,530
884,604,6065,4261,1665,156,-1928
885,2883,7239,5617,-1613,-1536,-453
886,1124,1896,-2613,929,-963,1255
887,919,3,-3408,-1077,-1176,1219
888,-7950,5460,-5414,1343,-1494,-1531
889,-7096,-3869,753,766,1782,928
890,-5513,-7258,6835,-1898,771,-483
891,3224,3332,260,994,-1086,1302
892,-5957,3583,2472,80,480,-629
893,-4950,4612,6193,277,-1288,581
894,876,-6795,5863,545,-647,-1927
895,5932,-7859,3444,-1028,1803,-240
896,6088,-6335,6447,564,-1137,-1133
897,328,-5933,-1370,-1682,1155,-1454
898,5854,-1629,3238,-1542,260,1960
899,3060,-4967,804,861,188,-34
900,-7259,-2822,3148,1054,1427,-951
901,2451,-1720,2953,-980,612,-62
902,3802,5888,3387,1043,345,868
903,5484,-3103,3965,513,-1456,900
904,-7941,-3662,-7289,-1049,-460,-770
905,-1761,1947,-5924,433,-1794,836
906,1372,-7737,-6502,1798,-1843,524
907,6235,794,688,-1955,-585,173
908,3928,-2778,-6914,459,289,832
909,-1579,1162,7265,-355,-136,-460
910,7496,-7745,837,1098,-181,-596
911,-1135,5916,-66,998,-1940,-118
912,4840,-4870,3536,-219,-170,-1694
913,2985,-3836,-3665,911,524,-1172
914,1507,-7009,7480,-734,755,-993
915,5594,-2063,-3763,1368,278,84
916,7108,1086,-1663,415,1558,-1912
917,2712,-6966,-3362,136,-235,-1638
918,-5764,6210,-5521,278,133,-353
919,106,-6657,-7713,552,1273,-1609
920,-6661,-2711,-3298,-1966,1118,957
921,-2141,-239,-4492,1317,-353,-372
922,6744,-2758,-4935,1009,-1882,-1443
923,-6737,-900,-5573,301,-750,-1299
924,-3152,2013,-1603,-487,-1410,-1620
925,-6853,3457,-322,1621,454,-1681
926,1815,-4313,-5450,1527,-1687,359
927,-1066,111,4975,-1955,-1888,-366
928,955,3630,-2638,-694,-353,1756
929,-1717,-1230,-2707,-1495,1317,-1943
930,-1081,-7137,-3360,-1609,1700,1227
931,2103,1993,6359,1927,-1719,-1840
932,3007,-2188,-1079,155,614,1336
933,2531,-163,-1982,1808,-1283,-361
934,-6166,-4950,-690,-1387,1036,61
935,5597,7877,-1480,1459,1033,1830
936,5167,6165,1313,-1191,157,-1091
937,-7712,6743,5284,669,1358,-1977
938,-2277,98,1526,-249,-789,-255
939,835,6459,-5011,65,1420,-354
940,7372,-1695,2030,1683,-1217,-1636
941,7299,2564,1268,-1623,922,-1262
942,-2876,2604,2743,1061,-555,-1058
943,290,-3096,2320,-232,-214,-778
944,7518,-4923,-1446,1473,-989,-162
945,-7623,5624,4848,1433,-1193,-1031
946,2042,5186,-5739,1034,576,-414
947,5143,2935,7552,930,68,1945
948,-2295,-4798,6045,-1095,-1203,1379
949,-2744,-3962,-1401,643,-137,-159
950,-4303,6378,3100,1338,1182,1074
951,-1321,3971,-2585,503,-1328,411
952,-1005,-1335,-4947,1382,1639,1310
953,6227,5196,-1112,-1678,833,572
954,-6191,-6121,-5265,-1111,-1769,-285
955,-7730,-1932,-4491,1218,-31,680
956,6755,-4072,5558,-1088,1039,1333
957,-2636,-6087,3460,132,318,1315
958,-982,149,5993,-850,-1215,1865
959,7963,4918,-1191,-1262,1531,-1132
960,7399,-1911,-5014,-1434,1303,-1048
961,-4336,4537,-391,-1192,1967,-1680
962,-6190,-362,-6134,-851,-1847,-1821
963,4241,-1137,-7944,-1619,1795,566
964,-4993,-1265,653,1247,325,-1554
965,-1016,4142,3968,320,-759,-729
966,902,1300,653,-1196,1708,-1956
967,2504,7281,3753,641,-678,-713
968,2985,-1693,-6697,1157,1356,141
969,5667,-1557,5192,1472,-347,566
970,-4736,-5593,-6445,-37,159,541
971,-4086,6411,4597,357,-1460,411
972,6071,3114,-7263,-235,1413,725
973,-2398,-3874,1060,-205,-570,1864
974,-2803,-5657,-916,72,576,-1676
975,-2008,-6790,-7295,319,1806,-1864
976,-7197,4855,2129,-1563,-456,1957
977,6533,4188,-4651,-1529,1724,-395
978,-3388,3010,-6267,-1382,-1820,1378
979,4690,-4451,653,-1281,137,-496
980,6857,2038,-185,303,-647,1047
981,-4158,-2124,7340,1734,-1446,-712
982,-6656,7260,5045,-718,1899,1463
983,-5670,4228,1166,-1705,399,404
984,-3491,-173,4454,894,1705,-1327
985,162,4945,-3635,523,-535,-252
986,-1071,-1192,2717,1435,-260,-1277
987,3182,6485,-99,-1121,-360,861
988,853,7962,-6687,-503,415,443
989,-7396,-7324,-1910,-951,-1612,165
990,-1722,-6536,6025,-69,1174,1170
991,-4270,-3984,-3632,230,-1935,-1682
992,5451,4636,2372,-229,868,-1308
993,1907,4547,4572,-1430,-1381,1949
994,-3620,-736,-3865,37,-1852,-1487
995,-1347,-7846,3022,1445,1004,-498
996,-4275,3848,6845,-346,-566,295
997,-6312,3398,2058,276,-1951,962
998,-7763,-4199,-4469,149,-612,992
999,-843,4866,2283,-966,-1897,347
1000,3669,-2378,-6352,1237,-1965,638
1001,175,3291,3637,-1500,353,-1022
1002,-2511,2076,2852,-420,-1679,-1318
1003,3580,-6492,-2197,182,487,-1517
1004,19,-2165,-5743,-129,1555,-501
1005,7906,2065,-7984,-179,-1630,792
1006,4125,3013,-7806,1556,-720,473
1007,5707,2922,-6734,258,168,-348
1008,-485,6714,5858,1517,-1002,497
1009,-2758,5886,-6301,-1076,1412,74
1010,-7999,-3609,1713,-1472,-1119,-993
1011,-7011,-3649,-4047,-1641,970,1999
1012,3004,-1085,-4283,1633,-1127,-567
1013,6991,-5475,3488,-249,989,408
1014,6475,1484,-6315,-232,1467,-400
1015,-7634,-5056,6157,1462,-529,-1124
1016,-4733,-521,-6082,652,821,1139
1017,6213,4422,5066,1624,45,202
1018,-169,6256,5245,-1396,-280,-1420
1019,-6686,-7563,-7616,-1732,1423,-1530
1020,-4028,1843,5763,1452,-1147,1888
1021,-469,1834,7786,-87,-1995,-446
1022,3338,-5797,1695,-1687,458,1977
1023,-4689,-6656,-886,-1085,-905,-228
1024,-222,-5699,3354,-225,1633,1215
1025,2851,2863,550,472,-1395,1212
1026,-5167,-3014,-5547,1759,-1180,1659
1027,3676,544,-7960,19,-1984,886
1028,5970,-3421,4392,-10,-640,-1305
1029,-3916,3799,3964,365,-454,-1630
1030,6829,-4724,3468,799,-56,-543
1031,7241,-2079,6006,-23,-502,-927
1032,-2283,3065,-5015,444,1810,897
1033,2506,-4198,4132,-1833,-1307,-1367
1034,5721,6255,4970,-239,-1640,1358
1035,-7574,-1846,123,-1982,-1474,749
1036,-2478,6124,-2223,-1665,837,1650
1037,-5062,-5578,-972,-1778,-1233,1995
1038,-1241,-6134,7555,24,-79,660
1039,-3515,-2691,-4419,-1957,1172,-397
1040,-584,-5692,54,214,-1560,-910
1041,-382,822,-7069,1842,130,425
1042,560,-2006,6685,-135,1294,-514
1043,5962,-7498,3358,280,-1585,1150
1044,3216,-4384,-2673,-365,1025,-1331
1045,3224,1781,7916,-139,960,-1748
1046,-459,6647,2958,142,-1368,928
1047,-3959,1073,2244,1278,601,-1295
1048,-7925,-7167,-2633,-1890,1922,606
1049,1347,3878,4500,1581,-219,1666
1050,-1436,-5157,5751,665,462,-344
1051,6069,7451,-3407,-301,1002,-543
1052,-5364,3341,-6644,-1329,1910,-961
1053,-4768,-3814,1276,-751,1991,-1336
1054,4438,-4724,7432,268,-959,1928
1055,4748,2605,420,-154,-1086,273
1056,3039,-1422,6987,-1336,598,1295
1057,2914,-2037,1706,-1356,743,-959
1058,-2275,-933,2418,-57,1371,-878
1059,5421,427,102,-1765,1987,910
1060,6991,6099,-4157,872,455,-1980
1061,-3896,1511,1807,-1343,-226,-1118
1062,-5771,7684,3927,1096,-1488,-1955
1063,-4829,2154,1688,-1941,-947,-1229
1064,-4415,-5345,4643,-1694,965,145
1065,6102,-212,1452,779,-1825,-920
1066,-7532,-2257,-2106,897,33,-80
1067,-1014,-1499,5685,-1446,824,-1873
1068,1488,-963,1386,-830,-1578,1392
1069,1834,3850,6182,1179,690,-1868
1070,-2667,7718,-1353,-1833,812,1886
1071,-1582,1898,-7879,-592,-885,-1150
1072,4418,-2564,5027,-893,1609,-871
1073,1700,3922,-4729,-1282,853,350
1074,-5803,6824,-6601,-1343,652,-1654
1075,4726,-1486,-7767,-215,-1229,-1873
1076,-6468,3304,1000,-125,-357,-767
1077,-2621,7501,6511,-1556,-205,1250
1078,-3782,2510,-6982,1529,513,-324
1079,-5080,-485,-599,-507,-1720,-124
1080,4016,7700,-4893,-926,-1563,1614
1081,-7047,3773,7174,-1214,1003,1602
1082,7583,2347,-334,-232,1388,-1051
1083,-3652,-1572,-5892,1915,-1722,1384
1084,-3211,2809,-2873,1095,1808,1873
1085,-7089,-3544,1847,-1063,350,1032
1086,1392,1461,1884,1706,1300,-885
1087,5475,-4023,-3700,724,-1892,-451
1088,4311,-1353,-5359,1297,1518,1399
1089,-4871,2596,5421,-1199,-255,-1768
1090,-7333,-4713,1596,421,-417,1471
1091,6724,-5861,-7803,107,1667,963
1092,4092,6502,-2354,1034,-1266,1174
1093,6757,-2198,-6440,825,1698,796
1094,1651,466,5730,-1314,-766,1725
1095,-6067,57,-2737,1539,-582,-481
1096,-3770,-3413,1275,-858,880,1197
1097,-3381,7164,7347,-433,-99,1284
1098,2506,7385,-4409,236,-892,-1903
1099,-2252,-1807,5130,1056,1765,-147
1100,3179,-2063,7694,-139,-1158,1293
1101,-7303,4837,-2667,-1116,1962,803
1102,-5886,4780,895,14,-148,-1207
1103,-6977,-2706,4663,362,298,1511
1104,-145,-6966,-2719,-1580,-6,1722
1105,2027,-2463,6555,-1477,1511,-902
1106,3986,-990,6158,-1152,1273,1187
1107,7494,7957,-2006,398,1298,1387
1108,1550,3959,5929,978,1980,1725
1109,-6294,-7190,-4407,-337,475,932
1110,2862,4114,-1190,-432,-672,622
1111,1978,344,-3949,1430,431,653
1112,2320,-3388,7987,1407,-341,253
1113,-356,3186,-4264,-1018,1251,49
1114,5598,316,7807,949,1480,-237
1115,1391,2095,7907,971,162,739
1116,6159,-7463,4567,-758,1839,-998
1117,-3352,3295,6670,-468,-1767,-914
1118,-6388,6979,4037,-1319,-95,1584
1119,746,-749,-3448,-1822,-951,615
1120,-6499,-1376,-2300,1384,-1475,-368
1121,-6817,-4302,2778,1721,-1344,-932
1122,7344,-4336,-3990,-34,1021,1149
1123,-4506,-3376,-3540,1871,101,-1691
1124,7889,1727,7571,1477,312,-267
1125,4658,-7975,3987,-1457,-654,-1753
1126,4864,-3401,-3257,1647,-604,-929
1127,-6104,-5161,-3386,-706,-395,-610
1128,-614,7233,7744,1165,1377,1365
1129,6315,-5013,-1511,410,-1908,-1847
1130,-3196,5297,1346,-988,-800,1109
1131,-2845,3012,6148,923,211,656
1132,-5882,103,-6953,-1816,-1734,846
1133,-460,-998,-2480,-782,209,-732
1134,432,3618,-7844,1912,417,-294
1135,-1178,-396,-2076,1580,-1172,-1649
1136,6317,4473,6457,-1525,-314,690
1137,-2379,-2318,-7274,-632,-933,-1798
1138,3003,2759,-3986,-1532,1563,747
1139,2582,-1429,5399,-901,1937,1706
1140,-323,4382,-7741,-1819,-872,1617
1141,-4297,-162,-3856,-772,-539,-304
1142,5544,-7158,-2073,-471,-1812,40
1143,-1011,-19,-4451,-1834,1717,-85
1144,5777,278,5657,1810,-1463,-723
1145,-3727,-1077,-3685,-281,563,192
1146,-7644,1526,3382,755,-335,-74
1147,-6043,1752,3445,1099,-298,1155
1148,6593,-7662,1477,-1856,-1762,862
1149,7976,-4424,-3770,-529,1069,134
1150,4216,-2159,1577,-1291,-1107,1854
1151,-4659,2444,4383,1286,984,823
1152,-6375,-7950,-3101,-1710,666,-1674
1153,163,-1789,394,1364,1280,-122
1154,-4811,1751,2664,-531,-1029,-896
1155,-3382,-5695,6671,-848,-984,-947
1156,5177,1050,456,909,58,1854
1157,-5139,6696,-1840,-121,512,1219
1158,1036,-6509,2890,-1581,-1094,83
1159,70,6013,4551,-1941,1119,-1441
1160,817,2885,-7191,11,933,1872
1161,-2151,6250,4817,495,1839,265
1162,-5905,-2468,902,1486,-1855,970
1163,-5658,-1682,-6698,-1134,1241,763
1164,5190,-2101,-7689,-1423,32,1345
1165,2243,-127,-3574,487,-1951,287
1166,-350,-7124,6619,-910,-931,236
1167,-6206,1382,4456,908,-125,-609
1168,-1243,4645,4671,722,-762,-275
1169,420,-664,2927,-834,1963,644
1170,-3657,943,7905,1606,1347,1445
1171,-2118,97,-749,-406,494,380
1172,-3947,-5041,-4221,-1923,1121,-135
1173,-1666,364,3398,257,1518,238
1174,-4482,6168,-1905,-399,-675,-482
1175,5769,-5717,6593,1512,-202,1822
1176,-2652,-2771,-7374,-1394,-572,-156
1177,7297,-1465,2318,933,27,-217
1178,-6692,3520,-5837,-121,-1372,-1107
1179,-6096,6071,1092,-270,-41,-1239
1180,6480,5101,-5051,1317,-590,669
1181,-5891,6565,1901,1059,-716,-653
1182,2209,-6646,-7468,626,-789,1480
1183,832,769,1042,-1049,-356,-1263
1184,2074,-7083,7223,-1899,-1462,1819
1185,-266,-2121,4339,634,-1875,1637
1186,4426,-7003,-3637,-1315,-656,-1585
1187,-6422,-926,-3737,-1145,684,1096
1188,3345,-2628,1543,-976,-798,13
1189,3646,1639,-1130,-1078,560,-1836
1190,-7729,5677,4124,-33,802,1550
1191,6810,7582,-433,1089,638,-1535
1192,4568,-6703,-6859,-1717,-1597,-1821
1193,-968,856,-6294,-1989,413,594
1194,7349,-6511,-690,-254,256,-1384
1195,7109,-7771,197,966,-936,-195
1196,-7016,6823,-1768,-200,1326,694
1197,-5040,6622,-5525,1364,1059,9
1198,-5369,4843,-5721,-172,-1306,-1112
1199,-385,-1207,3060,998,1430,-370
1200,-940,-2227,774,992,-1620,-1552
1201,-3785,6353,-7774,-261,1138,-1792
1202,-4296,6942,237,1119,-966,-1315
1203,2609,-4330,2174,1523,1320,-1564
1204,-3452,-1647,4319,1578,-366,1676
1205,-1941,-745,6790,1249,1375,-484
1206,-2557,-264,2780,-1922,493,-435
1207,2725,-5659,-4083,-564,-1280,-560
1208,2861,2414,-3355,-340,-469,-1473
1209,-6760,-4027,-4438,757,-1488,16
1210,6611,3801,-54,1402,1338,-1766
1211,2613,-1331,3420,-1496,-75,39
1212,3153,4984,-2411,610,-1020,-401
1213,5456,5643,-419,1939,1845,963
1214,-7895,2814,405,-1447,1609,63
1215,-3897,2961,250,-1753,319,-144
1216,1319,-17,7726,204,833,597
1217,3570,-4005,-3578,-1978,-104,1229
1218,-1002,7753,-1806,-82,710,69
1219,-7322,7104,1883,-1821,1957,791
1220,-3852,-6851,-2276,-938,-1959,-713
1221,3772,1084,232,-274,-1,-1913
1222,3281,4478,-719,-927,117,-1128
1223,1935,3745,-7761,-889,-1111,-345
1224,-7075,4127,3563,-844,1446,289
1225,499,2830,3987,749,1761,684
1226,-3633,2837,-7748,-969,-1638,697
1227,-404,-1494,6687,-832,1410,-881
1228,-5261,-6155,-5776,1037,205,-860
1229,-6026,-7574,-5666,-1004,1625,1919
1230,734,-6611,-7454,216,1348,711
1231,3176,1735,3654,941,-119,-570
1232,5346,-1938,-1504,244,1784,1451
1233,233,-1923,4485,1575,-1900,-417
1234,-5651,4615,-4606,629,591,1196
1235,3534,-4956,-7552,1960,-1367,1697
1236,3768,6352,-3828,1811,1214,1170
1237,-7685,-1430,4278,775,-792,-928
1238,-3058,2309,-50,-1224,1272,1309
1239,-421,2316,1778,456,130,-577
1240,-5382,4885,3653,-396,-529,-1866
1241,-5642,3465,3832,-155,1594,-1950
1242,3360,-5439,-2069,131,-1455,-504
1243,3977,-6211,-6832,-217,1662,-754
1244,5957,-2055,2457,-1335,-1337,1711
1245,-6561,-3716,1389,1730,-439,-56
1246,-5255,1105,5139,1535,-257,-238
1247,6867,6042,-6520,-365,1903,72
1248,-1575,1866,-3834,-1930,-1326,383
1249,5707,-2339,4242,-1569,1036,-309
1250,-7286,1908,-7654,-647,1265,1506
1251,5770,1713,238,-185,-1139,-1976
1252,286,-3228,-1529,-623,1024,1556
1253,3170,6447,-1499,-1373,98,-34
1254,1305,-2326,5405,-782,1421,-548
1255,4078,532,-4738,-1574,1047,-862
1256,7312,-4166,3870,824,761,342
1257,7959,1160,3497,13,1904,492
1258,7375,6482,-1217,-1056,-1115,-1998
1259,-6825,-2400,-2932,-1994,1532,1350
1260,611,738,-3908,-203,-680,-1285
1261,-5191,3845,5770,1706,1879,-514
1262,-280,3482,4770,394,-1627,-614
1263,3840,-1485,594,1717,1971,-201
1264,421,-6769,-4278,-1684,1992,-537
1265,-3256,738,3446,1701,-1531,-1893
1266,-4618,-1071,-7013,967,-1314,189
1267,-2462,5033,-3039,597,266,1164
1268,-6371,3283,-4857,778,-1294,942
1269,1292,6323,4667,1423,894,-1886
1270,-2260,2486,-7625,153,1136,730
1271,-1692,7431,416,760,346,75
1272,4457,-4398,-4277,1968,-1047,-649
1273,602,5319,-3450,458,-445,-1327
1274,3866,-7622,-6088,-1409,1353,-672
1275,-1533,3599,2378,-1651,-1438,-1552
1276,-5058,7728,-3830,-1492,1059,1970
1277,5392,2016,2997,100,-504,837
1278,-3870,2477,-1131,134,607,804
1279,-653,-4002,-1323,1293,-233,300
1280,2613,6631,-7088,-1044,437,-509
1281,322,5929,4657,240,1981,1502
1282,-14,-201,3995,-1866,165,558
1283,-858,-5022,-6330,930,506,-280
1284,6051,5373,-7604,799,169,-203
1285,4710,-2449,1798,-751,139,-1391
1286,6743,-7133,6008,1603,1808,-1245
1287,-2651,1338,709,170,1613,-1343
1288,-7877,7310,451,61,-1275,-90
1289,1378,628,4495,-1558,-1893,-330
1290,5289,-6436,-303,1890,-820,-66
1291,4504,2578,7443,-1643,1591,-1253
1292,-4972,2243,4946,1741,-1056,1413
1293,-2689,2126,4404,166,-1641,-549
1294,6596,1736,2251,-1752,745,-1210
1295,1385,1724,-3329,-496,263,-1609
1296,-7466,-7557,-4406,-146,-899,1603
1297,-2759,5087,-6404,1794,73,-1487
1298,-2513,288,-1491,-1638,1045,940
1299,-1563,-5280,5907,-864,572,1766
1300,-1293,-7313,-6707,-553,1426,364
1301,-6482,3841,5694,-1865,290,222
1302,-3116,-3974,-7845,-307,-20,-727
1303,5208,-7820,6031,1436,209,-1778
1304,252,1042,4839,822,1463,1175
1305,6059,3704,3102,612,-315,186
1306,-2107,-5403,3383,-1625,-797,1512
1307,2937,6536,4276,1268,1593,423
1308,-3026,3257,-7223,1779,107,1572
1309,-1992,7513,-5171,1886,-1250,1799
1310,2764,5805,7228,-438,-1284,692
1311,-2728,6317,152,-1490,165,209
1312,2543,-6147,4829,-277,1453,-1910
1313,1418,2207,-7893,-845,376,504
1314,7863,-6651,-579,1739,-1479,-995
1315,7097,1709,3999,-1079,474,854
1316,2489,312,6166,89,-447,619
1317,7317,5583,2686,-169,-1962,444
1318,2506,6110,802,361,-1817,-1145
1319,6369,-5287,3689,1784,453,-196
1320,54,1847,-7727,-1554,-1947,689
1321,-4717,-998,-7165,-1788,517,-1726
1322,1240,755,7315,119,-1974,239
1323,4158,395,-4344,-1946,-1228,-244
1324,2275,4020,314,788,-996,-1334
1325,2634,-524,714,130,174,-1358
1326,2313,4657,1136,-1568,1342,-1413
1327,-2730,-7592,-6885,1917,-350,-98
1328,-6711,-182,2559,1758,1440,-419
1329,4915,-625,3990,667,1490,-1100
1330,-3972,376,1067,-117,767,-1899
1331,-6807,-6333,2938,1887,-393,-949
1332,-6388,198,395,-1287,-335,-1471
1333,4312,1661,-898,-696,-1553,1292
1334,5365,3997,-1645,-702,1516,-566
1335,153,1076,-4880,255,11,-545
1336,-5556,-6517,-24,-1854,-631,-921
1337,-6693,-6590,-6718,-1260,182,-1645
1338,-3201,-7892,3401,1997,-617,1028
1339,545,-2745,6081,-651,1648,-1946
1340,7451,855,-5367,607,1593,833
1341,7016,-4184,4875,-1591,-415,1135
1342,-1521,949,-3573,1350,649,1480
1343,-2726,5550,5042,-79,-198,217
1344,-4655,-2643,-1806,695,-904,1897
1345,6099,7573,258,-285,1677,704
1346,-1562,3066,-774,-713,-301,-1346
1347,-2476,-3105,4338,558,1723,1026
1348,-5578,-6244,825,1801,1857,-1893
1349,-2284,-498,-1524,959,-1042,-1294
1350,-7348,-4855,-5601,-1186,-1847,1581
1351,-6488,-2218,-1225,-1447,-41,1252
1352,7157,-593,-4566,1995,199,1082
1353,6036,486,6321,-588,1932,-1185
1354,-3381,2994,-3461,1673,949,1473
1355,-4314,207,6684,-1569,1199,-713
1356,-188,6527,-3902,1641,1315,-911
1357,4434,36,355,402,1615,-779
1358,7869,-5399,1271,-1675,-622,-640
1359,2651,3684,3869,-1799,1457,354
1360,-4889,-5419,-185,-93,-348,1977
1361,-5555,-4425,1457,-488,-1342,-1663
1362,-6579,-6492,6351,1689,-1831,-660
1363,3400,-5338,6513,-581,-565,-1432
1364,-7019,-2709,-6202,1973,-873,-906
1365,6253,-1437,-5142,-649,-1604,1137
1366,4326,4969,-7086,1199,490,1706
1367,-7113,-6978,5382,-701,-604,-1119
1368,-5704,6817,2217,-1067,-1067,409
1369,5174,-4396,-2705,-1628,761,856
1370,3243,2775,-3668,1521,-1867,-141
1371,975,1171,-4850,-1421,-936,575
1372,3547,-1932,4679,1017,804,-1944
1373,-6119,-595,-7469,-1554,-202,111
1374,-2238,-3952,2180,1344,295,1860
1375,4098,-6477,7683,1239,1270,-98
1376,-6014,3947,4900,1786,-1655,-1840
1377,-1576,-1844,-2885,-1778,49,1625
1378,-2572,7836,4178,-547,1629,-1226
1379,4127,-2740,-7683,-1715,-1522,1006
1380,-3226,-4,7731,-1528,-1394,-96
1381,-7153,1537,-5363,-6,1152,1198
1382,5623,7411,-2075,-337,1759,1240
1383,2610,1907,-3055,1770,1665,-78
1384,-3216,3467,-2289,-756,-1789,-312
1385,-7229,2277,-2513,1653,1933,-1286
1386,-2310,-4356,4766,1115,-753,1476
1387,6004,-2699,7857,-137,1079,351
1388,-3810,-6337,5791,-850,-562,-292
1389,4633,1185,5137,-952,421,-1040
1390,3286,-5525,2281,-358,-711,-1052
1391,-4183,-3459,7626,57,-69,-1615
1392,-2903,4357,-4666,1394,1047,-1895
1393,1227,5985,-5278,-953,-1,1989
1394,-4149,-7920,3366,5,-1843,771
1395,2869,6866,3725,-1305,1566,22
1396,7926,739,-2569,-413,1133,94
1397,3352,6865,3814,768,1467,1652
1398,-6776,3697,2530,-555,-335,984
1399,1758,5186,54,-1530,-1743,-792
1400,-4136,-5245,-2550,1755,603,-1765
1401,-3570,6511,-6448,1938,-82,699
1402,2339,-4329,-7056,424,-804,1437
1403,-700,-2953,4202,1813,-962,1508
1404,1240,-7328,-4627,-561,138,-618
1405,-1419,-7339,-5760,1612,-229,-643
1406,-3874,3990,1135,-993,-654,783
1407,-6410,786,-4806,-1148,1564,-581
1408,2344,-5651,-2140,-1314,1038,1560
1409,7034,-5961,-714,-913,-1253,932
1410,6707,4722,2010,-1932,427,1760
1411,2105,7298,-6168,-661,728,1986
1412,1123,-1961,3028,1117,-174,-873
1413,-7651,-2473,3182,1365,1465,1336
1414,7613,4240,-253,-1677,1509,-1404
1415,7325,-4592,-6444,-1340,-1940,-618
1416,624,7306,-2390,-1434,-292,178
1417,-5957,2102,-5399,-758,-733,-1934
1418,-6700,2052,-355,1677,-1898,1590
1419,-1609,-993,-329,7,801,-1572
1420,-2662,6348,6722,801,1644,-1512
1421,-3119,5692,7336,1817,-969,-1098
1422,5088,2057,5576,-626,-1318,-1966
1423,5240,-3827,-1903,-1725,-1813,333
1424,3314,2055,-4865,1974,183,-1062
1425,2509,-5029,-442,1015,-1111,-454
1426,-912,2532,-5517,1379,-143,959
1427,28,2477,-7620,-1424,-1140,1035
1428,-4112,-926,-1931,1091,682,-435
1429,-7662,2979,273,1418,975,-530
1430,-1817,-6587,-4100,1680,238,419
1431,-6810,6941,-5876,291,-1047,1254
1432,-7108,5935,643,-1428,1983,1126
1433,-3089,4159,-7824,30,-956,1435
1434,-1395,-6850,-7667,893,-286,-1740
1435,4319,-2144,-3008,-460,-1124,-87
1436,-5939,2720,-852,-754,1051,240
1437,5192,7218,-1995,-573,-1927,-437
1438,3299,3521,7399,-1174,1148,516
1439,-2779,-7474,-3853,1398,-94,1291
1440,1993,4326,-7926,237,1008,-1528
1441,3619,3804,3044,-4,-955,-467
1442,-3986,-2334,4529,1973,1813,689
1443,-4367,-5959,-6528,877,-585,-310
1444,3678,-1358,-4598,789,-1093,-376
1445,1661,213,-3682,1171,1602,-1529
1446,1157,-5781,-826,102,1805,329
1447,-6697,3653,3469,-131,843,-148
1448,3881,-3460,-5317,553,1785,-687
1449,2239,1026,-5307,-298,-902,1452
1450,-5936,5485,-3031,-263,1610,230
1451,-7671,6759,5712,1749,-1752,-472
1452,2877,-3927,-621,479,-23,1432
1453,7713,3216,5848,441,1019,-1076
1454,1774,-3845,5405,-1791,-524,1277
1455,1219,-758,7017,937,-1197,-354
1456,-2331,-1789,-4110,-184,-1434,-1188
1457,-3097,-2617,-1454,-1799,-603,907
1458,-2482,1964,7547,-1877,-1759,-18
1459,126,-2213,-4981,1458,1066,1502
1460,-3073,179,2547,613,1220,-1959
1461,5249,5923,-2927,-1144,1091,806
1462,-3370,7302,-888,1965,1566,-477
1463,5015,-3896,5131,-1078,-589,134
1464,-1589,1921,-5552,-165,1928,-714
1465,-3134,3180,-5683,1449,1744,-511
1466,-1378,6719,7965,-1433,618,691
1467,-2427,-5904,-2468,616,1313,916
1468,1568,3263,-3176,596,1067,873
1469,7886,6619,285,1356,1859,-162
1470,-2291,3761,1749,-308,-932,899
1471,-911,-5294,-4908,-1639,-1763,-1633
1472,3188,-1046,-2371,1565,-405,1921
1473,6913,116,6933,-1503,1027,676
1474,-7458,4846,-7318,454,1178,-916
1475,1233,1553,-5295,778,1725,1086
1476,-6216,-1105,6768,1257,1004,-1281
1477,7817,-7940,3239,1109,-709,1025
1478,4039,-7390,7591,1633,132,1667
1479,-6636,4309,6350,186,-1970,1310
1480,-1903,4676,-1208,615,1483,1116
1481,5741,3361,-1481,1758,-221,1890
1482,826,3950,-4783,1795,-1748,919
1483,-7053,7793,6594,-1442,206,-1073
1484,1395,-1910,-2672,356,964,-1220
1485,465,5969,55,186,-1966,-977
1486,901,-7568,-1289,194,1228,1185
1487,-2923,-1893,4605,1349,163,894
1488,4092,7746,6481,1181,-1902,582
1489,5398,676,-7254,95,-1107,746
1490,4319,-6025,3561,-1242,-778,197
1491,-4962,-2694,-2293,-11,-728,316
1492,-2850,-669,-3448,-1715,-1834,287
1493,6930,-4829,1641,-1312,-625,703
1494,2311,-5780,2283,1838,1610,1061
1495,-6523,2498,-7719,102,-1122,-1646
1496,7823,5563,-796,341,-1534,66
1497,-2643,4986,6836,1201,-1895,-486
1498,2607,211,-6493,-1413,-1837,-922
1499,-4025,5011,-7330,-1049,423,1367
1500,-6318,-4826,7141,1152,-435,1179
1501,6599,-429,-5378,1765,1263,1166
1502,-1413,1782,-2244,1869,-1213,-1271
1503,-6126,-1667,70,-1519,-1931,1094
1504,-4480,199,6830,492,1602,1466
1505,1937,-7232,6169,1005,-1396,1901
1506,-2616,1991,7629,-1741,1551,1373
1507,-4535,-7335,-6999,201,1585,533
1508,2421,-7904,980,-166,-1025,-1384
1509,1172,745,7038,-136,-868,-762
1510,-1037,-2930,2206,1790,1062,1253
1511,-2495,-1492,6620,-1537,1160,-614
1512,7045,4074,-1412,-941,1123,1279
1513,-6202,1852,4085,1743,-1486,-1120
1514,-6813,3999,2858,-30,-17,-1917
1515,3994,2863,-5023,-530,1397,1529
1516,1574,6842,5573,1286,-564,-1666
1517,2662,7093,-2355,-1483,-107,1427
1518,-7282,-4705,-80,-1248,1460,-1187
1519,-6557,2627,-1136,-84,-1581,-349
1520,-6917,924,-875,143,1212,109
1521,-1841,-6543,6525,-142,-1154,1150
1522,-3271,3495,4061,355,219,1215
1523,-4855,-468,6445,-752,-47,-221
1524,1222,-4317,-5509,-165,-927,-1520
1525,-2784,-4485,3824,1538,127,294
1526,5029,7361,-1005,1921,1651,637
1527,-3695,6825,-3605,1564,-448,-1412
1528,-2147,-7034,1911,-799,537,96
1529,7937,-5139,-5862,1525,1729,-155
1530,4425,3759,-2903,697,600,-1850
1531,64,-1440,2203,6,1651,1337
1532,-4336,3658,-6509,452,773,-330
1533,-2046,1403,4556,-948,-1136,954
1534,2247,-7319,541,-1906,-1426,-818
1535,2048,-5146,-419,638,-1732,-1048
1536,1256,586,-748,1675,288,-1755
1537,-234,-5632,3297,626,644,1338
1538,-785,1390,2202,-392,1374,1551
1539,-1539,-5509,-2268,408,1525,-630
1540,-1786,-2860,-5328,847,914,-900
1541,2815,7363,-4624,-1286,-672,1681
1542,619,-4177,5485,1156,673,-550
1543,4329,4869,2755,-1090,-1908,366
1544,-1015,-2965,2861,1701,-1401,515
1545,4324,-2353,6987,364,639,1026
1546,-5320,154,-1493,551,-1456,700
1547,2210,-3777,2533,-962,145,1490
1548,691,-5630,4289,-774,1331,-123
1549,-3949,-6456,6751,-1212,-1065,1204
1550,-4793,3314,1206,-1001,-1850,-1025
1551,-3773,4917,-509,-1452,-1377,480
1552,7219,7086,-3287,1885,-1220,-950
1553,-1016,-3409,-6111,1651,439,-592
1554,-3794,-6593,3633,-837,1172,-1958
1555,1980,3582,-1784,-1357,1063,455
1556,-6233,-6495,1072,-230,-1991,580
1557,2718,1378,-120,1033,742,1716
1558,-1042,221,1979,-864,125,-934
1559,-5812,3744,5733,43,1980,-96
1560,1027,-6793,-3405,-1912,-594,-612
1561,4369,-5875,2043,-1655,1548,-1917
1562,-4741,5235,-2219,132,1978,-111
1563,-6088,-1491,2962,-1121,-1154,1631
1564,4690,-2967,-7456,-901,-292,400
1565,2659,6802,1359,1122,86,1612
1566,3161,-3119,-5623,1360,1880,-1865
1567,7257,2902,2117,1061,685,-629
1568,2276,3531,1964,-376,-1658,-1186
1569,-2682,-7234,5536,-1934,364,-184
1570,-5876,-123,-436,1792,1924,-1173
1571,1507,-1989,-3986,827,341,-1408
1572,-7641,4678,6565,-1890,627,1812
1573,229,-6796,-7777,823,1632,1509
1574,-6017,7373,7213,1149,-424,1214
1575,3237,-814,6589,-892,-1371,470
1576,3026,-7770,3548,508,-509,-205
1577,-1124,35,7089,-1461,-536,1937
1578,2857,-7803,-1141,-1504,-707,-510
1579,582,3567,6266,-1240,478,774
1580,-1991,2335,1028,-1356,-1736,831
1581,-7400,5329,-7197,-307,1105,-1333
1582,-6262,2242,5727,-893,-1774,-1003
1583,-3131,5179,-7475,-362,372,1789
1584,-632,-1181,-1174,-831,-554,-1673
1585,-5689,5559,-794,420,311,1497
1586,-3367,-3348,-703,-1353,-1741,-1785
1587,7685,-283,-2706,-190,168,-1721
1588,-7585,5080,5082,-1897,-1794,-1563
1589,-2087,1190,-4558,1425,367,-1718
1590,-3404,1060,-2031,119,407,-20
1591,580,6328,-2266,1208,1445,-499
1592,-2179,2784,597,570,318,-1818
1593,-3541,6724,4095,-95,1597,-1360
1594,6436,-6454,-3394,1698,-1789,-1466
1595,4971,-7904,-4444,1012,698,-639
1596,-4071,-2537,2018,-1786,1885,467
1597,5647,2686,-4002,-1829,783,-840
1598,1014,-4378,-5424,-1435,-41,-673
1599,4386,4651,-6550,679,-1982,-809
1600,6250,881,-4764,1591,1241,-1330
1601,-4709,-2755,-215,827,-4,-1708
1602,2755,3605,-3601,-1901,-1265,-1225
1603,-7214,513,-3720,794,-199,-1038
1604,-4071,-6982,6323,619,146,-413
1605,7266,2908,-3497,890,-452,-1440
1606,2482,5882,-6687,-438,1090,790
1607,-2911,1895,2234,-1498,539,487
1608,981,-4953,5135,1792,-68,-1326
1609,1920,-1967,-3926,-1836,-1046,-486
1610,-2486,2748,6516,-1448,-268,-1388
1611,4245,680,-7839,1821,812,-616
1612,2754,-7324,-7017,-491,-1978,934
1613,5802,-679,-7010,-185,-1947,1055
1614,-3868,-6472,-5459,-751,64,1662
1615,5935,-6225,2342,960,-581,986
1616,-142,5809,5974,78,1349,-266
1617,-7214,-5315,453,-501,-1612,-1662
1618,6416,1628,-6597,-1377,844,-962
1619,-5049,730,-4061,1205,-1500,-1688
1620,-554,-7681,7803,-1064,-1258,1238
1621,4952,-1444,-987,-1729,1761,-918
1622,-4190,1215,-1516,-1954,-1584,580
1623,-6159,-1559,6258,-989,56,1496
1624,-616,3365,5650,976,718,1569
1625,1982,-7669,-3868,-262,1582,-142
1626,-1060,234,-925,-1100,-1295,-81
1627,-5091,-3089,-7588,1277,-1570,-1687
1628,-3225,289,-2301,457,1010,205
1629,3825,-3157,-2469,1652,466,1746
1630,2410,4191,2227,-172,1055,-1178
1631,1268,5782,-7093,-189,1677,1482
1632,-4342,4004,-7282,912,-1973,-631
1633,-3370,-336,7837,1955,647,171
1634,2907,4161,-1052,-1959,705,1641
1635,-6268,7663,-302,342,-1335,170
1636,-4252,5294,2346,-1796,-1345,1394
1637,879,7277,2783,-620,932,867
1638,-2585,-7438,180,-1950,587,886
1639,6726,3930,-7146,-502,-391,598
1640,-5790,-1749,2426,1838,107,528
1641,-5754,-5602,-1519,-1068,-142,-1688
1642,687,2676,6261,1782,-472,-651
1643,-4189,-6822,5497,1075,829,-1644
1644,4807,-7347,2069,101,1565,-1221
1645,-7448,4051,2374,1837,172,648
1646,-3311,5455,-6794,-1624,-1088,-901
1647,83,-5190,7028,176,1348,-1959
1648,-4200,-5394,-4718,1830,299,609
1649,6701,1860,748,-293,882,178
1650,-3647,1144,4883,298,-1181,916
1651,-7725,-894,-1706,1158,1489,-235
1652,-5421,1352,1771,1744,-1927,1162
1653,-2443,-1211,3946,1620,-245,-1876
1654,1604,-1964,2186,-962,1825,-303
1655,-2284,-7357,-4099,-1517,1268,1504
1656,-6818,-3427,-4797,1556,-561,482
1657,-1059,6074,-1462,-1352,1375,348
1658,-7020,-3742,-4149,-765,1947,1712
1659,-3296,2883,-676,471,925,-34
1660,6850,296,3708,1612,-1108,1702
1661,5914,-3244,-6,-1828,-514,-536
1662,2417,389,-2770,-1093,-347,-1587
1663,2639,1584,-3174,-1519,397,-1435
1664,-3409,-5913,6896,-1863,687,-1184
1665,-7322,-646,-694,-1055,-1351,-1142
1666,7663,-458,5723,-774,-275,576
1667,1731,-3661,6992,807,-1584,1871
1668,4541,-4970,-216,-606,1242,-443
1669,-3992,1375,7720,-960,736,1879
1670,-5284,7493,-2379,-243,969,989
1671,2150,5495,-4764,459,-687,334
1672,7942,2090,1606,-1617,-893,1314
1673,-3486,-7472,-3016,-1153,-608,1090
1674,5958,-7956,-2964,1624,1119,-419
1675,2870,6018,-6881,678,335,-357
1676,7289,1656,4871,1323,1678,-1304
1677,-2992,4647,7233,-1809,-796,-1355
1678,-3218,-4445,-447,1628,299,-1333
1679,5731,-3924,703,354,985,-375
1680,-5719,5943,-5286,879,1526,1376
1681,-7288,-6532,-3747,139,-1094,-1646
1682,-4037,2716,724,-1418,-153,1336
1683,-413,6074,-685,-1249,1660,-39
1684,-4569,-7654,-7502,1071,-119,1686
1685,2491,2485,3477,-1369,1076,-1873
1686,-4232,-703,6974,-905,-1233,1014
1687,449,-234,-7996,-208,488,-960
1688,-2902,2098,-7653,1847,741,-1839
1689,-4440,-1057,2954,-229,1352,-73
1690,-4611,-1160,-2563,1170,-1882,1327
1691,4635,4651,1138,122,-1943,1242
1692,7831,856,-3567,-43,1235,153
1693,-4770,-4382,-7860,-1167,-1882,1555
1694,4131,7697,-314,1045,-1780,1367
1695,900,2419,1921,-862,1691,-1364
1696,5736,-6698,-7396,-193,-1010,-348
1697,-1532,-1319,406,-205,-1398,1868
1698,6406,-6286,-2442,1843,-1364,-1143
1699,1033,-2633,2922,-1544,224,1128
1700,-4564,-7579,-7970,179,-349,1917
1701,-3836,-5910,-4626,1051,-679,1025
1702,4100,1514,6997,-1101,1862,1419
1703,-2811,1763,-1154,909,228,953
1704,-1591,1775,-3264,709,-482,952
1705,6104,4549,7348,-1282,1052,-784
1706,916,2073,-5058,1524,-1887,337
1707,-342,6696,-2562,1951,1028,-86
1708,1566,1829,209,-1866,-1314,-1606
1709,-7033,-5908,3934,1784,-457,1815
1710,-3319,-6896,-3857,762,635,-1565
1711,-5798,7389,6686,1067,-69,1926
1712,1230,4724,2157,691,766,-493
1713,-308,7725,179,1381,1765,-42
1714,4828,-5139,6885,1195,360,1839
1715,4359,-3520,4417,-1322,-1428,927
1716,302,6965,4778,81,-529,-1413
1717,-1061,3540,-3706,659,-223,1873
1718,5858,-7462,7340,-1136,969,-1461
1719,3185,-3076,960,409,-1445,1898
1720,2594,4944,1351,-890,123,-31
1721,2585,-6403,1784,-1293,-793,-420
1722,-1210,-4398,-1055,-1075,-184,1393
1723,-7706,6303,797,-768,1899,-370
1724,7130,5914,-1345,-413,-613,-412
1725,5592,-580,477,888,-60,-1230
1726,-3560,307,1212,1649,-1356,-741
1727,6125,6695,4723,-1178,-493,1592
1728,5502,879,6980,-86,1534,-813
1729,-93,-812,7128,329,1464,-444
1730,2554,-5380,5691,-1087,-82,-594
1731,4838,-5655,423,-500,3,1702
1732,4755,-625,-5239,935,603,214
1733,7778,6975,3453,-55,766,-926
1734,7667,-5591,3550,1105,-1757,-315
1735,37,2457,-4815,-1705,-1094,1666
1736,-5690,4574,83,-899,1734,29
1737,-2161,7010,1351,-1908,1377,-402
1738,-446,1769,-4984,1157,902,-283
1739,-4743,6507,-5480,486,-1462,110
1740,5971,-1509,3312,113,353,-1350
1741,4549,6905,-850,1795,1354,-1489
1742,-1792,-1348,-5847,1256,1923,-1949
1743,5825,-349,-7182,991,-581,728
1744,2459,-7038,-6318,-927,-387,-915
1745,-5966,-4284,-997,-854,1658,731
1746,-5654,-2574,-7625,1438,-1999,478
1747,7418,-2206,3292,823,-1823,-350
1748,7396,2171,-7484,-1372,1574,-1080
1749,-1503,2755,-1722,788,-1134,-1615
1750,5377,5901,2729,-75,1052,893
1751,-5936,-4916,3514,1676,-1555,1595
1752,7109,-4746,7412,1964,-925,-118
1753,7561,-6118,7310,286,1763,-386
1754,-2706,-2758,-989,-585,380,1273
1755,-4495,-1244,2702,-1572,-1997,1443
1756,-2873,-6347,-2425,1893,1114,193
1757,1369,196,-7789,-589,-920,-1237
1758,-1120,4717,-6142,268,616,1244
1759,-2159,765,-4712,1887,-1062,418
1760,2431,-874,1430,613,-894,1084
1761,5265,2434,-713,-41,-448,1640
1762,4247,6094,-1332,546,1375,-1128
1763,-3579,-5062,7187,79,-106,-875
1764,7068,182,1042,-1279,1831,-278
1765,2107,-699,5700,1848,-940,-480
1766,-3960,3813,-1272,1219,-1667,1238
1767,-6686,-4704,-1084,1019,1491,-92
1768,7403,6048,-2926,1128,1539,936
1769,1617,-721,6123,116,1824,928
1770,-2502,-2634,1814,1253,1550,-713
1771,-2158,-2302,-348,-1891,-1782,1948
1772,2495,-6580,-7859,1974,-1363,1756
1773,6695,2467,6010,-1498,-388,-607
1774,2323,-4310,205,514,34,1881
1775,-293,7325,-584,1984,-532,443
1776,-6710,201,7795,-355,-165,456
1777,5274,-2230,-4962,-1372,1020,-1695
1778,5912,3715,-1749,692,137,-299
1779,4916,-6651,-7459,1289,467,-1821
1780,4980,-958,272,-894,-257,833
1781,-1949,-1777,1018,-1451,428,1557
1782,-5351,-2151,5096,-1225,-1453,-144
1783,-6217,4636,5633,-1255,-398,1104
1784,-4155,-519,5826,1319,1718,-1374
1785,1453,-5398,-1536,-1562,-968,651
1786,4368,-603,1377,-248,1007,872
1787,3138,-5634,-6584,-725,-1405,1269
1788,-5632,-2655,-4054,1974,-756,950
1789,-1158,1635,3795,652,596,255
1790,-284,7456,3735,1485,1646,-1513
1791,7130,6591,4334,-1268,-867,-109
1792,48,334,-3426,-1023,432,-261
1793,197,7626,4008,1171,714,-1653
1794,-4706,4558,-5623,1974,1606,445
1795,1343,4916,3565,869,-1639,-693
1796,1737,1116,7269,278,-1708,767
1797,4122,6358,5465,206,676,1497
1798,2819,-2613,-392,414,1096,-1590
1799,-4795,-5106,12,1426,-1351,-1684
1800,-114,4505,-3371,-178,803,-1171
1801,-6809,-6080,7431,485,1989,-1794
1802,6213,2083,3674,-618,1742,-200
1803,-2666,7759,-6223,-79,1317,1429
1804,48,7757,5326,1238,-1551,1182
1805,2896,7776,-3196,979,-1262,-100
1806,5372,-1726,-5123,-956,207,414
1807,6760,-1908,-7819,-1399,286,1722
1808,-4619,2889,244,-1212,1425,1471
1809,967,-1426,7993,465,-903,-904
1810,-3898,657,6866,1381,-401,-1265
1811,797,-4914,-5247,615,-1097,480
1812,-440,-529,-3717,1624,327,-1481
1813,5027,5679,-7158,1919,252,1299
1814,-86,-5246,-1456,-401,-874,1413
1815,-245,628,591,-361,-1564,-1379
1816,-2404,-7663,-4360,-1578,-508,-392
1817,-5262,-3574,5864,885,-628,1688
1818,-3791,2879,1716,1956,-1763,-1060
1819,-1151,6762,-869,-186,1381,-541
1820,3607,-5660,7202,-1663,1612,1988
1821,3235,-6657,7045,892,1915,1591
1822,4447,-7892,3905,-1621,111,-1369
1823,3332,-3269,7907,1540,-993,179
1824,-1550,6327,-1756,1351,1773,-1738
1825,2509,-381,-5529,-1383,1609,1322
1826,102,-2949,-4337,-91,1095,-1734
1827,-1325,-7928,-7373,1349,1821,666
1828,-6527,2036,3193,1700,1833,44
1829,7056,1262,2273,1386,-1121,430
1830,2629,-2408,-4054,387,1503,-1928
1831,7279,1074,3384,-1967,1620,906
1832,392,558,-2303,-1910,-1410,569
1833,-5051,2811,-2441,-432,-526,373
1834,5346,42,1697,353,-1748,1546
1835,7147,3594,2571,-1810,-1622,-998
1836,3436,1822,-3559,-527,468,384
1837,1809,7910,-6138,2,1219,26
1838,2460,4168,1800,-96,1986,521
1839,-7526,-3132,7068,-1260,129,-262
1840,-6626,1179,-5931,-754,-604,1792
1841,7357,-4108,-7310,1047,774,-162
1842,2567,-6898,5568,1648,-1907,-639
1843,2903,7661,897,-1690,-7,822
1844,-7903,3637,-2214,561,1330,296
1845,232,-601,3028,1503,618,1555
1846,2006,-2671,-2791,382,-643,-854
1847,7412,2558,-173,-626,1433,-755
1848,-4483,-7642,4499,453,1327,194
1849,-7451,-5079,1214,73,-1041,465
1850,6680,3415,-5541,-323,-1580,876
1851,-7097,-5407,1261,-1976,315,460
1852,-5748,914,7219,-1632,-745,-1819
1853,139,2993,-2057,569,-1997,616
1854,-5472,-2820,-6666,-580,556,-158
1855,-2797,5411,7766,675,-980,1805
1856,-6818,-6599,-3094,-843,-632,216
1857,-3670,3699,6552,-961,741,1213
1858,-215,-6358,-7689,-1732,48,943
1859,-6419,-3197,-6896,-1851,407,987
1860,3602,1336,6414,127,806,235
1861,-2720,-2582,-2246,-155,-532,-1711
1862,1725,-529,5295,1203,1720,-142
1863,-5946,4180,2488,768,1196,-797
1864,-3717,6902,-379,1224,1787,1630
1865,-3195,291,-265,-362,358,-215
1866,4445,2133,-5362,1251,972,-957
1867,1277,-595,2720,-1402,-1741,647
1868,7599,-7846,1017,-490,1912,-676
1869,-7469,6161,-7271,-541,122,-1287
1870,7471,-53,6612,311,-1941,207
1871,5739,-2933,-7934,73,1566,-1117
1872,6317,215,-5513,-1274,-1548,1953
1873,3078,5234,4493,-1496,-1514,-1306
1874,258,-1611,7685,-1155,727,1125
1875,7338,5101,16,1813,-1183,-493
1876,-3661,2760,554,-670,-1198,-1301
1877,-6248,-297,6368,-1444,767,551
1878,-5028,4257,1776,1307,-1808,-1511
1879,-7555,-3473,-2587,-1345,-1359,345
1880,-3289,5723,-852,1346,-1124,333
1881,2120,311,-4041,1110,-9,-1798
1882,815,-6591,-7008,-1037,1176,-1130
1883,-2566,-1405,3237,1324,1077,-1987
1884,-2925,5781,-5404,-177,423,-829
1885,3945,-1021,614,-410,1125,-1953
1886,-5463,5771,355,-1612,-611,-1516
1887,6524,-6970,-3185,-707,1625,-1887
1888,4989,-375,-7606,-1474,-790,-895
1889,-71,6999,-7529,10,-1694,-432
1890,-3752,-1429,-7355,1201,794,350
1891,1838,947,451,-63,1318,1912
1892,-6614,-3681,-5938,-1933,1640,1164
1893,-5099,6201,7129,1748,-570,-623
1894,5312,4297,-6358,-826,-650,661
1895,-4440,1923,-4254,1340,464,-1743
1896,-4,4623,-2821,1669,-1020,1866
1897,-153,3113,3493,-1033,1101,-1226
1898,2868,7486,-4105,-1428,1093,-1055
1899,-162,-7422,2903,40,-1125,47
1900,103,-5518,-863,861,230,1087
1901,-4176,70,-4411,1502,372,-1170
1902,5315,5045,-7087,-332,1417,-1606
1903,-1053,-3931,3251,574,-322,1796
1904,-1584,2687,-5967,-1016,-1436,-906
1905,5206,-5514,1807,-147,-1706,-1762
1906,-2067,-2838,-5885,-757,762,-1308
1907,-570,5762,-5909,973,-787,1498
1908,-6512,4650,6080,-1254,-326,-1122
1909,-7578,5897,2455,16,1406,-1824
1910,-5894,7794,724,-1382,-1465,103
1911,-4792,1192,2607,1747,467,-1330
1912,7106,-4648,-4941,121,-443,-1340
1913,-4783,-958,-206,-1845,-338,-251
1914,-5055,-5255,-4474,352,1294,-300
1915,-4640,-5259,4497,-211,-631,-1031
1916,-6182,4856,1151,1360,-518,588
1917,-3069,6649,-3949,-409,131,-745
1918,-4610,1566,-578,1932,-940,-1271
1919,-3445,5858,-6389,1507,-813,1857
1920,-6642,4204,-2920,-1357,692,1664
1921,2611,-7099,3771,1732,-454,-539
1922,2826,3685,1243,1065,612,497
1923,-6272,6852,-6335,-1631,580,-1344
1924,1059,-3279,-6055,689,1493,-1301
1925,-7912,-3608,3195,1713,736,140
1926,3288,-4588,505,1773,-1636,-384
1927,-2197,7647,2110,446,12,-1567
1928,-5586,1694,4455,470,-195,-501
1929,-7532,3479,-5789,-322,936,115
1930,-4140,-5364,4889,-189,-1346,917
1931,-144,-453,1647,1257,-1564,-56
1932,-7187,3432,7117,1675,1974,1798
1933,-2805,-1955,-3575,-187,1869,1404
1934,597,1730,-2045,-1092,-1719,1124
1935,3918,2320,-2593,-1440,1696,-1977
1936,-1021,2189,-2193,1327,1067,1365
1937,4052,-275,-5460,-800,-97,1717
1938,-7163,1362,-5784,37,-1241,1437
1939,7562,-6881,4197,-193,832,-1833
1940,6980,-7251,325,-95,-729,1636
1941,-4590,4017,3406,-1780,-787,401
1942,2296,-6253,-5639,-102,-620,1203
1943,-5891,2906,-230,321,1536,-861
1944,-6531,-3758,-3126,-69,232,1312
1945,3623,1844,-1304,-1281,1523,-1681
1946,-923,-4292,-286,-1022,-267,992
1947,-6619,-1202,-783,626,-11,1785
1948,-1001,-5389,-7794,840,341,-1304
1949,-2490,2960,-2872,-671,475,1751
1950,-4245,-6738,-5584,739,80,-1928
1951,-3708,-3771,-2582,-1451,-982,-1278
1952,-2996,1038,-4564,-1469,1352,-779
1953,-6972,-5125,4152,991,774,-1676
1954,-5426,-6925,-614,148,672,752
1955,4082,7513,-729,1045,1255,1953
1956,3532,-22,4644,1798,-1566,817
1957,5620,-5633,6463,1144,1701,1530
1958,5988,2322,1600,921,1017,1949
1959,-95,6715,7334,1600,298,1205
1960,-1170,909,1452,1908,1991,1564
1961,-2553,-184,-3039,-1604,-1443,426
1962,-3787,2789,424,936,480,-1598
1963,3156,-6998,2223,-158,-1555,1431
1964,-4629,-6704,-436,1175,596,-487
1965,4647,5918,-7457,-1607,94,-1275
1966,-898,6613,924,-1959,1247,-1295
1967,-4947,-4819,-7773,1997,1854,1272
1968,-6602,1618,6943,1013,-970,777
1969,3941,-1237,-1129,-1342,543,-229
1970,-3918,-2344,-2246,416,1903,-102
1971,106,-3913,7304,1899,1933,-1997
1972,-5820,-5149,3359,-45,-853,-1468
1973,-7732,-1258,-4840,-1962,-328,1977
1974,196,7354,5551,156,23,1452
1975,-1632,-7063,4742,-374,664,1030
1976,616,2250,-6003,665,-117,136
1977,6569,-1254,-7338,-963,1910,-1343
1978,7863,-3821,-5401,673,-678,-1151
1979,-156,3915,938,1735,1901,-1597
1980,5932,-3083,-6747,1147,-125,-363
1981,-7368,7628,-3603,1777,928,1997
1982,6012,4148,-2541,857,-1131,-1440
1983,-3489,6359,-6195,-1792,-913,-488
1984,-185,-7487,6855,933,618,-1009
1985,-7621,7715,2869,52,131,1239
1986,-7912,5366,-7664,1087,1112,732
1987,-2325,776,-6955,1224,1688,406
1988,-4426,1550,6849,278,-1531,-1467
1989,-6149,-7199,-2862,-1448,673,815
1990,591,-6213,-391,1088,1538,-1981
1991,7940,-1868,6251,-1757,-1205,1608
1992,-6962,-7563,4113,1791,-1600,63
1993,4181,-2522,1541,-1764,-666,-1649
1994,6288,1140,7235,68,-413,1672
1995,7454,-3040,2844,-1171,-347,-129
1996,-2472,7555,-6590,-56,-440,-447
1997,7835,5539,-6654,1392,1020,-485
1998,3305,5479,-7535,-596,217,-1813
1999,-4848,2580,3729,740,1837,-961
2000,-3776,-3369,-6398,9,-686,-1128
2001,6055,6366,3144,1391,1074,1077
2002,-335,3844,2356,78,492,-711
2003,-7230,-3859,-1295,-800,-1579,1074
2004,659,7543,4322,171,2,-1699
2005,-3449,3811,-5301,-1459,-760,621
2006,2681,332,5319,1684,-1376,-550
2007,-1421,4698,2085,-395,668,-1339
2008,3595,-4487,3875,488,238,-1149
2009,1635,5029,-6870,818,1571,-1855
2010,-2086,-2094,2520,185,169,1979
2011,2714,-2743,-4192,1630,575,280
2012,-5976,6474,-1612,-1915,-959,-1547
2013,-147,-2572,-6056,-758,1908,-1890
2014,4865,6371,-6049,1240,1891,-480
2015,-6199,-5030,1280,1060,987,-1507
2016,-1408,5697,3162,563,-1525,-452
2017,3115,-402,159,1487,1366,544
2018,5889,-7952,-3470,-1268,-1536,-156
2019,3219,407,-7158,-913,-1523,945
2020,2748,-475,-1939,-444,1812,898
2021,1435,5870,-2461,1036,910,-558
2022,7567,-941,7100,1478,1863,-585
2023,2945,4433,3719,1261,334,-1988
2024,-5822,5609,967,-294,1619,-674
2025,-5398,1923,-6376,362,-1991,-1541
2026,2537,6433,-1324,1151,1414,-800
2027,5196,1610,-207,445,-721,-596
2028,-6207,-5662,-2179,1867,1528,1565
2029,889,-5610,-3041,-1888,-1980,-1465
2030,363,2482,-6313,861,-119,-258
2031,-5206,-5315,-849,-789,-645,1109
2032,-6486,-7862,564,1477,-1916,196
2033,5213,3729,3401,-1746,-1957,700
2034,1935,-1916,6406,-210,-1810,-1261
2035,-2069,-5587,4617,-308,1455,1201
2036,-4566,3014,3879,162,908,20
2037,4150,35,-6636,-319,-1341,1482
2038,694,7884,-148,-1817,-904,473
2039,5780,1857,7622,633,242,1840
2040,-934,3544,-3753,1564,-942,850
2041,-5588,921,1024,1022,-656,924
2042,2044,876,3059,-1804,-447,-1200
2043,3237,-7398,-2672,1840,1164,-1608
2044,-5184,-5151,7331,-1506,-1412,1839
2045,2298,7335,-377,-615,-22,831
2046,3109,-6210,3774,1217,1429,-91
2047,-2572,4448,1274,-483,490,1908
2048,-3856,487,-7550,426,1264,783
2049,2873,5151,-2300,1598,972,-1399
2050,7163,-5519,-2694,-1889,103,-327
2051,6304,-6742,3411,-741,383,-1651
2052,-5683,-745,1722,-1247,-1137,1002
2053,6124,2849,-2218,-394,-1896,333
2054,-6991,5292,1988,1787,-1149,-1860
2055,-1371,1620,2590,-364,-1582,-426
2056,5811,88,-3972,1868,-391,1773
2057,-2059,-6948,-7578,-1183,289,-276
2058,-5536,-4391,-3647,-1313,-678,-960
2059,-3549,-4057,2071,-812,-1858,-1559
2060,-589,-6048,-284,-1471,367,-1698
2061,7808,2532,2580,947,1975,326
2062,3709,5687,-4060,793,1156,1639
2063,-5099,3363,-4416,1222,1560,-1502
2064,5615,-4806,7578,-1231,-1392,1522
2065,6920,-6436,-37,964,1695,1030
2066,-6762,-7360,1378,664,-1798,721
2067,-6324,-1366,3655,1230,-423,-540
2068,5524,6276,5912,480,788,1629
2069,6608,-5970,-3099,118,817,1399
2070,1545,6226,2832,-810,644,436
2071,-1171,2691,-4157,-1056,1156,1367
2072,6297,5444,4775,-507,-364,276
2073,6964,5355,-6552,20,893,1044
2074,4268,-2057,-3717,1215,-620,-1854
2075,-6016,6205,-3589,1941,-1434,894
2076,-6844,-6538,3159,1778,616,1868
2077,2756,-3268,7446,1149,476,789
2078,-4691,-7084,-5637,-828,1039,1780
2079,5173,-3710,-7170,1970,-338,1319
2080,-830,-1913,1546,388,-182,442
2081,-3016,1582,-7739,-180,1296,-1726
2082,2982,-1398,5190,-445,1574,98
2083,-4346,7840,-1719,935,638,1787
2084,1001,-7069,-4320,910,1732,1778
2085,-5038,-6402,-1817,388,542,-1005
2086,5861,2694,6511,-544,-374,-1122
2087,2067,-4563,5874,691,-989,744
2088,-7784,-6595,1255,347,1099,1052
2089,7459,5993,1831,148,-1583,334
2090,-7217,-1255,-5068,-1453,-976,1551
2091,947,-1193,-4012,-816,-1549,1055
2092,-6699,6959,-2380,-829,-568,1143
2093,1186,4782,6089,-1389,1024,1162
2094,-2284,-7792,1061,1691,313,181
2095,2726,-2134,-6421,-330,1788,-1489
2096,4220,-51,-340,-1112,1126,-1206
2097,3504,1129,5841,-1719,1689,-964
2098,-5524,4827,-7657,1643,1377,-1319
2099,-4350,3381,6592,-150,1953,-902
2100,-4177,-6829,6535,515,-500,-422
2101,786,-4969,2864,-15,601,1482
2102,6178,-3640,1739,-1836,1713,-51
2103,-4750,-601,7860,-1699,653,-1774
2104,-3329,-6516,1404,-1929,1011,-990
2105,-3287,-2647,-1020,-222,-1719,-882
2106,-2005,-118,2819,-605,1910,1680
2107,90,-1826,-2952,313,1422,-689
2108,7623,230,3790,1234,-1442,-1485
2109,4065,-1106,-741,-793,-992,439
2110,5379,-1479,1324,510,1398,1422
2111,-1720,7802,6537,256,-1457,1411
2112,-5661,3497,-2021,-413,276,-482
2113,-7974,-3054,-418,162,-1152,1546
2114,506,-3361,-7699,-1094,-1848,-1399
2115,2290,-779,5360,1430,1471,-1363
2116,-4766,4728,1560,-943,1722,-1986
2117,3005,-4265,7273,-8,-260,-606
2118,-1992,1229,-5896,1542,518,1687
2119,-7066,7172,2211,-1363,-925,-620
2120,-2538,7707,943,229,-1957,-1419
2121,-1055,-4440,1240,-588,250,-1102
2122,1388,5420,-5307,-615,-535,1322
2123,-1040,-5871,7674,1008,-272,1122
2124,2905,-7038,6509,264,-123,1495
2125,-2414,5646,-4186,1755,1416,-577
2126,6877,7198,2116,-1727,-347,1992
2127,1187,-507,-1411,-285,-1765,1779
2128,7551,1481,2751,-61,1429,-1388
2129,-4949,5192,1364,83,1146,-1728
2130,-27,-2550,-745,1912,-630,-372
2131,-4408,-3885,-6892,-685,1165,-20
2132,-5637,-6941,3816,1896,-476,1741
2133,-3638,1330,-6137,-1540,-1014,1094
2134,-3127,-5530,-5152,1287,1438,-6
2135,-6473,-2457,672,-1844,1301,672
2136,1387,6795,-5865,-1255,-1982,1369
2137,-2404,-5385,-2803,-694,-1412,1402
2138,953,-1993,1511,1393,572,1642
2139,-3684,-4786,-2753,-1555,1255,-1677
2140,-1662,1468,2793,1019,1158,329
2141,3748,-6491,-7702,971,1079,1745
2142,-2706,-4433,5947,-1219,-1660,-254
2143,-6693,4599,5813,-1985,-1984,-1474
2144,7455,-1033,5895,-1323,-1100,-199
2145,4097,3469,-4109,-1141,-1341,-1083
2146,3985,-3395,7714,1266,-290,-1227
2147,5870,7891,2413,-1976,-936,1370
2148,-3763,-659,5604,-1087,-110,408
2149,6818,3880,3387,-802,-1439,-1173
2150,6264,3288,5980,-267,1473,-481
2151,4734,-6927,-5385,996,241,1216
2152,1796,2207,7071,158,-395,-1997
2153,-2237,-7764,1740,129,1037,1922
2154,372,2142,3626,-832,-1924,-1972
2155,2638,3718,5358,-23,1725,347
2156,3053,3282,3624,-704,1257,-1108
2157,-6131,5834,4315,324,-1585,-714
2158,3327,4858,-4024,1092,-443,-53
2159,-7555,-5978,-1955,-880,-315,-1704
2160,-646,2997,3000,915,-1586,347
2161,3215,-3209,-7827,-496,-1883,203
2162,33,-2854,1892,-27,-1279,-1391
2163,-2918,-7695,6209,1901,203,-1212
2164,-6005,3206,-2276,1592,1635,500
2165,-4466,5055,5944,1574,-1124,336
2166,-3866,2772,6440,-53,-1927,-1848
2167,-3573,-3273,-4661,-1175,1251,179
2168,-7765,-1125,2066,1999,1855,-237
2169,-5750,7882,7061,-1280,997,-1776
2170,4145,917,3452,-1627,-1017,-308
2171,-3627,-6518,-7366,-1534,658,222
2172,-437,-7593,5960,1716,101,1051
2173,6994,6374,5399,166,-1321,-1020
2174,1495,-2776,-5765,-1977,440,1343
2175,-1167,-667,6823,1219,-631,900
2176,-597,2249,-3121,-1043,1876,-1767
2177,-7144,566,-1343,-240,-494,-1475
2178,-5492,1969,-6694,100,853,-1104
2179,6515,-1858,2655,26,-1655,910
2180,892,7085,-4393,-456,-1410,-1353
2181,6969,-6873,-3354,1481,909,807
2182,321,-5616,340,-1140,-1071,-964
2183,-5980,1636,-3623,302,324,746
2184,2120,-7287,3732,1799,764,-216
2185,7165,-2696,-4567,-211,723,1362
2186,-2294,-2472,-6125,-1252,-714,237
2187,5401,-2284,-3507,-784,400,1445
2188,-553,-1549,-1106,-794,-1725,-1375
2189,5488,-6535,1401,1086,-1494,-467
2190,-7988,5838,5715,1887,117,469
2191,-1985,7649,3057,486,-1293,-1115
2192,4850,4408,1076,95,259,-293
2193,2731,6767,6771,-1001,109,505
2194,-3919,-3785,-7299,1710,1955,-580
2195,-811,-2846,5574,1162,529,-1584
2196,-319,7161,3272,160,1765,1023
2197,5447,5554,4577,-1342,1337,1473
2198,-5860,-7548,-449,-1027,-686,-1007
2199,3300,-6190,3783,-908,-1240,-1733
2200,-2973,5811,-3294,-638,1828,-241
2201,-5183,-6395,4994,-700,230,578
2202,5774,-4132,-4289,-1564,1526,-1857
2203,2360,7827,7464,1209,-1999,-394
2204,-1706,-4382,-4521,-222,948,-869
2205,7053,-5369,7097,1554,1986,-718
2206,-6535,-7288,6995,1667,-441,320
2207,-2162,-5909,5396,385,393,-1270
2208,1690,-4077,-1439,-1740,-1231,-1606
2209,84,4964,2982,684,1360,-394
2210,-5031,919,-4377,153,-119,100
2211,-1342,-668,96,61,1647,236
2212,1969,5311,-1578,1058,-1573,287
2213,-4501,291,-4872,1909,-1568,1082
2214,6794,5685,-5079,1498,1131,65
2215,167,-3174,7495,-818,-1003,-1730
2216,6727,-7558,-6840,103,-1535,1977
2217,6833,864,5253,555,796,672
2218,-2568,-5066,5599,416,264,1736
2219,6675,4215,-7825,-635,1758,1801
2220,7896,-2735,-4223,-1951,-599,1091
2221,-2343,4543,5795,666,-627,1699
2222,-704,894,-2176,-1196,-89,-387
2223,1742,-4515,-5772,1568,-1597,-883
2224,-678,-1729,5997,-1399,449,1212
2225,1325,-4979,2346,-1480,1587,-1949
2226,5243,-2455,5999,-796,-1946,666
2227,2942,-1743,7338,-580,-1079,638
2228,1895,6895,99,1363,111,-1893
2229,1653,-5960,-6948,541,-622,-762
2230,-7214,2578,-4903,-1420,-130,-1717
2231,-2547,2422,-4261,1972,36,107
2232,2150,-6796,-7874,-339,1081,930
2233,-4070,5842,1387,1337,1882,1639
2234,361,1534,7873,883,1541,329
2235,477,6712,3171,1860,-237,-1152
2236,6955,-5552,4025,1186,-420,1523
2237,-1744,-6307,5025,748,-846,1371
2238,-2659,7418,-6917,1168,-1431,-518
2239,-2413,2451,-567,-85,794,444
2240,-2607,5462,-763,360,-150,-474
2241,8,5876,-3237,1125,732,315
2242,-5662,-4911,-7227,798,758,-1596
2243,5409,4133,338,-207,535,-306
2244,4718,-6115,6662,462,904,1742
2245,7829,7673,-3078,1549,488,-1260
2246,-691,-7932,-612,-1934,91,-338
2247,-4630,-7043,-1866,1058,1931,-1231
2248,1707,742,-6399,1715,-239,-1354
2249,2814,6703,2309,1879,-1698,204
2250,-1630,-5160,3813,1611,-942,280
2251,-506,3142,4861,-1777,-664,-796
2252,4685,4096,6398,726,1814,-1317
2253,-458,6745,-747,-1373,-842,736
2254,4913,-713,-3712,-1316,-852,236
2255,-3580,-2779,5863,1993,1519,-1648
2256,2405,-543,-3545,-171,-521,926
2257,-506,7860,-4195,1474,684,250
2258,7854,-5186,1208,-1852,-1047,-1640
2259,-1372,-6258,2555,1588,1273,-1820
2260,1528,-4238,3601,99,-1958,-271
2261,4863,-5199,813,-1531,-1165,1953
2262,3606,-7137,655,-925,-508,-1498
2263,-3160,-1062,-6750,-1888,936,1504
2264,-1370,-4675,4405,-1178,1394,1640
2265,4710,-7175,-5910,-761,1067,-312
2266,-4263,2004,-1506,-50,-1070,-809
2267,-702,6333,7645,-196,-1222,-1327
2268,-6611,-6629,3980,849,-1764,1337
2269,-6819,-6574,-5616,186,1343,65
2270,3428,1289,-4884,1563,-918,-1167
2271,-4620,3813,-3208,1040,-987,1832
2272,-5893,-1877,-5307,-1161,-549,-752
2273,-4943,-3623,5705,1616,337,1752
2274,1279,-2358,7949,1151,431,298
2275,-2675,-5261,5177,-380,-1352,1370
2276,-4681,1032,1815,-5,-1959,-1258
2277,5801,3161,-7155,-1821,1921,-785
2278,4924,1686,3177,-4,-774,-346
2279,-4127,-4532,-7480,-812,-200,337
2280,-3928,-1834,4009,-1816,371,157
2281,4046,-5768,2459,-377,-1731,-889
2282,-578,-5339,4277,-287,-1976,-1582
2283,1328,-5545,-324,383,-1361,-1128
2284,3961,6489,5735,673,784,1818
2285,4708,5307,4522,1626,-161,-1774
2286,1078,3531,7544,441,-1314,1318
2287,6460,4107,-4507,-1963,463,1989
2288,-4189,6066,3060,-744,-1802,-891
2289,3614,5416,6780,-1636,260,-265
2290,-3338,7264,-6393,1155,-1203,-1675
2291,-7378,-4945,-4712,-1683,935,-897
2292,-6280,-6248,724,-410,1363,513
2293,3347,-85,-1037,284,1089,-925
2294,7512,-5230,-7211,-1541,114,-1964
2295,5796,-1455,-7646,1496,-754,-1792
2296,-5887,-3651,-1306,1306,1827,617
2297,7041,-122,6081,-1708,1861,-855
2298,-3430,1558,-2422,-1992,-41,-268
2299,-544,6590,-3862,-930,-1119,-60
2300,1931,835,3950,75,564,-752
2301,7301,7440,208,419,1804,-1576
2302,-2556,7899,-3267,-1528,1575,383
2303,-7416,400,-4842,-1151,376,-1865
2304,-2459,4558,5645,260,1049,1051
2305,5785,-3906,5913,-1936,1732,640
2306,-1930,2780,-6303,1260,-986,556
2307,5255,-2512,1823,-1085,-1576,371
2308,5281,-1650,-561,445,-939,1133
2309,-6624,-3937,-5223,865,1239,-895
2310,7160,-3825,3357,-47,51,-19
2311,7000,5070,3885,1748,-734,197
2312,-1689,-407,5015,-272,771,-581
2313,-3027,3005,24,41,841,519
2314,3170,-2710,-420,-865,1115,954
2315,-2209,6619,-3717,851,-1407,1609
2316,-3118,-1011,-1872,362,648,-1526
2317,-7192,-5283,-5539,1828,-61,1442
2318,4280,-5664,-3070,-369,1035,412
2319,-7295,-1525,2119,45,885,1336
2320,1158,1214,-5766,1794,1331,-174
2321,7053,-905,2818,-281,-1267,-425
2322,-1313,-6812,-6481,-982,-1693,702
2323,-7889,5488,6770,1048,-1991,136
2324,-7522,-7790,5268,-1422,-144,1554
2325,-3661,-4150,3940,-491,-639,805
2326,-3543,1724,2652,-1332,-88,-980
2327,-393,-6201,-4154,-1584,1900,-363
2328,-1502,-6851,2176,-1471,-358,899
2329,-4285,3162,-6702,1978,-681,1601
2330,5990,-2024,-5619,-132,-1460,1815
2331,-5885,-5335,1017,-1082,-95,-938
2332,-4684,5156,6528,477,-211,-11
2333,1164,6897,-924,-843,-494,50
2334,-7948,2945,-2176,-1484,-585,-753
2335,-1812,-3580,-3299,1182,-1320,1195
2336,2130,-3035,4182,223,-1574,257
2337,2356,-5567,7921,678,-1852,177
2338,-2110,-1191,-912,1889,-683,-1627
2339,478,-6860,4469,-693,-608,-101
2340,6311,7062,1099,751,-986,1131
2341,824,-1489,810,1699,-858,421
2342,-1620,-1622,4133,-1459,426,-1326
2343,5778,-4015,5145,198,-1081,-494
2344,-4762,-6704,-6139,-873,462,-857
2345,2926,94,-2804,1551,289,-1615
2346,-4388,4238,4374,1310,141,1488
2347,-4651,-5009,-4089,-885,-391,1818
2348,5678,2855,-1631,475,-1296,1
2349,1752,286,3585,-208,33,-1702
2350,5507,7866,-1592,464,-1406,1129
2351,4812,-2859,-6144,-1931,1136,-310
2352,-3557,-2725,3120,834,-839,1866
2353,755,-7771,-6528,434,-324,-272
2354,7567,-3504,2452,-1732,-1728,-551
2355,-3420,-5914,2850,-1351,1264,-1051
2356,-1070,6368,5387,1554,871,1278
2357,3885,-517,224,665,1854,1592
2358,5277,1444,-5161,-1689,1959,778
2359,-7642,-2943,-4994,1425,-266,-375
2360,5292,4627,-7464,118,-1452,-93
2361,5834,-3823,-4367,1342,-9,-950
2362,5155,2709,4526,1250,-19,1363
2363,-118,6398,-3905,-1380,-465,-1188
2364,6233,-1294,4906,-292,381,-978
2365,4770,-6883,-4721,1811,1014,1135
2366,-303,-6797,3617,1735,1027,1772
2367,-5449,-5412,2909,-355,235,-392
2368,-2070,-1913,118,1538,1933,-350
2369,6744,977,7082,1705,1990,1106
2370,3441,-2466,-1024,1015,-1997,-282
2371,6567,2876,4792,-1615,131,1431
2372,-6863,-4219,594,-222,237,1007
2373,-4481,-5488,954,303,-699,1559
2374,2672,2100,7162,-1341,-318,353
2375,-1551,6952,2705,-399,366,1152
2376,-6793,-7600,-2287,1304,1794,253
2377,258,642,2652,-874,-1415,155
2378,1560,-4332,-715,-1952,-80,49
2379,-13,-2615,-3020,398,-1259,-664
2380,3266,4762,4891,599,136,172
2381,807,-3591,7244,-1137,-1072,1361
2382,-5321,-4482,5393,1440,269,-1934
2383,4673,5279,-5346,1546,-1475,-768
2384,4455,-6581,-3037,935,1154,1463
2385,-1294,-4234,3722,-222,-703,1045
2386,-5108,2716,-4337,-1103,133,-1601
2387,-685,3827,-7276,1548,-434,-139
2388,-3511,6415,-1456,635,-1496,747
2389,3822,-1528,-3550,592,1588,1487
2390,-5761,-3692,3606,-1131,1598,-294
2391,-7351,1208,481,-1344,-491,1641
2392,2917,-3810,4278,1987,834,620
2393,-7630,-7401,-2996,1054,-416,-527
2394,571,-3081,-7824,1618,407,-731
2395,-366,-6294,-885,-1131,-1370,88
2396,-3854,7170,-7366,-1020,1654,-802
2397,1149,714,-1898,1380,524,-646
2398,-1227,-920,589,1792,760,-370
2399,5,1161,-7127,-1821,-321,741
2400,-2053,-7791,3821,48,383,1716
2401,2469,-2003,-1415,321,239,-897
2402,-3034,3268,-6979,1767,1665,-1994
2403,5991,-7479,-1327,-607,-1242,-1324
2404,3535,-2390,1514,-683,1923,-1958
2405,717,-4403,-914,814,1521,-41
2406,7420,-331,-4629,1370,150,943
2407,5893,5443,-1734,429,1880,1602
2408,-7157,-2613,-7489,-436,-1049,1207
2409,4033,-6443,-1262,-968,873,763
2410,-3098,-2459,-283,95,-1670,-795
2411,-2563,-6870,3559,34,-665,-123
2412,-6375,-7213,3205,-322,-223,-1141
2413,-694,5187,1267,-1466,-183,-237
2414,4181,3936,-132,1797,1317,-526
2415,-2454,1398,7588,836,256,-2000
2416,-3354,3126,5810,-451,1133,-631
2417,3029,745,-1698,-1599,-743,707
2418,-6862,-4393,1527,-1046,886,1055
2419,-5660,-6453,-3065,-1614,1369,1551
2420,-2624,-7961,3827,-429,-1785,1140
2421,6171,750,571,-1645,-673,-1504
2422,-3884,-3181,2687,-355,-1587,181
2423,-2267,2279,-3176,718,1319,774
2424,4331,6312,-5482,304,-101,-85
2425,-7188,2673,-2402,-327,-1440,-816
2426,3752,4928,-2779,-1660,466,-1863
2427,-2297,6707,-2920,1269,1454,-1967
2428,-4282,-1092,-1947,1665,-1488,652
2429,2599,312,7012,705,1069,996
2430,-1519,-1248,5466,401,-471,-1775
2431,507,1841,-3886,1086,556,-1434
2432,116,-7626,-6204,-1663,43,-176
2433,-6826,-367,-2278,-430,1489,-403
2434,-982,-4425,-3518,603,1835,912
2435,-7152,2172,-1595,-190,-1981,-1937
2436,-5554,5543,-2093,-1985,-1491,-168
2437,3809,5786,-7224,-1445,229,1989
2438,3469,887,-4329,-554,-1200,1747
2439,7953,6542,-2424,87,-952,1649
2440,3423,2122,670,83,-1661,-1077
2441,-7060,5160,-702,1888,1957,-263
2442,-4213,7876,2679,-996,-1021,513
2443,-4969,960,4898,66,-204,-1971
2444,-4471,-6045,5902,-361,356,-1297
2445,79,-5886,-6877,-1141,1180,-1717
2446,7573,1903,-3923,1419,-1460,-419
2447,-6382,-2733,-1219,-1951,-411,179
2448,1549,4961,-4252,57,1105,1293
2449,-7933,7840,1377,770,-500,1134
2450,6276,5715,-1700,-1607,-1260,1216
2451,-1088,4939,-7626,1257,651,-1134
2452,-1152,-3457,-4748,-139,-1405,-1185
2453,-4094,7868,1282,1377,-1363,1742
2454,-825,-4285,-3000,1802,729,-1887
2455,3346,-2830,2552,483,1562,-725
2456,-419,-2476,-549,985,728,-407
2457,-7665,3965,6027,847,-785,-1860
2458,1770,-5664,-466,-751,-325,-1874
2459,260,-6703,3673,-856,1737,-1152
2460,4051,-3078,-3315,-725,738,680
2461,-173,921,5460,-1366,33,-1090
2462,-6618,4024,-6748,-1685,984,-1776
2463,4137,-2886,818,971,-1786,422
2464,4890,3735,3677,17,-7,-1947
2465,-6875,7999,3779,83,-1263,1573
2466,-1225,-2434,-7792,-1025,-972,201
2467,-7238,-6784,-1081,-830,715,1943
2468,-2257,-6268,-1944,1849,-947,-1940
2469,-494,-768,2318,-1195,307,-350
2470,-1797,3295,598,-392,-1653,-1472
2471,1153,-5092,-3573,795,-1136,-1555
2472,4525,-7767,2148,-1901,815,-240
2473,-6604,-4187,-2977,214,1104,997
2474,947,-2317,4923,-1262,-271,-357
2475,-6712,4134,1387,492,-16,-227
2476,4219,5574,-7197,538,-1621,421
2477,-1693,6575,-2226,-501,-373,804
2478,-378,938,-6587,-443,1268,-709
2479,-7900,5690,5428,-484,1803,-1778
2480,4767,629,4639,-1467,313,1719
2481,-3053,2171,3816,-131,777,-1357
2482,-5732,-3240,7370,388,-1306,91
2483,-152,4783,-4690,-128,-805,-383
2484,4304,3487,3340,-42,1175,-401
2485,4424,403,4301,666,1219,-11
2486,-5680,-6161,854,306,-1820,422
2487,2453,-2298,-5712,1135,-180,-1273
2488,358,4489,-6031,1639,782,-658
2489,-1395,6429,-2712,-1595,723,-914
2490,6534,-1925,-7601,648,-395,61
2491,-4293,2478,3801,-1886,1035,-892
2492,-2223,-2846,3227,997,928,-300
2493,-4690,2984,536,1491,-1947,-1449
2494,-6650,-4888,6204,130,-427,1456
2495,-7290,7961,-2799,-1226,-1116,612
2496,3663,-137,-6038,-332,-1307,302
2497,1136,-4794,-3553,1067,-1144,1269
2498,-3272,-1374,23,1311,1627,-1772
2499,-5154,130,-7834,-242,1401,1756
2500,-3792,6640,7487,91,63,1433
2501,-3861,-6861,-6847,874,473,-1752
2502,5582,824,-5864,241,-1661,-1597
2503,7531,-707,7659,899,-1478,-150
2504,-5809,6738,-6536,244,-1106,-610
2505,58,-7364,-5165,-1686,-1701,1895
2506,161,-5282,-7755,-1420,-690,1759
2507,6992,-7116,2911,990,-33,-1726
2508,6370,-6520,4201,1078,-847,-792
2509,790,-4856,-1151,-184,-661,-1799
2510,-3745,-6315,-587,1751,-1291,-1030
2511,-7945,-117,6621,1723,-1320,-1113
2512,-6020,-774,3606,-214,1371,-919
2513,6309,2230,-6584,1915,162,1460
2514,-5117,-523,-2068,-906,-1406,1520
2515,-2381,2039,5670,-1779,1860,-373
2516,-7865,-5853,-2194,-1970,-1565,-46
2517,5286,-5020,613,1275,762,-1924
2518,-19,-1332,6971,-1202,-162,1584
2519,2575,7400,-1680,-1239,1188,-1103
2520,794,-11,6503,-764,-664,-1877
2521,-4443,3334,-3707,1745,-249,518
2522,-1922,2072,-7758,-543,1394,951
2523,7058,-456,4132,1204,461,564
2524,-4447,-4842,-6528,1414,-1780,1057
2525,3284,3962,-1071,1875,-1517,-1288
2526,-6764,-2195,-6001,1501,-70,-1741
2527,1869,-7495,-6861,1245,1582,1109
2528,-888,-6910,4695,1580,-1932,1237
2529,-7883,7959,-2950,-1983,-1344,1377
2530,5151,5111,-4701,-1437,-722,1022
2531,7163,1687,-779,-1454,1698,-1749
2532,-99,4669,-1874,-1183,1063,141
2533,5105,-3935,5953,-673,-1426,1847
2534,1247,-5147,1656,876,1872,1772
2535,-7804,2608,-5456,-571,1138,-542
2536,6684,-1577,-3957,-495,1209,1311
2537,-4366,1153,-289,876,441,-841
2538,5475,-6822,1539,1327,245,595
2539,-4554,-6414,7458,-450,-1544,-133
2540,406,-4383,-2969,1653,-206,170
2541,-3685,749,1882,-745,285,-502
2542,-2976,-4862,3651,-386,1641,250
2543,5621,-6386,-7887,1065,1678,-709
2544,1323,6812,-5005,-334,1302,-1825
2545,5964,-6709,6701,-14,1021,1523
2546,-7039,2772,798,-1838,176,1300
2547,330,-1444,4864,-151,-863,-1978
2548,3470,1318,2703,-781,-940,-1823
2549,4450,-3360,-4010,-1597,-533,-1416
2550,7078,-7843,-5933,1623,-1877,-225
2551,-1484,-4733,-4947,-1395,1869,-1149
2552,-4790,2485,-2389,1690,-586,1432
2553,2258,6851,-7920,373,-1349,1789
2554,-3331,-1502,1675,408,-907,1642
2555,4344,-2854,-955,-965,-61,-351
2556,-2492,7246,1707,619,-663,168
2557,3105,-5579,-1838,-1671,-305,-1244
2558,103,1773,7029,407,-1276,1634
2559,3145,4453,-3412,297,538,-501
2560,-4852,2108,-377,701,971,-850
2561,7996,2783,447,-181,505,-1907
2562,-203,-3487,3901,-208,-1789,-996
2563,-684,3971,-6886,292,176,484
2564,339,5826,-7710,738,1193,-169
2565,-3973,-692,-3443,-398,28,-1011
2566,-632,-2617,6011,-47,-456,746
2567,2201,-5843,556,-397,-1524,1920
2568,5025,6846,-5535,-139,325,-1799
2569,-2024,-4876,-7497,-1562,1106,916
2570,5657,-5839,6318,1284,-855,-692
2571,-3915,5647,3434,496,1880,-178
2572,7687,-1732,-5539,-1313,732,-1699
2573,-902,-6795,-2434,-414,256,-1263
2574,7133,-6082,736,-1883,-666,-1386
2575,4663,-6950,5007,-708,-757,-1483
2576,-6961,5368,-5882,-471,614,-1232
2577,5040,7823,-2834,-963,-435,-1416
2578,-2214,640,3064,1338,-859,1925
2579,-6097,-4035,4681,525,-1953,238
2580,-5855,-2429,5151,-696,-789,1362
2581,-6217,4909,-5235,-1705,-1725,-244
2582,-7362,-3977,7078,-889,-636,366
2583,2556,-5372,-1414,-525,43,1751
2584,-6041,-5481,-5489,1164,164,531
2585,-7247,6670,1082,214,-419,1654
2586,-4553,-1821,-4460,805,-8,-1175
2587,3225,-3461,-7306,1487,-837,-58
2588,-3644,-2278,-4804,-701,-47,-704
2589,-2663,-5725,4170,-1917,1488,-1697
2590,-3852,-5296,3864,144,-1971,-1234
2591,3128,-3796,7599,-47,775,-1057
2592,7011,657,7124,163,343,1708
2593,1708,1665,2867,982,1679,1667
2594,-890,3195,-4650,-276,-719,544
2595,6279,-7362,2029,1846,-1595,1831
2596,-414,2680,452,813,70,-1557
2597,-4050,-2974,1452,-1314,1615,-1308
2598,-3943,6662,-7448,-112,-713,1752
2599,3514,6290,-3402,1123,228,-580
2600,2607,-3411,-465,1974,665,1796
2601,-1093,-4915,7625,454,1524,-1061
2602,4620,-2256,-1005,343,-195,1997
2603,99,-871,-7722,-503,-50,-1908
2604,-4344,2922,7112,1880,-1574,-303
2605,-5360,-6193,1121,1415,945,-693
2606,-1077,-4074,2598,-326,-195,578
2607,-943,-6044,-7177,-1291,891,-329
2608,-7027,-847,-4445,-1675,-1984,-873
2609,4254,-4968,-835,-1491,1834,-45
2610,-3597,-5390,1476,457,261,-191
2611,-3705,-2899,-5888,-1001,-1973,-1811
2612,-5012,-4909,-4974,-91,-1254,284
2613,-6408,2178,-4727,-1495,1656,-293
2614,3127,3137,-6545,776,-408,-1153
2615,654,2387,-49,-1363,-1356,281
2616,-1848,6818,1135,1892,1054,434
2617,-7675,-3235,-5648,1314,1662,-850
2618,2419,5887,-7283,-1705,-1989,589
2619,7790,-257,-2879,-842,-817,1457
2620,2383,2597,3661,1867,1826,1218
2621,119,492,-3429,1876,-778,1990
2622,3417,2585,-7686,1102,-55,-909
2623,-2518,-7386,-6864,-1141,-352,-131
2624,7879,-6041,-830,1793,115,882
2625,3847,-4397,-3475,1791,-509,1220
2626,7635,5766,-1779,628,-1534,-1467
2627,-7556,5489,-3653,-1241,775,732
2628,5928,-2146,4122,322,-1917,-1899
2629,179,7746,-6701,-1412,880,762
2630,-7557,5593,-7722,1658,-11,-735
2631,550,1767,3553,1057,-1633,-378
2632,-1007,-271,-4436,1612,-575,280
2633,-900,7459,-3325,-670,-1956,725
2634,4770,680,7907,1357,-608,888
2635,4168,6252,-5119,19,967,1733
2636,5414,5467,-7654,-1395,640,-1079
2637,-2681,7596,-6835,-909,-326,-831
2638,-4416,-4271,1380,164,63,-328
2639,-1448,-4091,-3690,-1157,-656,-387
2640,1162,-3071,5050,841,638,-1283
2641,-496,-6885,-1943,-880,-100,659
2642,-463,7813,-629,-55,-368,1046
2643,-5877,-4683,-6855,239,283,-532
2644,6167,-2879,6519,-300,1558,-306
2645,7524,6941,-4435,-382,-1976,1998
2646,-2977,-2197,-6108,-1749,1225,-887
2647,-3930,-4065,-4147,-1448,702,839
2648,-1598,-7749,3418,-159,-1088,-1813
2649,1992,-4134,950,812,768,-365
2650,886,-1311,-2731,1702,-1600,1477
2651,4554,2247,-7329,-1601,1012,1096
2652,6226,1195,3011,1354,-1249,1164
2653,-1917,4505,2412,-365,-128,-820
2654,2776,5688,-6295,1980,1896,374
2655,-4488,7763,5596,-1858,-1839,1188
2656,3383,-516,-770,502,404,224
2657,-1589,1439,-3169,326,-251,1929
2658,-6000,3221,1738,-1584,1751,-1329
2659,5793,-6984,627,-818,-1244,-1121
2660,442,-1202,391,464,1270,-1478
2661,-3747,1499,-4171,-742,-1087,556
2662,1415,1593,948,-339,397,375
2663,6607,-223,3079,939,207,-56
2664,-7957,-3048,3227,1702,-385,1010
2665,-7121,-1688,6585,-1649,802,142
2666,-1391,-2080,7944,-1693,-1257,1027
2667,3090,-1737,1261,-1828,-1207,-1993
2668,-840,-2205,5549,-533,-1600,171
2669,-5009,-3484,1969,-23,97,1352
2670,-6790,1942,-3875,-1991,770,808
2671,-4486,6211,-1,-916,546,1734
2672,865,5170,-7901,-70,-1407,513
2673,7654,2695,2662,441,-668,-1529
2674,-7569,7447,4664,-429,531,1297
2675,-2327,1032,-1396,1922,1159,1518
2676,6190,3894,6041,-7,-958,1301
2677,-7717,420,-366,-1530,-1622,-708
2678,-4520,-769,-2308,-1518,71,282
2679,7982,7797,3855,-1437,799,-489
2680,5455,3913,5126,-1523,-1251,1255
2681,-4425,-7086,-100,-1270,-1944,-1936
2682,-3269,-5102,5230,-11,891,1141
2683,4302,-1575,-636,-1547,372,1075
2684,1840,-2408,-1679,-356,-1955,-1147
2685,584,-3532,-5349,-1617,1341,-1741
2686,224,-5651,-5773,-348,-1738,603
2687,-2496,-2754,3285,238,146,-1021
2688,-816,-3418,-4217,826,-306,1172
2689,2,4650,2538,-1601,-1716,30
2690,1756,4354,-6040,-1685,-1074,441
2691,7094,5695,-5046,1425,1650,-736
2692,-5689,-2666,4585,1921,751,713
2693,3944,2878,-7268,-683,-1588,121
2694,2723,-4375,3518,1924,6,394
2695,-4444,155,2388,1398,496,1729
2696,5546,4171,3718,-1904,-862,112
2697,1357,880,3045,1390,-1255,-1075
2698,-6467,5355,7683,1100,1236,-1405
2699,6264,-1038,5949,1990,1819,-1328
2700,6529,-3376,747,-1117,-317,1367
2701,5146,-6356,2107,-1301,688,-1587
2702,-2460,6245,-341,1608,569,815
2703,237,-2524,195,1065,617,-1471
2704,-3106,-4646,-3625,282,-19,565
2705,6622,7261,5275,-1920,434,-687
2706,-5485,-3242,-7617,-671,146,808
2707,2669,-7390,-5626,-1614,21,-418
2708,6887,-1814,-141,962,351,260
2709,-3678,2809,816,-339,1327,573
2710,-4954,2493,3052,-78,-1683,-115
2711,7640,-4512,5027,851,1254,-118
2712,-2598,2600,-4958,0,-628,472
2713,-5668,-281,-675,622,1263,1390
2714,-3050,963,270,1587,1245,1059
2715,7516,-3043,2795,-577,1387,654
2716,-2561,-4861,-3381,72,-276,1900
2717,-5593,1674,5986,1731,-1945,-1266
2718,-3013,-3397,592,-1037,-345,-1937
2719,2539,-646,-7013,658,-103,-197
2720,-4965,3446,6452,1189,583,-1378
2721,3463,-4423,-1697,956,-594,1512
2722,2825,-2537,436,-159,1097,491
2723,2868,545,-338,-1905,1327,-983
2724,-5083,-1255,-3026,323,-605,1782
2725,-7164,323,-7482,-1699,-723,-1515
2726,5806,-2293,-1510,399,1488,1183
2727,5993,-969,-6648,-1131,-967,-990
2728,-1765,2683,-6380,607,535,1783
2729,5585,-550,-7011,1893,1893,1280
2730,-332,-5441,1036,-1572,-902,-1995
2731,-7044,7276,183,30,-1327,1995
2732,6010,201,-6331,-644,783,-1785
2733,-4622,-3761,7335,-748,-749,-1676
2734,-2573,4828,99,1746,-1638,-81
2735,6464,-3180,1449,1468,1364,-1541
2736,-414,-7715,-5282,136,-498,-1508
2737,-640,1610,3533,-1772,80,288
2738,-7677,-1250,4024,-473,626,1364
2739,-3296,4450,-2731,757,-285,-1822
2740,2466,2225,7074,1542,-1719,1995
2741,-7454,-5464,-4427,1667,1540,-1220
2742,-1749,482,5535,115,240,86
2743,1126,-5477,-875,603,-705,-1474
2744,118,-1665,-4205,-1454,1652,-1730
2745,2146,-4601,6416,984,-1473,-1559
2746,5914,988,-895,-873,914,-1100
2747,-5883,5059,3778,857,1967,30
2748,2691,-1071,-917,1176,-923,-467
2749,3206,-863,4730,1853,-1255,-1416
2750,4004,6823,-4382,919,-990,-653
2751,2811,2143,-1891,-641,1210,981
2752,-4881,334,-2319,1347,1656,-1137
2753,-2293,6216,4677,1247,1884,871
2754,5658,5904,-855,618,-499,-1204
2755,-320,4022,5960,1009,-297,1580
2756,1401,3830,798,-23,-1841,1343
2757,3561,4681,-877,-1704,1629,1800
2758,6157,1408,5845,845,1719,1629
2759,7102,4474,468,-436,-1632,945
2760,-1412,6785,2122,1178,-1570,669
2761,-776,7496,-6896,-462,1182,92
2762,4770,-5873,3448,-597,213,1315
2763,-5591,-5202,-3721,-316,-1951,-1451
2764,-6732,-2796,-5117,489,87,-129
2765,-6788,7600,711,-671,-1549,-377
2766,-914,2548,-2176,-1967,-400,-20
2767,4678,-224,1236,-1145,302,-1838
2768,5926,4115,-5974,-407,-289,-604
2769,-301,382,-3106,-472,1075,-1699
2770,-4337,6642,-248,-34,-1091,1283
2771,-5078,-3453,-5678,-1285,-783,1113
2772,-7031,2476,-6888,1161,25,-497
2773,-6378,3968,540,1499,-747,-867
2774,-1727,1883,-4633,-442,-493,-80
2775,374,4496,1668,315,-1279,-1461
2776,-886,-7978,-2636,-1120,-857,-1031
2777,5398,-7444,-4850,-811,-1337,82
2778,7700,-1360,2037,734,940,-1676
2779,-7101,1681,-3275,341,-821,195
2780,-4479,-1046,7488,-1537,979,-1038
2781,-3905,1434,-3788,-1929,495,57
2782,7859,3317,-6910,-737,-737,-542
2783,-5981,6346,-2393,-1782,1080,830
2784,-7240,277,4470,896,-769,278
2785,4294,587,-4111,1497,68,-996
2786,-6488,-4229,4831,-1815,1516,1212
2787,-4106,5546,-5796,1370,1641,1744
2788,-5006,-5573,6489,37,-378,900
2789,-1246,-3630,-4782,1078,1485,-445
2790,-2013,746,-7184,1484,1318,-1660
2791,1920,2071,-6255,1273,1226,69
2792,-7825,6339,6930,-176,83,913
2793,6385,-1088,2187,874,-1002,-1138
2794,-731,-4013,7553,930,-898,-739
2795,2042,6671,6593,-916,-1335,-364
2796,-3746,-6380,4146,-661,861,-1417
2797,4852,-947,-4044,-564,393,-1928
2798,-3014,4803,-3882,-417,635,-1023
2799,115,-3313,7770,455,444,170
2800,601,-4724,-7343,251,1897,1307
2801,-3161,-4388,-2728,9,-1376,893
2802,657,-2709,-3187,231,1727,672
2803,2172,7890,7656,1794,-1284,-131
2804,3196,4664,-2086,-27,1930,-1409
2805,-3959,-3042,-5487,542,1500,1491
2806,-3147,4887,7752,-1445,-263,284
2807,-2586,6180,1372,-1819,1302,-1745
2808,-6459,1661,-4371,1630,1329,-1901
2809,6034,4361,-882,597,-553,-1925
2810,2619,-6803,-5493,1029,-33,-1759
2811,-1623,-6732,6951,-1727,-1728,492
2812,445,-1021,-4097,-1681,-288,128
2813,16,-7933,5015,1028,-752,-1599
2814,3973,-4226,-3082,-1483,-1622,-988
2815,3454,-76,-3489,1472,-1104,-1126
2816,6883,6806,546,1761,61,43
2817,-1029,917,-1655,-102,-1623,3
2818,-6648,2002,63,-1462,-447,-1759
2819,6974,4730,-6506,578,1484,-579
2820,7169,-5552,-1663,-360,1717,-596
2821,4912,5583,3363,-1959,1316,-46
2822,1774,1899,6094,-1335,1246,-113
2823,4458,-7561,-7919,778,1105,-1527
2824,-3287,2489,90,1417,1479,1639
2825,-5573,7226,-2582,-338,1961,1728
2826,4694,-4362,-4103,1619,-141,-1318
2827,2225,3212,1508,-660,-293,-796
2828,-5875,-3403,-5552,559,1558,-651
2829,-1265,-3178,4937,-1465,-1922,38
2830,-1068,-5845,7833,-1512,-1866,867
2831,3502,6303,1963,-266,-738,820
2832,3221,-7637,5591,-1240,52,1691
2833,4070,99,6662,-1650,1453,-1234
2834,7335,-5325,7316,-1600,1081,-1708
2835,-2079,4699,1,-1464,-1820,-194
2836,-2943,247,1613,1006,1636,173
2837,5755,7514,-1084,-779,1150,-232
2838,-3285,1391,856,687,264,769
2839,-1241,5359,7253,1383,983,1115
2840,-4348,4930,245,1366,-1134,-460
2841,2249,5300,-3966,-1333,-514,184
2842,-7622,-7981,1467,-55,-1723,267
2843,1413,6874,1718,-1470,-1651,-455
2844,3668,-3583,938,-1397,1948,-1047
2845,-5848,3013,-7003,-1093,-1322,-458
2846,-2731,374,3148,-945,938,-511
2847,-1540,2456,-7337,-1938,-22,-500
2848,2581,-6551,2925,-140,1328,-408
2849,7777,-5329,-6493,1700,1414,-1481
2850,-65,-2848,-2061,-1300,-1391,-71
2851,-5029,-1899,-1788,3,1268,66
2852,6262,-3564,3993,1203,1749,1614
2853,5604,1938,-5965,-442,-738,-1460
2854,-6800,-6097,-764,971,-1858,-111
2855,5581,4953,6454,1761,-1414,-1407
2856,-501,-3585,4610,-452,-1246,1290
2857,6488,-7866,-6969,450,-503,-636
2858,7573,-6482,5080,1013,-547,-1706
2859,-6870,6758,5080,-918,953,-305
2860,808,7815,2602,1718,-1522,1676
2861,6724,1321,-3837,1796,1243,-1209
2862,-7092,-1505,-517,1983,160,-1981
2863,-4639,-7994,1349,-415,1157,1673
2864,746,4876,-7358,-128,115,-1832
2865,3810,4875,4057,424,421,-219
2866,2660,289,2053,1365,-623,1923
2867,-853,-4334,1510,398,1697,-926
2868,-7235,-3245,6094,-146,1941,-1931
2869,7738,5957,-1948,784,189,-665
2870,-3778,-4533,6811,322,-1860,-1740
2871,-357,-4446,-6535,-1911,-1876,1505
2872,-7057,2721,5953,1919,1257,1102
2873,-487,6135,-2887,-811,1306,-1249
2874,80,3072,-2235,244,-1623,-595
2875,7671,-6914,-1127,-1396,1618,1374
2876,7325,2589,2204,-1028,1587,667
2877,1548,-2527,-4961,-387,-1006,-1571
2878,-1905,-4007,-1685,-1138,1231,1460
2879,-7928,5142,-2369,-1459,-1287,-1200
2880,-5174,6905,5672,-1120,-680,-1183
2881,6214,-1816,3492,-1283,8,-2
2882,2252,1633,4395,-584,-1059,746
2883,-2269,-3814,3803,1743,90,909
2884,-3213,3896,1757,-1246,36,-1802
2885,-4284,-2243,699,-468,-329,89
2886,2936,-4473,-907,1694,-757,-926
2887,5348,1373,-4443,-1956,-1697,-921
2888,-574,-3390,3058,719,1538,1140
2889,1838,-5573,5922,1972,-1786,-65
2890,2739,357,-7140,-1777,-1432,752
2891,-2556,6405,-4690,859,186,1897
2892,2172,5704,-2161,1298,1712,1233
2893,7615,-2331,-613,-1444,-1325,710
2894,2398,-6565,2788,1759,401,1442
2895,-5872,1941,7325,1690,-363,-867
2896,-5392,-4481,1552,358,-576,-633
2897,-7994,7557,2191,-1114,1805,-339
2898,931,2439,7657,-1617,-419,580
2899,5723,5005,-4169,1108,1756,-1022
2900,2824,-4466,4935,-1873,706,-653
2901,4193,-3693,6352,-102,1590,586
2902,1667,819,3473,528,1502,1223
2903,4586,6555,720,-1840,847,-35
2904,5969,-2315,-5901,1990,1784,-470
2905,-5110,6404,2975,-1561,1220,1321
2906,2440,5472,-3463,1602,-1433,-793
2907,-1897,-6457,-5835,-960,-210,-433
2908,-5645,-696,-4989,210,989,-359
2909,-621,3597,3611,537,653,-951
2910,-3472,-6553,3597,-983,-1879,-1063
2911,-1738,3549,6230,297,1925,1720
2912,133,2735,1227,969,-1156,-550
2913,1976,-855,-426,1174,-1243,-39
2914,3748,-3682,161,-1427,1626,415
2915,-2893,-3443,-5560,-790,1351,535
2916,7999,5135,-3843,150,1482,-653
2917,-2822,2681,1572,-1662,1196,1713
2918,-2274,2391,4575,-699,1123,596
2919,-3537,4954,-7292,1247,1100,1434
2920,3797,538,779,-17,354,-697
2921,3692,-6272,-1266,-1309,155,-138
2922,-2392,784,-396,494,-1944,1577
2923,6015,7858,1248,616,-644,-225
2924,-3660,-4202,-7018,1362,-1101,-1823
2925,3959,5830,-2681,-1987,-106,843
2926,4603,-821,-4926,-614,1325,-899
2927,3614,5970,610,712,1008,1287
2928,-7547,-1753,1226,-572,-1696,-138
2929,-7558,-1750,-432,-68,-1373,-1402
2930,2008,-6329,-5490,1205,1768,-691
2931,5487,322,993,-273,-1583,-1104
2932,-2465,-4283,6234,-1285,709,1810
2933,-5235,-2974,-567,473,1205,1547
2934,-899,4643,-7864,-3,-744,1146
2935,-3380,-1251,-4133,-577,-1140,-1582
2936,3332,-662,7871,1331,1852,-908
2937,-5595,6059,-4007,-361,-1245,-317
2938,2985,7276,3788,1031,309,1566
2939,-1467,6523,-7406,-306,-434,-1364
2940,795,1236,-4679,988,-1119,-1481
2941,-2025,-1524,3820,1260,979,-388
2942,-3826,-3706,5020,1789,-556,899
2943,7048,-3045,-6280,1457,-1116,-436
2944,-2413,-6604,-5232,-500,-642,-1168
2945,-1854,1616,-793,1585,1345,-1965
2946,7300,-3155,-760,-1776,1806,-1156
2947,-6246,-5723,-3275,-923,732,-191
2948,-3622,-3468,2442,1805,-709,-1961
2949,-6907,1431,-7091,-256,-1471,-1065
2950,-966,-3239,-4337,-621,-1611,665
2951,1704,-2838,-1409,-726,1613,-503
2952,2954,-2264,3208,752,1056,-1194
2953,-6697,3888,4242,1543,498,607
2954,1013,66,-1389,-1714,658,-1751
2955,-4600,5884,573,1231,-1930,1307
2956,-6230,1615,3099,1520,-1856,-1140
2957,2450,-5613,6068,-1122,1636,-485
2958,-1180,-1272,1846,-639,6,1236
2959,4396,-6731,-7481,-478,-1660,-1568
2960,-3769,6825,4018,1919,-1068,1885
2961,3993,-1916,-5750,-950,-1865,1398
2962,-1463,3841,-168,501,292,228
2963,1859,-4845,3016,-173,-186,1430
2964,5620,611,-7816,-1596,-1218,-363
2965,-5507,3187,-6477,1827,-1635,-189
2966,3105,1243,7452,336,354,1001
2967,6765,2662,-3182,1118,730,1563
2968,-3955,7534,7798,-785,1002,1385
2969,-4526,-5954,-2445,-1545,717,-725
2970,795,7902,283,581,791,1338
2971,-4970,7621,6222,-257,-265,-541
2972,-4697,-5904,2143,-1060,84,-764
2973,1867,363,-1778,-75,1674,-47
2974,1519,312,6276,763,-1063,-238
2975,3027,-5657,6132,-1570,-1295,-955
2976,-152,1625,6683,1285,-510,-1848
2977,-5459,7397,-950,-330,584,1795
2978,2149,3584,6145,-890,-1299,-1899
2979,-6138,-6906,-5518,-1652,-1718,182
2980,3853,6664,-3836,1046,1769,-571
2981,-1196,-6281,-6752,1342,-1063,-1838
2982,-7889,7671,7307,486,1774,1103
2983,7887,2570,-659,255,-1523,1543
2984,2585,-5866,-7391,-168,1714,1069
2985,1486,5450,7504,-1716,1054,-1660
2986,-3792,-2537,6342,1892,-483,-633
2987,-2609,3029,-516,1550,1557,-180
2988,5014,3996,-6833,-1004,312,-1752
2989,-3183,-5629,-7061,436,1391,631
2990,6610,4105,6505,1870,448,-433
2991,-937,3536,2925,-1333,1748,-723
2992,-4134,2796,2234,-378,-659,720
2993,3201,-2163,5235,-954,-1261,-294
2994,-4131,-6906,1868,-1424,440,-1410
2995,5465,-6957,-3133,-1622,-610,-455
2996,5499,-7368,2156,-1837,-1656,-1330
2997,-5705,-6603,-3165,-1507,603,90
2998,3625,-7416,7164,-1165,-1501,1171
2999,6448,-1471,-739,1668,-1570,1104
3000,-1739,-3185,-2972,1101,135,875
3001,3830,-1674,6514,-1251,-385,-1469
3002,3456,3427,3837,866,877,-330
3003,5517,-524,4401,1351,-710,-583
3004,-4151,1193,-2160,-557,-1358,-1912
3005,-5602,-5925,-6487,1657,748,-353
3006,6615,3034,3565,341,-1943,159
3007,6174,7754,5981,-372,-273,-945
3008,-5408,-7902,-7655,-881,1132,-823
3009,-2306,-98,-5410,496,-447,-1929
3010,2375,-3511,-2735,-272,-1050,-336
3011,-2261,-3752,-1874,-1019,1976,-1019
3012,-1886,6789,6727,1345,1191,1988
3013,2143,1817,5676,1695,-1575,890
3014,7154,-4236,-6788,1997,-1456,173
3015,-6890,-2867,-5577,-1986,-180,1490
3016,-592,2768,6149,-527,-1413,-504
3017,-6969,-2579,-6978,545,727,1273
3018,-7720,2441,-1113,264,-1993,1491
3019,-5341,-7945,-7946,-37,-1134,-465
3020,4870,-5357,-7467,415,1087,-764
3021,-7904,-145,-193,-127,1988,799
3022,1239,-4957,592,-1463,-1017,1901
3023,4629,5818,-3872,1160,451,-580
3024,-4251,3658,-2230,-1948,1337,1974
3025,1619,1926,-3568,-594,-85,-806
3026,-4883,-1851,-2709,-1335,1332,1486
3027,-4572,4229,-5521,1991,1207,-661
3028,-4977,-2541,927,-1569,-626,-805
3029,-7648,3059,3176,1793,933,1372
3030,-3666,-3652,-2228,-680,650,-202
3031,-888,2740,-4027,-1837,1580,-1701
3032,1542,-2622,-3092,-1448,-1195,-1702
3033,3023,-2373,-6648,1910,-289,733
3034,3691,4313,-963,304,1225,993
3035,-1514,-7139,1123,44,1477,-433
3036,-7300,38,-7293,-254,765,1281
3037,-3659,5422,5426,328,-336,-23
3038,2643,6305,7168,-1394,-103,828
3039,-3759,-119,-3899,1455,1373,1426
3040,-1182,-4958,7781,-1400,-1330,763
3041,1241,1303,-7433,-1835,202,-213
3042,-2567,530,5095,962,-1366,1795
3043,-2315,-5599,-1914,1155,180,1835
3044,-5162,1763,-4141,-931,-121,494
3045,5810,1188,5902,360,1257,1002
3046,4835,-652,-6251,307,1062,1704
3047,-626,653,-2089,1354,-1857,-577
3048,-7134,-4776,-3901,-729,-1829,-1089
3049,501,-3618,-506,-1300,-569,-1721
3050,-1853,4708,-5915,204,-773,-1315
3051,1457,919,-2515,-962,1476,-1519
3052,-3612,2156,6505,-1423,-922,-1878
3053,-7512,2716,-243,-666,-507,-1268
3054,-958,-3209,-7816,-374,-1076,1280
3055,440,5828,5066,-1687,832,1484
3056,-3822,5312,1657,1280,-1858,1478
3057,7873,2929,7911,-1280,905,1452
3058,5393,5711,-6633,-141,6,-143
3059,2858,6012,-1311,454,590,-85
3060,-3472,-7563,-5215,-1523,457,-349
3061,4260,3414,461,-814,-366,192
3062,6076,-5738,-3241,-425,1614,1157
3063,-4774,5569,-7938,-214,-925,1367
3064,-7901,2873,-6897,-1168,-1320,-1340
3065,61,-1241,-6258,-954,-342,-885
3066,2257,1980,-4661,-1074,1543,610
3067,-2115,1781,5729,-1394,-1079,259
3068,6618,-5035,2048,97,697,1988
3069,-1056,4113,333,-1725,311,-1862
3070,-1212,-6494,-6,-1266,-667,1554
3071,-3370,-6784,411,558,680,-790
3072,-5212,6532,-1224,-1375,-160,-1485
3073,651,2417,1723,-1798,-828,-648
3074,-4315,-4267,-611,-1219,12,-125
3075,-3215,515,-1389,-699,1527,95
3076,-4569,3272,6375,238,-855,-889
3077,5211,1247,-6191,142,-186,-1952
3078,1889,-2560,15,-1921,-819,1381
3079,-6755,884,-5566,110,1158,-93
3080,4714,3539,1858,-1931,-607,-1634
3081,-7123,-23,-5061,369,-1802,310
3082,-2388,3061,6357,-1228,-1546,-59
3083,1337,-7036,2706,211,-990,1204
3084,-2239,2422,4941,-1713,777,1513
3085,2973,-5364,-1439,-1024,426,-656
3086,3913,-3504,-3198,-1180,74,-803
3087,2819,5389,1654,1096,-1636,-985
3088,3341,-2339,-7402,445,384,-663
3089,3979,2968,4177,-227,1868,357
3090,7364,-5356,4077,942,40,-1095
3091,3550,915,1664,276,752,1340
3092,-5219,4953,-1783,1090,187,1005
3093,4291,7249,2027,-603,-1141,-727
3094,4260,1525,-7056,-7,924,-1535
3095,3814,51,4958,269,827,-166
3096,-7512,-2065,6297,-1562,-180,708
3097,-7861,4389,-4995,477,453,-1976
3098,-1518,1600,-616,-1380,834,-1357
3099,235,-765,-3742,104,-797,1511
3100,-2238,5229,7387,-224,-782,1136
3101,-6445,-4532,-4575,-875,1363,-44
3102,-4976,-1458,2326,-328,1693,-1374
3103,-7462,-2349,-5299,1841,-983,44
3104,-7074,-3325,-2849,1932,1703,844
3105,6182,-6635,-1700,-219,-1656,-1881
3106,2487,7311,-4727,-1448,596,1415
3107,-880,-4434,1119,-1006,-1245,-198
3108,7426,-5640,3911,362,-1345,159
3109,-5693,-5742,-6470,258,-672,-1903
3110,-872,7995,6587,604,-1420,-1884
3111,2508,2296,6587,-1861,934,1009
3112,7181,6430,1948,-25,-1455,-1733
3113,2157,23,4685,-1823,-401,835
3114,-4979,-898,-4498,192,-1378,1851
3115,5059,4719,6591,-171,-1143,166
3116,7528,2765,-2612,636,-713,-630
3117,-2370,-6103,-1509,-622,1432,-1340
3118,-7378,5409,-5870,1275,-1807,70
3119,6753,7865,-1376,1768,-1557,-1704
3120,5905,-7652,3445,-1173,1895,-1196
3121,-3848,1458,6560,1046,-813,-1020
3122,3553,1134,-5585,1223,1497,1389
3123,2037,-1216,-2767,-43,-571,1561
3124,-3310,2178,-2031,-1093,-780,-426
3125,-771,-5110,2336,1192,315,1042
3126,-5361,6170,-6577,891,-126,-1476
3127,-6781,3351,-2980,-755,-870,-1611
3128,-4868,-4949,-4733,-1173,-298,-41
3129,-823,-4202,3089,333,1037,-37
3130,664,-4377,-7595,1301,1371,599
3131,-6347,2077,715,-847,-1238,-931
3132,5828,5569,-6537,1280,-463,-917
3133,6459,-4751,-5345,103,1482,-1135
3134,750,-897,7362,1824,24,1779
3135,7863,-5786,-4686,1120,1089,691
3136,-3279,7690,1008,-1447,106,1963
3137,2427,5102,-2248,-192,1564,246
3138,-1820,-3115,-1293,-1384,148,85
3139,4627,7452,-6035,854,-1303,921
3140,543,7546,-3776,-1841,777,-482
3141,-3751,-6217,7556,1191,-120,-83
3142,1708,169,7037,1015,1055,603
3143,-7252,4629,137,1014,-1754,1432
3144,-5559,2153,5969,1645,813,672
3145,-1718,6447,-2545,172,756,-1936
3146,1182,2095,7023,1118,-1056,-1080
3147,-5693,-3793,-6680,-1376,-695,1261
3148,5175,4447,-4981,-574,1061,-1798
3149,-931,-7270,-6212,-163,561,1727
3150,4680,4123,-6984,870,97,-232
3151,6898,7225,4085,703,-1775,-448
3152,-295,-423,6711,5,-720,1615
3153,-6373,6103,3192,301,1919,1520
3154,-6493,440,-7237,-312,-1868,-1036
3155,2238,7609,5069,-867,-868,1257
3156,2201,-7299,-4191,-1139,815,666
3157,5843,5032,-6466,884,1324,1412
3158,7512,-2111,-5593,-1308,657,-1275
3159,-7531,6582,3719,-496,1484,596
3160,5711,-4191,5660,476,414,-175
3161,-5909,-3086,3593,395,695,197
3162,3534,5026,4927,412,423,-1495
3163,1676,6471,29,1305,508,-670
3164,-3623,1932,-2347,50,1777,463
3165,7986,-3900,1440,-1840,1082,1039
3166,2773,-2885,1653,-1619,-1627,771
3167,3712,-4384,5726,768,-1888,766
3168,1780,-3066,5635,-992,-399,-1640
3169,1077,-5917,4372,1154,731,257
3170,-3077,-1409,578,-1952,-1134,-1852
3171,-2527,-1865,4786,740,1154,1733
3172,-1698,6363,-5897,717,-922,-804
3173,272,5437,-2114,-212,-174,1034
3174,1531,-1804,135,-922,590,-659
3175,786,5687,2667,486,1385,-728
3176,3998,-2529,-2471,-446,-252,-1008
3177,-3729,1041,-6459,-957,1774,471
3178,2811,-823,-7504,-269,-752,1220
3179,-1537,-2398,1723,-1252,867,487
3180,-7551,3977,7673,-1725,1075,991
3181,-6564,3790,278,1537,-48,1133
3182,4606,442,6239,-1801,1231,509
3183,-7105,-7107,4548,1491,1520,-310
3184,4067,5467,-1434,-1787,-1319,239
3185,-4184,-4642,-1492,-6,661,766
3186,1490,6714,6220,599,-1073,1091
3187,-6971,1683,-1442,62,1533,-724
3188,126,-244,-5462,1337,237,-713
3189,-120,-6974,6524,728,-130,-1170
3190,-4647,-3495,500,1031,-356,514
3191,491,4611,6338,341,1268,972
3192,-1509,-6716,2147,-5,-158,260
3193,-7923,6356,3647,-124,-1309,1480
3194,-958,6003,5024,604,568,-1266
3195,-6576,3645,6913,233,1574,-72
3196,2220,-7496,-3165,1001,-1030,-1533
3197,1044,1039,-4499,632,985,1430
3198,-5204,-6979,-4280,-1308,301,412
3199,643,-3079,-4382,-1921,-1599,766
3200,5352,443,6485,583,-215,891
3201,-3304,2648,5916,39,11,-1423
3202,-5676,4645,7030,213,706,1957
3203,6071,-3580,4792,1586,146,-1866
3204,5924,5053,-7999,-1541,-1258,-1144
3205,-923,-2264,4111,-1536,-821,-335
3206,5229,287,7482,1483,-935,-1512
3207,-7149,7143,-329,728,-1045,-410
3208,-2792,3126,-6785,-585,1940,-1037
3209,-535,-1653,-2783,-1514,-862,-1798
3210,-2379,-6129,6547,1929,-1429,-748
3211,2942,694,-1822,1691,-1665,100
3212,3647,-2074,-954,878,870,-952
3213,-5416,95,-7542,1353,1543,-50
3214,1853,-3825,-3749,1035,138,1583
3215,326,-3519,4421,605,-701,1720
3216,2426,-2351,2721,381,949,470
3217,1999,-3991,6621,621,-898,-186
3218,-1174,7314,4136,397,-1944,1685
3219,1162,4548,-3860,-592,687,1651
3220,4826,3683,-5250,245,-1901,-461
3221,4745,-1592,-2245,1255,-949,-966
3222,-5141,630,-7775,716,-1887,-1007
3223,29,-3058,4355,815,-1249,925
3224,6078,-4826,-979,-1434,742,493
3225,7678,3376,-5668,1126,-1057,47
3226,1606,3741,-1925,1827,-128,1419
3227,3389,-3408,-789,-525,-1855,1039
3228,4879,7456,-3716,-800,208,1129
3229,3432,-2640,6755,1965,-1666,-126
3230,5938,3521,-7743,12,-1098,1579
3231,5919,-7986,4856,-1186,-1417,108
3232,-6191,595,6498,1323,419,637
3233,5785,-458,691,-439,-1793,1342
3234,5402,-6499,4465,1066,820,1049
3235,-7432,4493,-7367,-1366,1217,-1063
3236,7743,-3779,-7669,485,520,-1452
3237,1729,3628,2319,-1041,1432,-1903
3238,7693,-2141,2424,673,840,1145
3239,-6610,-1816,-4073,-429,1767,-1047
3240,-880,769,-6348,1516,-574,-1376
3241,2853,-3864,7202,964,-1044,-1497
3242,2298,-7288,-1413,-914,-1705,-1574
3243,208,-6118,-6604,1687,1499,517
3244,3782,420,3625,-809,1954,-24
3245,7338,5036,-4230,-1954,-1546,1303
3246,-7301,-4855,5391,-1116,1816,408
3247,440,-4090,6285,1001,916,-1555
3248,-476,3521,-564,82,777,-1997
3249,5895,-1354,6363,123,-1774,-1503
3250,-964,-1315,-6594,-249,-1988,-1590
3251,6349,5563,411,1153,-247,-186
3252,-6427,2030,-4810,535,-1021,745
3253,-1577,7311,-1819,1495,1318,1866
3254,2078,-7722,-952,-1369,-504,1503
3255,-5623,5822,4318,-1265,-1128,953
3256,-1572,-1172,-6679,-1471,1120,809
3257,6569,5976,-1018,1859,-1473,-606
3258,-2620,759,-2005,-443,802,1705
3259,3708,-4167,6152,202,48,-1154
3260,6666,-7548,4755,-1986,1236,1488
3261,-6932,6260,5685,-918,961,1570
3262,4121,5727,-452,-1902,1058,303
3263,2462,-1120,-6684,-1799,502,-834
3264,1356,1608,-3844,1742,1855,-1171
3265,2637,-6108,-6098,284,-949,-1374
3266,-6504,7259,-2226,185,964,-560
3267,-7727,-7333,-923,-871,-1850,-1227
3268,-4762,-7819,-4038,-613,-75,530
3269,7558,-6814,-5373,-1360,-1492,-303
3270,4239,-5578,-5109,-386,-461,-1739
3271,2001,4256,-167,-1807,1990,1661
3272,-6970,6296,-998,-78,-1540,-1831
3273,3459,-5443,-4569,-641,1189,97
3274,3894,6723,-7415,904,780,-1230
3275,-5477,-5173,-5221,886,-1798,1831
3276,4394,-3531,2725,316,1515,1062
3277,-2605,7702,-5022,1836,-1670,420
3278,-6751,6453,2275,1922,-207,-1291
3279,6944,-5906,-282,922,712,-1456
3280,-4611,4333,4885,916,1694,-596
3281,1167,1066,7003,205,1844,205
3282,4049,4318,5539,-405,1415,1993
3283,4008,-6435,-4513,-340,953,-448
3284,-5590,-4695,2224,460,92,-1772
3285,-1090,6800,-2103,551,872,1627
3286,3370,-1721,-3037,244,420,-1464
3287,-425,6064,1169,1036,-1884,-681
3288,-408,-6564,-3078,-1150,-469,-516
3289,-4918,1632,3321,1318,1610,1563
3290,2277,-712,-2473,-171,1480,-1533
3291,6413,-4018,-4430,1586,1866,996
3292,-2184,4142,7659,-580,-1199,-1088
3293,-2552,-2711,-3764,1624,-1867,-334
3294,-1622,459,6118,-464,1077,-108
3295,-2420,2379,2140,1082,-1438,-1359
3296,-3302,-5139,7058,-1781,416,834
3297,-13,2262,173,1041,-1834,-594
3298,-1586,-3507,-316,-348,-349,314
3299,-5065,-7446,-7331,-973,-593,1262
3300,2685,-6273,-922,99,1890,329
3301,-2195,2945,6065,193,814,1463
3302,-1626,-417,7181,706,562,-1075
3303,-7122,3726,2828,-1830,589,840
3304,-3210,6635,-467,-463,1771,739
3305,576,1142,-1837,889,1578,1141
3306,990,-4043,-5065,-1464,-117,1933
3307,6757,-3652,-4288,1377,461,1098
3308,802,-743,-2274,-1684,1884,-884
3309,1976,-3324,319,245,-1874,-1423
3310,1845,-4427,-5535,-1919,1697,1971
3311,-50,4843,6408,537,799,-869
3312,6785,3123,-1079,1456,-1784,-1695
3313,-5691,-7426,-2667,-680,-1679,-1090
3314,6322,-3527,-5201,319,-1427,409
3315,4935,104,-1213,857,-1510,1336
3316,5793,3022,-7125,910,912,1979
3317,-7520,2098,2305,1958,1275,432
3318,950,-7867,4466,1983,-407,-362
3319,-4837,2565,2502,-1129,-1264,-300
3320,6107,491,-6127,-360,210,934
3321,-3977,6299,-3902,1564,707,1734
3322,-4524,-7053,-4001,1431,-315,446
3323,-5464,7465,-1583,-1723,509,281
3324,-88,3567,2135,1800,841,1797
3325,4873,2277,3454,658,-565,1616
3326,3735,-5943,-3350,1516,-4,-1713
3327,-6419,-2863,5814,-1527,-1955,-1532
3328,7878,3633,4260,1962,1634,148
3329,3970,-7091,-2045,-1567,-1031,-1261
3330,-265,955,-2156,1720,-1701,615
3331,6437,2179,-1967,-1663,-947,-97
3332,2123,-4453,-4149,-1630,-1361,1062
3333,-5527,6349,-6253,1070,1728,-1450
3334,4592,5020,6069,-1860,-1545,1312
3335,2079,-6198,2830,1284,-1266,299
3336,782,1519,4619,-1275,-1854,1109
3337,-1239,2977,5455,-430,778,-561
3338,5484,1370,4230,-1999,1778,693
3339,286,-304,6627,-361,1004,1370
3340,-7922,-4547,-1173,711,-1557,866
3341,6655,41,5282,-982,-146,1065
3342,4047,4266,-5224,489,552,-1193
3343,-820,-2969,-7354,-1334,1503,1072
3344,7234,7867,-540,473,-1566,1976
3345,-2220,6597,-7104,-1847,432,-1630
3346,-3570,6387,-4542,-694,-118,593
3347,6969,1254,2285,-1907,-1285,-532
3348,2018,3179,1011,1899,1317,989
3349,6929,-4515,5639,1526,1027,1425
3350,-4945,-7324,-5115,169,1530,-356
3351,-36,-4529,5814,1518,-1140,-1337
3352,-3512,4717,1606,-1361,164,1040
3353,7464,-1623,4146,-38,406,1993
3354,4073,2586,6237,530,-451,360
3355,-1651,-96,-2162,1392,-433,192
3356,-3964,2501,5431,-1293,1335,838
3357,5953,4131,5628,1375,-11,-827
3358,6985,1256,2183,1077,1867,-13
3359,4572,7218,-5989,-1057,-518,1277
3360,4836,-7571,1330,-541,-1585,-1296
3361,-4963,-5634,7705,-450,-754,-614
3362,-475,-4766,-7469,-641,780,-1084
3363,7084,7974,-403,1467,428,1762
3364,3916,-2694,-7710,1116,-1000,-1635
3365,4256,754,-1367,769,1032,-1534
3366,-6011,3143,-4318,1754,1202,733
