Sample,Ax,Ay,Az,Gx,Gy,Gz
0,-6061,461,-1565,-1977,355,-1929
1,7914,-1039,-7032,-955,-484,1138
2,-5532,-6367,2053,-368,-956,594
3,-2451,-2921,-1121,-1313,-172,1217
4,3762,1546,-5998,-1099,1611,-1616
5,5586,2969,4895,-664,1553,1462
6,-7868,-6768,-3465,-1210,99,1077
7,-919,841,-5850,-457,627,724
8,811,2566,7753,-1919,-1352,129
9,-5353,-1157,-7848,-1696,448,499
10,-4584,7130,3280,-874,625,-593
11,-7403,7544,4027,-1468,-1472,42
12,-6717,-2405,2917,-460,290,940
13,1851,7268,2353,1527,786,-1841
14,1915,-5227,-2847,-908,-226,-63
15,-4965,-7790,-7184,-550,228,-1801
16,-6929,-5299,127,62,601,-711
17,1601,-6554,4463,-776,-182,1065
18,-4229,435,-405,-588,81,53
19,2558,-2317,5440,-1479,-271,-1093
20,7897,-2721,7673,46,-739,-1332
21,-1535,6218,1974,-392,-1436,1439
22,3741,-2864,-2281,89,1887,-778
23,1274,2152,257,928,-1682,1139
24,-3282,-6476,1927,261,363,-1674
25,5571,-2233,4849,1901,-197,659
26,-6384,-1676,-6559,153,1476,-558
27,3863,5325,-6608,-1582,1161,1952
28,2863,-6957,-2266,-1270,1411,-1927
29,5649,6973,-7446,1609,1899,-1769
30,2303,-7735,-1356,233,-1970,-580
31,4350,-5820,7936,347,785,635
32,238,-445,-7607,-1306,-1918,-1465
33,2650,811,5774,1494,-925,1062
34,-7833,2100,-2337,1679,-876,866
35,2981,-4442,4285,288,-257,-154
36,1812,3394,-3232,-601,1868,1884
37,-5792,1944,-3054,-724,646,-1217
38,2995,7483,-2317,1567,590,1479
39,4963,-4869,2138,-1265,1851,-1361
40,2643,7722,4881,385,1838,490
41,6180,-2545,5109,1167,-1147,-226
42,-661,-489,6771,-1614,-1197,-1562
43,-1257,4631,1411,498,-704,-546
44,-1656,7442,-6611,-744,1156,-637
45,3166,7005,-33,-750,1156,297
46,3775,-4778,3156,1464,146,-1487
47,2557,6842,-5435,-1154,20,-1160
48,2877,-2027,-1956,1569,-683,-1546
49,-4653,-412,7199,-1085,62,-46
50,2797,5236,-6059,-413,-543,517
51,5962,-7121,3949,-1654,-60,-1363
52,4566,-759,-4433,1224,972,937
53,3176,6516,7518,900,1503,1906
54,4238,-4254,-1824,-25,1419,-1129
55,6872,-6850,-4859,-791,-202,-1390
56,-4789,-4823,799,809,-1880,-436
57,4536,6981,-4367,-1890,-1650,313
58,7148,7809,-2471,1121,544,226
59,1461,302,-6356,-1663,159,-454
60,5610,2798,-4600,616,1203,698
61,2943,-2069,-1408,1206,181,-1811
62,-262,5416,3663,-1667,280,-1982
63,1471,-3756,2243,1088,1842,397
64,1711,-1105,3985,-1131,-861,1106
65,727,-2018,3201,876,-233,-1960
66,-3530,3286,-409,1273,-1018,1378
67,-7994,-2485,2264,728,1680,1848
68,4444,-4196,2397,-644,-27,1903
69,3438,-7140,6517,178,1188,-973
70,6832,5486,3204,1240,-1797,-806
71,996,-6527,7534,-853,-484,50
72,-7602,5079,-342,1107,-638,274
73,4082,6656,1662,1087,-1547,790
74,1450,-5041,3759,-1474,-47,1944
75,-644,72,-6688,1218,-641,1522
76,-1978,2871,-1720,-755,1453,-1368
77,2001,5358,-3046,463,362,1911
78,6940,-4255,-6705,-273,-710,427
79,-4005,928,3032,388,-590,-854
80,5474,-1251,-1007,-1276,1549,-746
81,-1314,-7232,6229,1339,-1499,-1985
82,3301,6284,291,-1241,-252,-1211
83,4557,-5751,5176,-989,-1847,-1976
84,7218,-4644,-5744,-770,1572,-1641
85,439,4138,3200,-316,-1308,557
86,3,-1098,-3423,1497,287,-589
87,7767,7168,6000,-195,-572,-772
88,5680,-3633,2146,418,1279,-289
89,1910,-6143,1525,-1373,-638,-851
90,872,1506,-7021,-1518,1515,-1436
91,-5107,460,-2499,622,1412,-247
92,6598,5507,2977,1542,677,-357
93,-6498,-1686,-3255,180,148,-1173
94,4677,-4213,-2384,-1227,511,435
95,3629,-7512,2581,-1073,895,-1554
96,3770,-5191,6316,1264,-35,-435
97,-48,-7101,4253,-1640,1553,1114
98,-6850,-5813,-3396,-1777,-1656,1627
99,-3965,4182,-3944,-1327,873,-1619
100,1570,-3130,-1512,-1868,-248,612
101,2855,-5507,-6474,49,-1107,1405
102,2570,5102,2900,-1529,-515,785
103,7861,3633,-3100,211,1679,-301
104,4143,-6,3410,1738,63,-622
105,4626,-2026,381,1367,-370,1162
106,5488,7350,5628,485,302,1549
107,-4498,-7744,1392,-623,-972,1421
108,-125,-1038,-2057,-78,1872,1807
109,2484,-4042,-586,-444,-403,934
110,6416,-444,-3899,1088,-1402,242
111,6352,-5622,-3164,1632,-986,1535
112,-5997,-3069,2376,222,88,1894
113,2520,-573,4724,489,-697,-1220
114,3974,2686,3188,580,-1089,1675
115,5862,403,-4785,-1260,1155,196
116,-2739,-200,2231,84,199,-689
117,7189,4424,6416,628,-1608,1887
118,-2077,5375,2708,-1110,-1861,-1494
119,7070,6609,2933,1517,-753,-1604
120,-7507,2308,-4666,1317,-435,1430
121,-5245,7853,-4223,-1222,-259,-621
122,5644,-5943,-3162,-1707,1938,-1056
123,4585,-300,6781,115,972,34
124,-4847,5150,3169,-327,-1461,1278
125,-4438,4401,1798,-356,161,-1318
126,5007,-551,1208,-921,821,1036
127,-1830,-7668,-1609,839,-18,-100
128,-641,2255,2672,-47,-1617,-1389
129,-5471,-4296,1409,1434,-397,532
130,-2891,-2458,7416,-1117,955,-246
131,816,1300,-1642,-693,747,937
132,-3431,6756,-7055,1866,-1731,-711
133,6068,-4782,-661,-764,-1427,1243
134,785,57,4566,1165,341,1398
135,747,-7709,7694,-660,845,-1642
136,-5988,-155,-148,959,-1960,-948
137,7545,3098,5518,-396,1534,-479
138,-6107,462,3196,-1702,-1666,1197
139,5451,-5814,-5004,-1123,-1599,-109
140,6440,-6851,2346,485,-831,-893
141,-7748,-4950,-5089,403,-96,-1052
142,-6433,3084,-3930,1419,488,1469
143,5834,-3601,-704,822,-1012,783
144,-6234,5622,7261,-1246,8,1942
145,5856,-439,-1667,-748,-1901,1243
146,7377,6257,-6665,1258,1272,1670
147,-2568,-3251,798,1998,-750,-985
148,-7597,-7009,-4046,-880,-227,-1389
149,7821,-3729,-7385,-886,70,-798
150,-4376,7852,-4181,1235,608,699
151,-7642,1871,-6659,322,-66,-101
152,4397,6753,-5053,-225,347,1982
153,4067,3396,6843,1344,916,904
154,7717,3558,-1797,978,-1797,-631
155,7297,-5226,-681,740,903,1917
156,3655,6559,1447,-1792,1490,1092
157,-2643,-4604,-2035,-1603,-1529,1358
158,-2548,-3892,2737,761,-890,-1729
159,-7726,6565,7876,1371,-1839,-76
160,-7677,-7563,-1436,1397,-1127,302
161,-5677,-1922,-6741,225,904,-1227
162,2074,-1546,-4813,-646,-897,-1409
163,-4744,-3047,6631,407,-1456,1974
164,4907,1995,-3026,917,983,235
165,-956,-4783,6805,-1187,673,1342
166,-7083,-6396,6675,772,-1417,-1382
167,3682,4976,-1789,-740,1278,-1555
168,608,1327,-1979,1567,-1555,1085
169,-7346,-2569,2688,-634,-1262,1617
170,-6049,6348,-295,535,1558,-1771
171,1744,-446,-3956,1092,1402,1029
172,7106,6323,3359,958,-1391,-869
173,4866,-678,-3343,1414,966,-1050
174,165,-1907,-3195,1456,1384,-1233
175,-5944,4193,4761,-1661,1898,-1691
176,-7934,1486,7107,1300,1228,1551
177,-6764,3284,1242,-1195,598,470
178,-3718,-618,-7315,-1242,-1502,1713
179,-5500,2995,-2938,996,1725,1594
180,506,-1585,-1370,1241,-1737,-522
181,5161,-1131,3910,-1669,-1739,-464
182,2119,-6287,810,-217,-1624,803
183,3407,2159,-4483,1535,842,697
184,7628,-7527,-5582,1229,1001,371
185,-3338,832,-2546,1598,368,-26
186,-1402,-2838,-6336,-1687,1752,-1840
187,3280,4423,1620,1448,-1858,675
188,-7659,-15,4190,-914,1444,711
189,-6356,5803,6892,-827,1662,-1557
190,1613,6841,-7069,-315,-423,-1439
191,-1233,-3905,-1346,1714,-1005,-203
192,-1252,4330,7609,-1215,1474,-1830
193,-3565,-6051,-5494,-1678,-821,-39
194,-2337,1494,-1369,-882,1230,-1367
195,7629,3019,2151,-1444,1236,-92
196,370,1176,-5701,4,-675,871
197,4326,-7668,1664,-163,1105,-1537
198,-6608,-2547,6190,-634,-1713,375
199,-1508,-306,-6357,-818,-608,811
200,-881,3722,-2575,1764,1076,-1991
201,5330,-6684,5009,-955,1632,-1564
202,6474,3192,1216,1511,-1972,670
203,-3413,6305,7702,361,1325,-1473
204,3970,7248,1057,576,1673,1184
205,1472,-6949,-5244,50,-1201,-1364
206,2955,810,5139,-624,1847,-801
207,5750,-5743,-1273,721,1105,47
208,4930,7512,-3965,-1461,-1149,-1998
209,-5256,4467,3594,887,1589,431
210,3915,1226,-1465,133,-1852,143
211,-6509,-2727,6233,1567,1697,888
212,2318,-3585,-4312,1568,1096,70
213,7190,-3096,3522,-857,-114,-1852
214,-5912,6937,7989,610,-132,-930
215,-1751,-2313,1669,1784,1009,222
216,4798,-3277,-1130,-96,-1937,313
217,4695,3833,-432,-1949,-834,-1194
218,-4515,-3933,1661,248,-992,-603
219,1458,618,-4933,-1413,-255,-865
220,3013,-3251,4917,1585,-796,-1296
221,-1728,4271,-3364,1584,1920,1675
222,4168,-3789,-7162,860,1481,-646
223,-5739,4781,4249,-1491,-332,617
224,7542,2524,2524,1924,-1094,-1684
225,6105,-6454,2559,1706,139,383
226,-2310,-1440,4616,1606,334,140
227,-5016,-4135,-2711,-1264,1553,1392
228,-7772,-4449,443,-901,-1145,-540
229,4365,-524,-7075,-1217,-1211,63
230,5958,-2984,-2261,-848,-401,1821
231,1567,3864,-7698,1249,1559,245
232,-3549,-4455,6557,952,-772,-902
233,4956,7746,6409,782,561,795
234,1524,5887,5062,511,-568,598
235,6545,-1366,-1976,38,1564,896
236,5397,174,-3766,1017,-780,-1217
237,3997,-4851,7734,639,-814,1324
238,-1772,4946,-4213,502,-410,1478
239,-7061,-3619,7324,-653,-1846,-812
240,-3137,-2670,-4394,131,-1098,-913
241,-1065,5765,-7119,-1879,1313,-1643
242,-6934,6249,-4438,-1780,-218,366
243,-5732,6979,6842,499,651,163
244,-2649,6768,-1973,-1120,510,621
245,2114,-4541,-1933,-1150,658,1416
246,2907,4449,-2559,1637,1729,369
247,-3848,-1255,-4673,399,-1343,6
248,-6548,480,-3899,1094,-1799,-813
249,-2382,5541,-573,-929,-1547,1991
250,1657,792,-3432,1566,401,279
251,3748,7902,-589,1003,-1433,1989
252,5777,4430,-4992,227,-1400,1368
253,-5452,-5303,-945,-1049,453,-1678
254,-2920,-1375,1601,-1638,-110,-1514
255,-1805,-2981,3261,-591,1355,-249
256,-6351,3431,7153,-1846,-1567,-604
257,7855,4164,-5007,-373,332,1826
258,-6524,1772,5377,-1576,-374,1457
259,-7059,-3318,4833,-163,-1224,-1983
260,5927,697,-1902,-955,-396,273
261,-934,3565,1510,406,-1552,1936
262,651,-146,7034,-501,-1911,-678
263,-7014,7704,7157,-699,-168,-696
264,-3111,1717,1154,-1524,968,-866
265,-1110,-7173,6283,1400,1941,-1634
266,1000,-1021,556,-1611,-590,1644
267,-6762,398,-3804,-1464,-1577,-1208
268,-11,-428,3230,1235,-595,1513
269,1418,-3175,-7344,223,-433,597
270,2846,-4767,3109,-1627,1393,-1077
271,5577,-364,-150,-1808,-281,-1706
272,6765,3639,-3353,-1859,720,-315
273,-191,-6745,-514,789,1636,230
274,-2201,5116,-7028,976,-287,539
275,4521,-7054,-7011,-132,-1486,903
276,679,-1144,-4035,423,-10,1998
277,1679,-3499,5816,1379,-1152,1753
278,-2342,1691,-3865,139,-585,-44
279,-1363,-3528,-3298,-979,1260,-1087
280,1809,6926,-4412,-572,1661,-46
281,-2536,55,2708,-24,-1711,1358
282,-861,410,-4382,-1345,-1283,-1521
283,-7804,5491,-1461,1399,425,61
284,5446,-5259,-6013,657,289,-171
285,-7075,3788,-2484,690,-1817,-1104
286,-7877,7722,-1768,1628,559,-1766
287,1604,-1754,-1986,1156,804,-277
288,-388,-5433,3259,842,439,-714
289,-3684,-1908,1782,1703,500,216
290,-408,7801,-7175,760,1617,334
291,5044,1398,-4094,158,-1344,302
292,-4732,-7372,-7400,-1566,252,1626
293,-2061,-1430,4904,-154,1676,-1051
294,1863,-3990,888,908,-1568,-1887
295,2330,-1667,6454,-182,1866,-1775
296,6592,-6619,-4546,887,-937,-1882
297,2664,3400,-638,-1842,-1184,1055
298,5121,6486,-2433,1251,-218,-611
299,-3443,6695,-544,1285,1776,-403
300,498,7885,6169,608,548,1907
301,6384,1325,6924,-504,-1236,-1539
302,-2384,-46,6570,-1614,1164,-374
303,-1257,-3013,7398,-998,474,706
304,4188,6517,-6696,214,1554,-1414
305,-3428,-866,983,-1405,134,1173
306,-6899,4728,2617,-1336,885,-976
307,2902,-4108,4825,1779,660,-1419
308,-2789,7534,4870,-48,1704,-1903
309,-1285,2170,4436,-928,-1586,323
310,2860,30,-1754,1530,41,-70
311,-7964,5350,7627,296,1735,372
312,-4441,7155,5669,1442,734,-114
313,7672,-5971,1596,-200,1525,-1243
314,-7428,-7186,5482,-315,-197,-1541
315,5141,662,2211,-1877,1084,1690
316,5628,-7154,-1745,887,1339,-1327
317,-1906,-554,-5794,-225,-1253,-1058
318,7213,-4115,-1120,-1173,1209,-146
319,5760,-6713,6114,620,1378,559
320,5042,6471,3855,-913,1077,1067
321,-3549,-770,-975,-608,1105,-14
322,2249,7840,-5299,1455,1639,1738
323,7830,1348,2105,-1794,-729,-1996
324,-4416,2585,2172,1018,-1586,207
325,3034,-6930,5335,705,-1887,1719
326,1336,-2140,-4034,17,1077,763
327,49,-5574,-5382,864,975,-1490
328,762,-4081,2431,1350,710,473
329,316,4182,7577,625,279,-1810
330,-6423,7612,33,-1802,-1148,-1070
331,6384,6543,6821,-771,-496,518
332,1909,-7307,-184,1344,-685,-209
333,-5136,-2988,7514,-1652,-1432,-1106
334,1115,-7853,-4683,-1298,1510,-1050
335,5763,-6108,-7343,-1179,551,-1313
336,-7123,633,-194,-1684,433,15
337,822,-7198,-1452,1898,1976,1029
338,7971,-1647,4744,-435,794,181
339,-75,6632,-3630,1826,-474,623
340,-7806,-720,3522,1553,-96,-1745
341,3316,-711,-2615,633,55,-1112
342,-1391,-3449,-2291,-1429,53,807
343,-424,6401,7057,1665,-1254,640
344,-2753,3433,3860,-1231,57,414
345,2687,2011,-3470,-109,1916,1793
346,-7733,-5798,-1864,1310,993,-912
347,5018,-6141,5894,12,991,-1546
348,-3597,-6302,-1838,1157,1237,875
349,-6234,-7737,-435,1868,-987,726
350,7445,7616,2992,-846,-1197,-974
351,6916,1457,7972,-897,-1286,-265
352,-3045,4622,1627,-1501,-161,589
353,-1944,5162,3403,1558,203,-709
354,6238,-7266,-6052,1804,-1586,-1561
355,-2315,7592,2987,-1943,1368,130
356,3760,-596,3607,-1776,-1818,-1197
357,5185,3508,7502,1512,357,-515
358,-682,7772,-4899,1865,1674,-340
359,2601,-6621,-4356,-275,956,1437
360,-6362,2744,-4101,339,-336,1951
361,-551,-44,3733,1131,1358,1493
362,-3982,2056,-5123,-166,-1333,-395
363,-1099,-6481,-3323,1075,1144,-665
364,245,7395,-6706,-700,-456,-1103
365,2636,6174,-4075,-1388,-1792,-1123
366,-5994,-4606,582,1661,-1497,1339
367,-1221,-6770,933,-1397,-579,-55
368,-278,7301,-5853,-1778,553,1409
369,-3111,-3127,2614,-1502,1919,-163
370,5273,2328,-5381,83,1513,50
371,1680,7530,7464,-1507,-1075,918
372,-1008,4482,-4425,-1080,-768,379
373,6379,-7650,-4978,1954,956,1990
374,4667,6366,3935,461,275,439
375,7168,2993,4998,-1606,492,-1
376,-2219,6751,-6235,125,1008,-1505
377,-277,1063,-4144,-918,-1767,1634
378,7296,-7076,-5494,943,999,938
379,7191,2276,911,-166,-529,-81
380,5543,-7219,4761,296,1767,-1157
381,-3936,-4534,-6721,1146,1272,1271
382,-3899,2765,-2039,-1792,1432,343
383,-3748,602,-5050,609,1686,-1926
384,-598,5065,-5269,1159,722,1883
385,-5515,-6955,994,1790,1740,-1889
386,-689,-4770,63,1958,-110,1308
387,1611,-3672,-6699,-1233,262,1122
388,1855,-1805,4250,-215,-1435,-171
389,-6322,2884,7385,-240,-51,-339
390,7096,-6149,131,-11,1174,-1851
391,2888,2382,5290,-617,-1720,-208
392,488,2129,4998,1631,-1060,60
393,772,4327,5268,-562,1638,-1385
394,2744,3152,4481,1237,-1021,-810
395,7178,-3242,-6837,992,-431,-169
396,-4199,-2016,-5130,258,-1443,1261
397,-245,-4378,5323,-1920,-1675,1130
398,-7094,-3962,2884,971,-1521,-1685
399,-1891,1449,-1598,1091,-1837,-1155
400,-6563,-3817,2081,-594,1798,-343
401,1741,-7991,-2669,672,-68,-1135
402,-2183,-1125,3270,1445,317,210
403,-4479,-7324,-3447,1581,-219,-1385
404,6386,7845,7448,321,1939,1532
405,3192,4917,-5460,917,-711,1911
406,7735,-7301,785,38,-1485,896
407,3274,-2022,5562,1509,430,1466
408,-4240,-4942,-3870,-851,-399,1372
409,-6804,756,5671,-1908,-1083,871
410,-3155,-1688,7919,-1573,-1225,1163
411,2637,-6593,-6837,1114,1125,280
412,3467,-3791,-4736,1620,-1281,-162
413,-3556,4441,1165,1993,242,-1590
414,-4204,-5984,1378,-375,-1039,404
415,-2857,-4756,6170,-710,769,1224
416,-4436,4336,1951,102,-1066,-1855
417,-4859,7057,-476,-676,1070,-1427
418,7396,7914,4245,-1292,-1087,-42
419,2103,-5019,-6515,-575,-505,-577
420,-1023,7175,4841,1742,1097,-1525
421,-390,-4788,-7879,1483,1664,1499
422,-7789,3835,-5278,450,1594,1312
423,5414,5676,7626,-853,1486,445
424,-3436,6411,-4645,1736,637,311
425,-3082,-3493,1990,331,-772,182
426,3340,-3515,-1567,1099,1017,-1091
427,-7219,4604,-1543,-1315,-1325,1613
428,3600,-1703,4220,206,-293,-1491
429,3202,7720,-4690,-1931,-449,1399
430,3027,-5770,3012,-1128,-130,1851
431,2066,-2319,4974,1792,-1391,475
432,-514,-1919,-1640,970,895,-1904
433,4343,-3812,-3379,947,720,823
434,-5934,-7305,2935,-545,-1525,-1180
435,-3604,-6686,-4735,-1491,1402,-598
436,-4691,-5957,4187,1190,415,-1810
437,-4393,-3820,391,832,-43,1058
438,1536,1084,1064,544,-469,-1921
439,-1795,-5417,5425,287,1543,942
440,-7958,-7963,4938,1776,248,-1891
441,5201,-4400,-4218,-158,591,-1433
442,6423,6190,-6891,916,-394,1987
443,5990,-3369,-6761,-72,-1956,606
444,-6609,-1516,4862,-1566,608,1152
445,-5993,-1384,5796,-713,1648,1631
446,-1656,1481,6418,-1621,-1193,-1648
447,-2828,7115,-1648,1412,-1601,1330
448,933,-441,-1918,-225,-1396,15
449,-4487,538,526,1880,-1950,1639
450,-6752,-2930,-7715,-246,586,-1346
451,-130,-4080,7624,1090,-1883,1357
452,5235,-3812,486,85,-1787,-1361
453,410,-948,6290,-1798,931,586
454,-4647,-4916,7605,1142,65,-101
455,602,-4180,5417,-1934,-1472,1212
456,-2489,-5641,4157,1195,607,492
457,5046,-4909,7091,-1870,-871,1053
458,5844,933,-5406,-803,454,1525
459,4728,3793,3384,1261,1569,-1649
460,7475,-1474,17,1392,1561,397
461,-4639,-3651,3899,1920,1023,1285
462,-5839,7977,193,1252,476,878
463,-3227,5429,2458,1637,432,-1392
464,-2853,1014,-848,503,1249,-1298
465,-7690,4971,-5456,-1148,344,836
466,-5698,-124,-4772,-1674,-1348,361
467,-1547,2434,-7556,-1277,694,819
468,-6674,3287,2441,-1885,1975,1114
469,6048,128,267,1357,-1391,-596
470,-1681,-6504,7723,-1865,248,-276
471,-1740,-2694,581,1344,1872,1672
472,2936,2851,-3782,492,1590,1700
473,-7381,7557,-7045,1855,-165,1443
474,-6617,-1466,4519,1513,751,153
475,-2344,-1236,1275,448,-541,235
476,-2388,4545,-3661,-1440,-1337,945
477,-4407,2055,5847,1924,1161,-283
478,-3098,138,-7293,-1192,-1242,-1557
479,-7832,6966,9,-1277,1523,1214
480,-1868,4244,-1957,1345,-1270,-904
481,7089,-2031,3215,498,-753,1926
482,-3937,-3036,4182,-376,1848,1251
483,6648,-5862,-1427,-1399,605,1427
484,3658,-7260,-4096,1101,-1175,1647
485,919,4515,7511,-376,1678,-1910
486,-6424,3860,793,1144,-1009,719
487,1411,2573,-7377,-1139,466,-150
488,-2210,-5600,-5351,-1850,-139,-1118
489,5248,-1400,4163,-1468,1469,1560
490,2418,-4277,1367,1862,-1740,-630
491,598,-2039,3596,807,-1337,615
492,-1089,6967,6499,-1598,-1972,-1588
493,-4891,5477,-5032,1554,1150,-632
494,-2263,2429,-3996,-742,-24,-798
495,-5187,-3732,2578,1049,1755,19
496,-3530,7210,-3059,-1434,348,401
497,-2498,5360,2639,1838,1962,-1152
498,1407,1488,-6039,-677,1258,969
499,-6953,5036,2218,-439,-1601,243
500,-1653,-1358,-6802,692,10,943
501,1914,7588,7119,1290,-1377,-1312
502,-4836,7842,-4639,-450,152,1770
503,-1752,-571,3748,-358,-679,1074
504,1571,28,3157,1983,1196,-1945
505,-4599,-1607,-5406,1692,-1297,-203
506,-2328,-3010,2435,1216,1349,-1355
507,29,944,-1826,-910,-56,-120
508,3833,4531,-5622,-1379,1416,1763
509,-4198,7671,7700,-875,-1437,416
510,-5863,-2696,-2862,340,-375,1547
511,5175,2755,489,1780,1173,-601
512,1539,-358,-2427,215,-233,-490
513,-6809,-1781,-4325,-1247,635,-1879
514,1145,-495,5395,-853,-1545,-1955
515,-5862,-5148,-4006,486,1352,1443
516,2356,4062,673,-1439,-1528,-1373
517,3515,-5809,4174,-831,320,20
518,4342,827,-2999,-123,976,-812
519,941,3747,-524,772,-129,-1970
520,3467,1415,2497,106,-1507,-952
521,4062,-5042,108,1008,-1400,-917
522,-4872,1122,7452,-906,-322,1645
523,-3476,-3102,322,1929,-499,-1843
524,-1455,7622,3725,-1826,-30,774
525,5440,-7485,-7428,-1254,98,-1577
526,1824,2090,-5696,-1035,23,-521
527,944,6855,-6122,-1243,-621,-821
528,-7303,1293,2056,-1197,1242,825
529,3471,6430,-3452,1991,-82,-292
530,4173,4624,1701,-1888,-1615,229
531,-1403,3982,-2423,-1849,-576,-1865
532,5357,-6837,-2888,-666,1158,-49
533,-3645,1172,1649,1310,179,-1045
534,-2,2469,6267,1392,-564,868
535,-4928,2332,-5717,1180,-1268,-1419
536,-5815,-2956,3161,1870,1399,351
537,-6723,5156,-3542,485,-1094,967
538,-2070,-2773,6956,-813,-1470,1457
539,7691,1990,-7979,-739,-1640,599
540,7695,-7760,-1555,1863,272,-987
541,-5485,6278,-129,-1123,637,-1219
542,5460,-7755,-2863,864,-1213,1783
543,-7461,-1162,-6562,-229,1200,-1699
544,3526,-6934,3222,1221,-1471,854
545,7345,1313,1480,162,597,863
546,-1429,7199,1573,570,1687,-1627
547,-4252,2156,-424,388,-1302,-51
548,7818,4953,-638,1092,-1205,-1863
549,4214,7692,-952,-1448,1174,-761
550,1260,3263,1506,757,-1567,607
551,-328,-7496,-3869,1237,207,-458
552,-5864,-1919,5691,-930,-1655,-1647
553,2331,6970,-1924,316,1019,286
554,-2083,605,7635,1808,1090,-647
555,4560,-3582,-5510,-1906,1297,-1448
556,-2421,-1008,2479,902,-951,-303
557,-3143,-5409,176,827,69,133
558,-4744,6026,3799,1218,-1710,987
559,-2207,2614,3383,-922,455,787
560,-2246,772,-7915,573,-1790,-626
561,6279,-4709,1637,-935,-882,-1009
562,1495,1824,-4590,534,504,-662
563,-2678,-2548,2647,400,684,1107
564,3607,-6,-1812,1185,1607,892
565,3985,5377,5127,629,-1399,580
566,5418,-2098,3047,-1394,-721,-274
567,-4972,-3670,4281,-4,1463,-1535
568,791,4623,-7625,10,-945,-922
569,4122,-7498,-5326,95,55,-242
570,4624,7511,5408,-1795,1074,-196
571,-1266,3997,-3240,1124,91,1505
572,4397,-1119,4316,-1997,-325,1716
573,-7003,1123,6988,1578,1645,1148
574,-5913,-2128,5934,337,165,685
575,-5896,7650,3843,-1029,80,-1579
576,-3373,-1786,-80,-1921,478,409
577,-4158,-6676,-2679,1907,1994,-1138
578,-6948,2104,-7029,-447,-1659,-565
579,4795,5399,-6466,-1146,214,-1712
580,-4565,5164,7464,1792,1390,-1421
581,-7677,6395,5901,201,-307,-1212
582,-2364,1688,7220,930,409,1522
583,3717,-1028,-2908,489,-1675,1188
584,-7795,5863,-3243,1852,-1912,-1016
585,6542,4268,2575,-1447,679,193
586,-1098,4659,1109,-56,872,-732
587,266,107,-7432,1723,1128,817
588,-852,1631,965,873,-1534,1027
589,2787,-1322,7720,133,596,1201
590,-7696,507,6218,-1685,-885,1954
591,2663,-777,5665,-544,-233,1354
592,5050,556,3765,-1953,-1576,1564
593,6729,7283,3712,-523,488,-1005
594,662,-1186,-1458,1873,-1709,-841
595,-157,1327,-3282,-163,1358,1759
596,3331,-7561,7276,1275,-1279,-1675
597,1535,2673,-1872,-488,618,660
598,5992,7669,-7735,-1192,-1887,-958
599,4895,-5185,5707,-68,336,1187
600,3701,253,-2542,1581,119,-478
601,-6279,-2692,7408,692,217,-1623
602,6345,-6893,1018,1206,-288,1767
603,6732,-676,-2285,1988,-342,-1331
604,2135,5714,-438,-1307,-1722,157
605,3645,6531,-3885,-228,-246,1588
606,5479,-5040,4548,-97,132,726
607,2103,-1609,-1344,557,-1244,511
608,445,-3276,2708,-1148,714,-219
609,7477,5617,6223,-1360,-1430,461
610,-2285,3446,6145,69,-989,-159
611,830,-3799,-7601,363,60,-207
612,2120,-1507,-5463,-142,-225,-364
613,5568,1705,-2057,-1051,1325,1518
614,-5186,6331,3281,-1957,-629,1587
615,-477,-2051,7866,1773,-788,-186
616,-2118,3280,7914,-1779,581,-778
617,-2955,4654,-5439,-951,-796,1848
618,-2688,4314,1097,1103,346,-1675
619,2674,2520,-6039,-1432,-1825,-628
620,3159,1384,7156,1468,768,1999
621,3596,-2277,-2689,67,-1831,-1689
622,5693,-2454,612,-1436,-1993,-185
623,-1802,65,-4190,-1814,-1236,-962
624,6940,-5015,3491,590,688,893
625,-5096,-1239,-2442,961,-1080,-1781
626,-6641,-1466,1209,955,1709,161
627,2317,-5403,7838,-20,-1724,-1727
628,3251,-2727,6195,1503,-1439,-382
629,58,-4551,-5276,-1554,1856,476
630,-3112,-2787,-5731,384,-1852,453
631,29,-4723,5652,1153,285,1953
632,-7652,5178,-1975,1560,1665,48
633,-4324,-3702,-121,-1577,-866,1421
634,4029,1693,-7642,-715,-791,-1039
635,-7285,2429,943,183,92,575
636,2736,-2619,-3653,-1365,26,-1380
637,-6021,1151,-3544,-1020,128,-668
638,4504,7637,-182,-1345,-945,-1170
639,1142,6608,-360,-752,-809,1243
640,5410,-3756,629,1476,-532,56
641,5978,7615,-4662,794,-1713,409
642,-6924,4093,3473,-323,1230,1002
643,1160,7181,444,760,266,1941
644,-7,-6348,-1348,-1424,1940,-1189
645,1900,339,-7760,-561,-1637,-1305
646,1093,-4871,-2101,1383,582,-614
647,7645,-6003,7024,912,-563,790
648,3607,-4590,-416,-1930,646,-1332
649,6034,-1074,2691,1072,-465,1907
650,-6026,-4464,-7736,502,1572,981
651,7503,2165,-7371,-1712,-789,-968
652,-2578,5961,-3509,529,-996,-487
653,627,1129,644,-727,1765,1123
654,5002,-6235,6153,-754,1664,999
655,-4420,4206,-4587,-1070,-1190,-1972
656,-3411,4723,1221,1922,638,1235
657,-5283,-2729,-3401,496,-1316,-1505
658,5674,824,-1949,-1008,1886,-20
659,-931,2105,-3615,-756,1803,1543
660,5617,-2666,-2551,-1080,-117,1449
661,6924,3591,1389,1846,-800,1808
662,-7320,2827,4687,222,-1813,-476
663,2055,-21,6672,-1502,56,1624
664,-2531,-2096,-5074,1261,-1385,-649
665,-824,2878,1067,-1506,863,-779
666,3911,-3745,2056,201,1902,1901
667,-4618,-1641,-3626,-1275,-941,788
668,7478,-7959,-4954,-1895,-1574,-1221
669,6969,7004,4639,1995,759,105
670,-2648,5345,-4435,713,-1580,716
671,2987,4113,3530,-1505,509,827
672,1293,1941,-2216,1606,1316,-91
673,2132,-4607,5274,569,1384,-1304
674,-5043,4837,6683,-860,1916,-653
675,201,-6286,-175,1750,626,1898
676,-7800,-1050,-7840,1065,473,926
677,4141,-1462,-655,1420,1022,1813
678,-1406,-5751,-5411,1003,607,378
679,7423,-4231,-6780,1642,-854,1278
680,-5562,5186,-6781,1836,1512,543
681,-4429,6794,-4766,-564,919,703
682,-3275,-7254,215,-721,589,-478
683,6228,1489,-5551,632,-1480,-277
684,-1543,1207,-6476,-136,-1577,-1569
685,7054,-7112,1528,-415,-1541,1054
686,5387,-6384,1578,1303,-206,324
687,309,-4805,1515,-1921,84,1814
688,7840,-5429,-7848,1168,-572,-859
689,-2173,-3717,5126,1912,1822,1682
690,-4894,2136,-2075,748,-94,468
691,-1221,-6390,-1874,77,1315,6
692,-572,-1227,84,1126,-1346,1631
693,3275,3689,-2722,-919,1959,894
694,4319,3877,-3752,-1716,-784,123
695,3611,6736,2244,-716,1844,-1025
696,1159,6786,5157,-807,1147,-1256
697,-77,4093,-528,-573,253,-1461
698,5098,1725,-1893,22,225,948
699,-7289,-3662,-6446,651,-980,-391
700,1887,7418,1266,-1984,1956,-1118
701,-2446,-6275,-7218,562,-1848,551
702,-6470,-6764,5078,-1093,87,689
703,-1889,3301,-285,1802,547,548
704,-2288,4699,-4080,181,1422,-1534
705,6247,-3256,-3910,-1179,431,-599
706,3365,-1680,7527,-1395,845,749
707,-6061,436,-3268,1357,1733,-1810
708,-5779,-4521,3079,-929,-1142,527
709,-422,7340,-5523,715,-683,-68
710,6998,7047,1684,245,-329,-893
711,5906,-1109,-1037,-961,-587,308
712,4634,-1751,5686,768,-1484,-1579
713,-5645,4246,3872,1165,-1575,-1181
714,-7626,-941,-7130,-1854,1821,1590
715,7371,-3762,7345,190,1036,1806
716,-3334,-5598,808,1066,575,1955
717,3982,-3345,-2316,-1910,-1302,721
718,-4300,-121,6295,-688,1364,1924
719,-4915,-2460,5895,1178,-537,-1554
720,7664,-3080,-4653,-1000,98,-1519
721,-6006,1391,6011,1108,-1927,-1045
722,4980,-3305,5422,835,1135,1416
723,5809,-5741,7552,1296,-1960,-662
724,6978,1530,7339,-1034,-722,1281
725,-3396,-3732,-2228,-492,1313,1030
726,7419,4286,7698,211,899,463
727,-6671,-7827,-6648,554,245,706
728,-5070,5242,4747,917,-628,1848
729,-910,1276,341,1599,882,-42
730,-1274,5819,7854,1688,1234,-833
731,-42,-3134,7580,1664,-654,-91
732,1032,338,1058,-1592,-945,1579
733,-5722,-4451,296,437,-472,479
734,1328,-2199,1451,-1638,760,488
735,-1740,-4635,7550,-1515,-494,1635
736,7771,3947,-4546,1305,659,1236
737,7016,1880,2401,1949,-1771,1499
738,-3662,4782,-4854,1296,1516,-111
739,-5903,3273,-4077,351,-1358,-1123
740,5497,-3539,4772,1451,1198,-1770
741,5595,5427,-7614,-1915,-55,1346
742,-2419,4330,640,-820,1914,532
743,-2544,-5115,-3286,192,-863,-254
744,5182,-3061,-3044,14,-1140,755
745,7679,7097,-2851,327,297,-968
746,-2475,5476,-4238,1663,1100,541
747,1434,5368,1695,-1014,752,-1604
748,1277,454,1611,-1111,-884,-759
749,-7154,4926,-4016,589,306,680
750,4632,-3821,6322,221,124,523
751,6890,3183,3492,1834,47,-663
752,2346,-1596,7809,261,44,-1665
753,-7816,-678,-7921,1010,282,1377
754,3389,-6274,1236,364,1615,-1170
755,-7849,-3532,2914,1190,1553,989
756,-6480,-947,91,-401,1210,248
757,1315,-424,-4709,-729,-1982,-974
758,6677,-7226,7195,-850,-550,-1873
759,6260,6969,-7019,1149,-153,597
760,3265,-6067,2293,-713,1635,1765
761,6558,3056,2121,1097,303,-632
762,4883,-1107,3661,-649,-239,-1464
763,5291,5195,-2160,807,-132,-235
764,2744,6931,3472,-1605,1402,-1812
765,-1088,-7888,-122,1129,-545,-1019
766,-207,-5118,4903,-1924,-1763,-1843
767,3155,-5456,-3940,-982,1530,1892
768,5037,-3480,7373,-516,-746,-219
769,-2116,-509,496,1188,-323,345
770,4077,-6016,4863,1392,-1880,1766
771,-4927,-7738,-7177,-252,1376,-1402
772,1435,-5763,6010,-625,-808,-668
773,4474,7728,-2886,1007,533,-228
774,-6852,2814,-4562,-497,1638,454
775,-5332,2845,-7838,700,335,-1902
776,-4241,-3792,1292,-834,1335,1497
777,-5852,-2149,-5766,-309,-210,-625
778,-3089,-5128,4130,1756,597,411
779,626,7105,-5330,1000,-873,1188
780,2452,3669,-2173,-713,1924,-1969
781,-4702,-5382,1834,1554,-281,-1739
782,5387,1021,-6712,579,-316,1277
783,1281,3670,7604,1370,-1830,-1799
784,-6259,3216,-5721,-581,-838,-1350
785,-7584,7432,4793,470,226,566
786,7253,1859,4805,-1148,-1220,864
787,-6894,7833,-7024,1021,604,637
788,484,-7177,68,-1095,-1219,-1621
789,5656,-5807,7189,489,-466,-1162
790,-1932,6554,-3620,-236,1567,1618
791,-2484,7692,5589,1353,333,264
792,-470,-3825,-2704,-591,-1427,-5
793,2816,-259,3749,782,784,1301
794,-7401,2522,-7642,231,1858,748
795,2315,-6192,3212,713,-277,-1363
796,-6068,-1818,4906,424,-958,670
797,7175,-3265,-3128,851,874,1215
798,-679,-914,7547,-915,7,363
799,1976,-3134,4197,1853,-967,1108
800,-2302,-3073,6177,-231,-288,1949
801,-7924,-7462,-4878,1233,199,-282
802,5816,-828,-2664,1748,1484,1493
803,5643,7326,3923,1827,-289,683
804,-3538,7111,-2536,1725,1248,-73
805,-7456,-5893,-1405,1086,-986,-1001
806,407,-5038,-3468,675,-315,1272
807,-2059,208,-2973,409,-992,-1812
808,4100,7491,-3847,181,1570,1153
809,4295,192,-7503,591,-1964,-362
810,-7499,-605,-1344,-1516,-600,1810
811,-3289,-3744,-7804,1690,322,-1070
812,-7493,-5170,6855,-1201,-1820,528
813,-4326,-6882,-6066,514,-967,-900
814,-6210,901,-3532,-96,-340,-1374
815,4411,3662,-4312,-16,-1984,-1236
816,3984,5473,431,-1930,-763,849
817,-7179,4968,-7337,-1726,-1020,-226
818,-235,-7931,-1682,-935,1324,1629
819,-3279,4727,2727,256,1396,-465
820,1767,2059,-202,1925,561,222
821,4580,-5868,-1555,-583,-1675,-371
822,-451,6596,227,628,-790,-916
823,3638,2835,-4901,-1943,639,1062
824,5226,-6154,6698,-1857,577,884
825,-3332,3566,-239,-1052,1149,-211
826,2205,4726,-89,1237,1832,-615
827,-6476,-2656,-1033,453,892,448
828,-2544,6909,4918,-1081,-1914,-1084
829,-7014,-2728,-4334,1790,252,-1707
830,7188,2262,-2829,1137,-1733,1655
831,-2120,-2824,4127,971,1969,-560
832,7474,-7812,7966,1387,-100,1244
833,-6961,4683,1325,892,-1877,1993
834,-3973,7710,4083,-1294,741,61
835,-2650,-3790,-7617,-305,1067,-1009
836,6644,-4341,1368,1673,1032,-854
837,-4612,3862,5583,-752,-224,1413
838,7679,786,3074,-1052,1334,-595
839,1611,-1112,4570,907,-1982,-1552
840,-6659,-1517,-6428,1732,1820,-293
841,7422,-1346,-4173,1373,-1438,797
842,-1571,747,4747,1531,165,938
843,-1836,1126,-5539,593,-1385,8
844,2728,4927,1229,-123,-366,884
845,-2315,-184,7270,1230,815,1160
846,-6265,-4864,-5535,1416,-713,753
847,1901,5242,-2972,734,1649,-1868
848,-7283,98,1494,-1680,170,1548
849,2750,-6679,7508,1865,-815,-1493
850,4298,-1961,4283,394,1477,-1303
851,1606,-6445,-5495,755,965,-1283
852,7454,7610,3776,312,653,-461
853,3968,-3120,-7912,-627,-1660,-866
854,7042,3516,4915,1134,-213,368
855,1069,-6385,-748,-262,-197,1534
856,-1361,-2735,1610,-778,-856,612
857,-1134,5478,-180,-1969,-504,-111
858,-2589,3166,-5302,-1294,353,88
859,-5533,-4981,4288,-1398,1257,-1808
860,-3781,-6118,-2500,1369,-1963,2
861,-3450,3882,-5933,939,-702,1655
862,1573,-3932,-7513,916,1491,-1189
863,3641,3157,-1640,958,-239,482
864,3723,-2246,82,764,-745,-1823
865,5673,3677,-7876,-1575,-476,-1844
866,650,-751,-3380,1980,1178,1583
867,-7465,-1711,5695,-1818,-389,-55
868,3249,3123,4208,965,592,-1031
869,-7526,3790,-7265,-2000,-922,1467
870,-2491,-3224,-4646,1335,-277,1523
871,-148,-842,7743,1568,-1002,1891
872,2407,-1129,7413,-1921,-1297,1085
873,-7477,3479,3625,1058,1314,1741
874,-3751,-4145,-4480,-1037,135,77
875,-5653,-7895,3603,215,1669,800
876,-1844,7958,-7193,-48,-1143,1102
877,-5765,-115,-661,-352,-652,-1353
878,-5019,-2933,-5066,1702,827,1926
879,5964,-5277,7223,-1990,1999,1472
880,-6304,2496,-529,825,1376,-1248
881,6946,-236,-1172,-1698,1457,-188
882,6051,6636,-3813,-222,-1074,1137
883,3471,7946,-6587,1051,841,888
884,3779,7215,5280,199,1156,-1319
885,-7768,-1372,-7453,-162,155,-811
886,-4952,-2376,2248,-1950,-1039,875
887,-7701,-4444,623,199,-1853,-977
888,5489,2054,-421,-1167,540,714
889,-3978,-4096,-2827,1763,1364,1119
890,-298,-4568,-7057,-1374,64,-677
891,3358,2835,-6946,-1628,-459,-1641
892,4510,373,-3451,-933,219,-325
893,-7975,6574,-4816,-996,-1894,1056
894,-630,1722,4632,1288,1119,-740
895,-6679,2144,-7883,950,1265,1974
896,-4191,3584,618,-1729,-393,-1706
897,-7039,-7173,-2941,785,-1733,1455
898,-2460,3561,-5182,-298,1684,1886
899,-349,3250,-6880,-91,984,133
900,5088,335,-6580,1412,1588,742
901,6893,-7054,-5299,58,-1500,532
902,-193,-7031,5365,1599,-1326,-264
903,690,4931,-3106,1834,1593,-1898
904,7710,-4531,4008,792,1261,752
905,1595,-5404,1178,-69,-1040,-1138
906,-2502,7178,-1504,78,380,1868
907,698,-2479,6487,-1698,1429,776
908,-6475,1484,-208,-1686,38,262
909,4059,-1038,915,828,1782,243
910,-5215,4471,-5628,101,-564,1419
911,-2775,448,-591,-490,-772,13
912,-2419,1798,-4532,-1577,402,-17
913,-6316,-4961,-5240,920,-1915,-1169
914,-7193,-4690,-6183,-1210,-1325,-444
915,6157,-7636,-5362,1531,1864,-625
916,-7747,6332,7956,987,-137,-1561
917,2167,4920,2382,-1906,1435,1658
918,-2221,-7132,2741,-439,165,-474
919,5563,715,-5389,773,-1789,-1076
920,-7912,-7996,1404,-1431,-789,-1681
921,4773,4311,-6755,-1331,1694,-1269
922,-2290,7711,-5703,1581,603,1789
923,-1806,6088,7283,-1535,-1915,509
924,3624,1724,6231,-1598,-1260,745
925,2459,-978,3356,-305,249,-1891
926,3702,-6977,2342,920,-1753,503
927,-2413,-286,-3610,-48,-1925,-1092
928,2442,-6470,-7704,1564,1325,-461
929,-3021,2029,-4297,1613,-804,-1745
930,-7867,-3091,-7961,207,1742,-1300
931,7437,5318,-6904,1139,418,135
932,-1133,3639,-157,-1945,-1479,-1183
933,-665,-4409,358,-413,-1548,-54
934,6847,866,6708,-558,631,-1293
935,3790,-2859,-5498,1419,-1559,-1107
936,-197,-6311,3068,1143,-660,1568
937,5666,-4020,-3790,-515,-1114,-1903
938,-54,-5010,5991,207,-387,831
939,2404,-5448,7949,-849,-202,-745
940,-40,-7588,-2625,1615,183,-69
941,7621,-4134,415,1705,1953,1334
942,7625,1474,1500,1067,-153,-829
943,1863,-1873,211,-594,-931,-254
944,3865,5313,-6674,-1383,852,115
945,7307,-2176,-7670,-1556,-1156,-1395
946,-531,-2453,5382,1605,758,603
947,-2433,-6733,3709,-283,-98,-1470
948,-1057,-3380,5025,302,-227,-1852
949,4303,7910,-5078,221,1384,-148
950,5401,3178,1684,1010,-703,-567
951,7166,-4005,-912,1998,-1939,-1451
952,-5751,-4433,7042,1236,733,-1515
953,4202,4775,7062,716,-871,1426
954,-4946,6574,2902,-745,-1025,-333
955,-1346,-5030,-3085,1629,-1577,964
956,6887,3961,6812,-429,-555,-714
957,-7124,-4936,754,-718,-1957,-1112
958,4169,1928,5068,1082,-1548,-769
959,2573,-7011,-6378,-219,-187,274
960,-7880,278,-4757,-301,644,1532
961,-893,-7651,4689,-149,411,506
962,7726,6359,-6042,-921,1088,-703
963,5505,6495,7113,908,1008,-216
964,6478,-2531,5964,-1415,367,1253
965,4382,-7200,-4480,-1522,-1973,-768
966,2981,-6082,99,665,390,-273
967,4798,6482,2561,557,436,-1360
968,-1157,-1218,5318,-1586,883,1076
969,5333,-6575,-2099,-1167,809,-182
970,-2334,6621,6702,266,439,413
971,-2279,-6822,1290,648,-1254,1063
972,3541,-6811,-2369,211,441,-492
973,-2097,7050,-4657,59,-1857,-1923
974,7527,6,2840,1369,-173,362
975,7131,-1536,-3972,-363,-976,-1607
976,-6362,-5800,274,-1841,-959,1616
977,3067,1577,-3894,-1489,-485,86
978,6788,-2354,949,1923,-680,1864
979,287,1134,-7313,-1756,1046,-997
980,7874,-4918,1983,-400,1127,-510
981,-5378,-7851,-2255,877,836,-344
982,6182,4714,2687,1410,-137,1505
983,5773,293,-2330,1977,653,1226
984,-1806,34,-7703,-608,1657,-188
985,-1579,6412,1970,-1763,100,236
986,-7682,-5092,7137,-989,63,1091
987,-4956,-5566,-6681,1850,-739,1860
988,1674,7336,1249,-1607,-1692,1025
989,4625,-6210,-3506,1015,-192,581
990,6379,3047,7131,-1808,-1880,30
991,-1852,-1620,7329,1053,-235,-1686
992,-6331,-475,4448,-1616,-121,1289
993,3264,-7661,-4071,1274,-1610,-1326
994,7983,-3706,3246,730,-1437,-1945
995,1405,-5833,-990,-314,1163,-498
996,5551,-4522,260,1274,1332,35
997,-1508,4746,4043,-1888,-896,1432
998,5312,4698,-5765,-557,-1360,1692
999,1073,536,-4631,1716,-1725,1981
1000,3374,-7784,6678,596,-1926,-80
1001,-2229,-6262,-4047,1409,-298,1781
1002,6501,3915,1157,-1517,1164,781
1003,36,3279,183,-1129,545,1828
1004,-6004,-7169,-4063,1977,-1678,-160
1005,1398,-7452,3752,-1899,473,-1622
1006,-517,-4831,6531,486,-1231,-537
1007,3727,5070,4844,-744,-334,-191
1008,-1616,-2902,4632,-1811,1078,-1856
1009,7675,3545,3150,-734,187,676
1010,-1982,-6391,-2501,1165,-319,-525
1011,-1016,5599,-5925,-1724,-1052,426
1012,-3833,156,-1308,-1349,-417,-683
1013,-3666,204,6647,1122,1563,1125
1014,1514,1583,5517,-423,447,492
1015,4586,-7698,-7938,-1345,-722,74
1016,-1609,-1405,4653,-578,291,1448
1017,-7341,2125,-2489,-1172,1306,417
1018,3782,5335,-1407,-1066,-163,1125
1019,5318,6273,-1426,-919,1433,-1105
1020,2871,6421,-3446,-982,-1853,-1770
1021,3912,7390,-7403,590,1220,1187
1022,655,-4783,6163,1850,1357,1339
1023,-5021,154,2449,-1391,-300,-1882
1024,-4998,-3408,-5135,-190,-73,972
1025,3978,4194,3744,416,503,-952
1026,-1247,-6187,2421,1075,392,-1857
1027,3920,-6006,449,-7,-693,-894
1028,3662,-7744,-1932,1169,1337,-773
1029,630,3996,-5590,383,-1705,985
1030,6044,-3521,-5579,-982,1489,923
1031,5477,-6801,7912,1897,-1518,1557
1032,5635,-2882,1714,1983,122,785
1033,-226,-7662,7578,-1394,-968,1246
1034,-6988,2371,-6210,338,376,852
1035,-2136,3188,-5280,-1952,491,-1594
1036,5021,1754,-6451,-1941,-1652,-624
1037,-4141,-2236,-338,-1960,-1537,828
1038,4553,-2008,3518,1108,496,1440
1039,-1426,-738,3404,-1171,-577,-1033
1040,-4677,-588,-523,-804,1866,1200
1041,649,-4220,-4245,-1409,245,-289
1042,-7948,6965,6840,1464,403,970
1043,-6236,-5826,4155,-1267,884,666
1044,-1377,5330,-4783,-1831,1543,1273
1045,-2524,3999,-4143,162,-560,1826
1046,4347,-1036,5519,-623,382,1842
1047,6424,-7006,6851,-1123,438,-186
1048,5169,1741,-1616,-213,-1222,-1
1049,-3678,2747,-849,-1195,409,419
1050,4085,-7300,629,397,-78,-1018
1051,7661,6632,-4044,-975,836,-1089
1052,880,-6086,7288,-1782,72,-1253
1053,-3727,6601,-1531,1963,309,-1941
1054,-2084,402,2367,1824,429,1336
1055,-4842,139,-805,-197,1297,-173
1056,6425,-7627,-2986,1719,-1643,-1790
1057,-4660,1441,5890,-1844,1044,978
1058,-2613,-7067,-5756,-1674,-252,1381
1059,-4616,-4429,-5926,-710,1146,1508
1060,342,1267,5617,-87,-1665,84
1061,-1728,-1539,6320,-1817,-226,580
1062,-3277,7304,1668,1215,-1837,409
1063,642,-3729,-2880,-1296,1051,1741
1064,-4926,514,6258,-1433,951,-1777
1065,-4506,1588,-7850,1066,-281,1884
1066,464,4404,7429,-1372,-1112,-1536
1067,1954,-7382,-4145,702,515,-1787
1068,4560,-2082,-5589,206,-276,434
1069,5993,-1946,-6776,-51,-659,-1571
1070,5933,1185,-4536,1819,1236,356
1071,-3405,1994,-2540,-1923,181,419
1072,4033,-861,4067,1575,569,844
1073,621,-3723,-7079,-160,1320,-160
1074,-6539,-5837,4154,1988,745,-140
1075,4440,4208,1912,-1011,-866,689
1076,7286,3786,106,185,-30,202
1077,-305,6691,6690,1415,563,-1197
1078,-5798,-5197,991,398,713,-653
1079,2027,-3381,1588,1625,1446,-696
1080,-2959,7184,7220,-1543,-890,-257
1081,-3959,-6019,-24,-405,-1881,455
1082,-2494,5785,-1053,483,318,1861
1083,-2418,-1327,4244,492,1865,1104
1084,-6624,-287,6271,1977,666,875
1085,5655,7888,4192,-1435,-819,1025
1086,6207,4920,-3753,1538,-1069,1172
1087,-353,7170,-1767,1509,1583,-1934
1088,5331,926,-7013,897,-821,-709
1089,1099,-6199,-6894,1398,1092,-1181
1090,-282,4596,2044,-1856,1257,113
1091,1611,4677,-3799,1949,-794,-1864
1092,-7242,-3491,7712,-16,-1928,-436
1093,-1758,2381,-3527,971,950,-268
1094,-7971,-3489,7659,-56,-62,-865
1095,-4540,-544,2154,79,1835,66
1096,2528,3408,4842,722,409,667
1097,3301,-806,-1470,-71,743,-625
1098,7709,-1919,3190,1652,-1646,1788
1099,-1639,-1461,1712,132,1338,1589
1100,828,3422,1326,465,-178,1216
1101,-23,4474,4079,-1546,-211,466
1102,-6331,4670,-4075,-104,-185,-226
1103,-3050,-1596,-1123,1373,1959,-1786
1104,2240,-4913,-2248,-1884,122,-1543
1105,-5630,-40,-4374,-1333,-1891,-1974
1106,-6240,915,-3835,1259,90,-1819
1107,3967,350,1434,-907,-988,-1262
1108,2202,-6864,7084,1562,1232,-742
1109,1069,7358,-501,-1056,1678,22
1110,-1111,3153,-6723,1698,1635,-1193
1111,3288,2296,-1083,1198,1183,1773
1112,-1444,7557,-1565,407,-1802,-1892
1113,-7950,3875,1902,1290,740,1148
1114,-1652,-300,-1224,17,-1594,-681
1115,2087,-6578,1869,573,1765,1389
1116,-7642,-7233,343,1114,-1601,204
1117,-1972,-5342,-805,-1584,-1731,-883
1118,-2888,-6607,448,-1849,122,388
1119,-1157,2280,3985,1046,-577,97
1120,4402,5602,990,1054,-1322,853
1121,-2515,-6332,4725,-1295,-1123,-1803
1122,3097,7246,5833,-451,-1453,1408
1123,-1993,-7718,349,-1085,1118,-1008
1124,1072,-3429,7379,157,-411,1187
1125,-317,5330,704,-1448,1600,1576
1126,5850,-7642,-6435,-1342,-1040,-1811
1127,7139,-4186,-2963,1881,1196,291
1128,3634,-837,416,-1308,1746,-1140
1129,-809,3091,1049,672,-894,-354
1130,-3304,-6681,-6420,338,208,-1796
1131,1510,-1540,6983,-1806,-1954,1161
1132,-1958,-327,-4486,1883,1599,-183
1133,6651,454,-1168,-1241,1266,1672
1134,-2214,-6413,-1412,-206,-1601,-673
1135,-6423,4252,7856,891,1629,654
1136,-1832,-6420,-7422,-939,-471,-1192
1137,-1766,1069,-4243,-1319,-1792,-1409
1138,-5572,6939,1573,-994,-84,-22
1139,1696,5619,7854,1488,633,-916
1140,7529,-2780,-478,-1734,-1866,438
1141,3231,-5165,-434,990,-634,285
1142,4627,3103,-6461,-1506,1111,360
1143,-7190,-7786,-2120,1136,-1395,443
1144,-3280,4414,7099,-652,1842,-1850
1145,3870,861,-5281,480,-857,1906
1146,1114,-1925,-7636,-1998,165,-1459
1147,502,2884,1633,1791,1268,1077
1148,4978,1860,3401,1654,-1850,1084
1149,-5220,-5866,1734,1766,-1934,571
1150,-2171,-7485,1266,846,1498,-1215
1151,-1870,5556,-7716,-1125,-5,862
1152,7480,-2078,5185,-185,1244,-147
1153,-5463,639,-7365,1216,1301,-237
1154,-5380,6765,6302,-1703,835,-541
1155,-889,153,-6305,1742,-86,-1939
1156,-2410,1504,3054,551,13,-1258
1157,2846,-7138,638,-1597,-1808,-222
1158,2826,-1358,6028,-796,-608,1936
1159,-760,-6078,-2069,-839,-447,-869
1160,-1683,-4909,-2398,73,-1336,1110
1161,7672,-2980,2377,-89,-1014,159
1162,-5663,5311,7601,1289,582,-158
1163,-2482,1280,5120,933,-1486,-1101
1164,-2808,5211,-4593,-1326,-1566,1435
1165,2070,-6653,7584,-99,-436,-1921
1166,145,-2432,1000,1156,-1219,1371
1167,2394,-4611,5578,927,-905,-482
1168,-4689,6193,-4944,-707,-422,-1429
1169,1878,2115,-1498,-193,-216,-1436
1170,-7878,6582,-7046,1951,56,1048
1171,4476,-3271,4155,-1279,-1940,480
1172,2868,2322,3369,-1598,-1340,1232
1173,-7549,-4049,6903,-1060,124,-475
1174,-2852,3331,-6288,-700,1824,-54
1175,6685,7274,2165,-1202,1159,-778
1176,134,-360,-5850,-1556,910,-1282
1177,-156,7487,4178,-483,-161,-256
1178,1324,1335,1368,-1115,-560,-265
1179,4671,-4463,6701,1150,1135,1664
1180,6960,721,630,-39,-1376,1095
1181,-4545,-515,-4375,-1991,-627,1171
1182,3208,3837,-561,447,-1934,-1306
1183,-2894,-3650,-7945,-1731,-923,-73
1184,-4459,-5535,-5574,-513,1266,1557
1185,5885,5412,-6445,-237,335,1556
1186,277,-3767,5018,1591,-1816,-1998
1187,-6758,-170,4954,-1241,-1832,-1432
1188,5333,5628,1920,-859,-1355,941
1189,-403,1494,-5601,-860,378,1724
1190,-6303,-2978,-6989,1514,-534,-562
1191,2332,-4785,1150,-1483,-395,429
1192,-3213,5812,4286,1412,998,-1218
1193,7592,-1726,-5456,-568,-404,306
1194,4926,3011,-1840,-1314,-1671,229
1195,3728,3226,6896,1639,-1650,-613
1196,5594,-1583,-7649,-1312,-11,-1124
1197,6177,-5425,-1041,-1604,-1187,-347
1198,-4952,-909,-4656,-986,1355,-1966
1199,-6760,-4049,-3394,-280,522,148
1200,7464,5151,226,913,1417,1422
1201,-6632,-5231,3817,1840,1268,-999
1202,-217,4244,7974,1145,456,464
1203,1979,-5843,-3817,-1780,-1171,-771
1204,4775,-3223,-7661,-84,-1517,-585
1205,-1462,247,-4025,99,-1681,1764
1206,-3765,-2683,-1999,1468,941,-597
1207,6954,7285,-5712,832,1131,-913
1208,4105,2474,-2261,206,-1496,-465
1209,-5715,4958,-7492,568,-1337,-1397
1210,-6784,-7001,887,-1477,-1493,-1429
1211,-6427,6857,2162,1401,468,1708
1212,-7125,-7185,-2256,-116,-381,-346
1213,5840,2786,-7054,-642,247,-1281
1214,-5286,4629,-337,407,327,1072
1215,-7943,-4568,3581,980,-1409,-733
1216,-3387,4375,-4524,-1539,838,-896
1217,-4695,5308,1701,1451,533,1120
1218,-5249,1333,1806,-1831,1353,157
1219,-5480,3375,-5114,1969,1238,-324
1220,282,-2841,1845,1477,507,-1854
1221,-51,6884,-4102,451,1440,-167
1222,1176,2280,6297,-1711,-475,262
1223,-7361,-2745,5997,-1997,71,-1512
1224,-1333,-4647,510,-625,343,1777
1225,-7850,-4887,1291,-773,-882,-340
1226,-7787,-5196,-1637,-630,-1079,25
1227,3530,-1724,-1880,-273,-301,1169
1228,-3442,-3148,3320,412,-1322,-1388
1229,-2051,2347,4313,1776,-1402,1659
1230,6072,-1275,-2383,2,1158,706
1231,2115,-6448,3310,-1432,564,-1777
1232,5861,-7135,-5764,-1719,-744,-1403
1233,-5505,-492,3187,-1217,552,591
1234,-138,3981,-5212,-437,220,1545
1235,-4151,3873,-6120,-754,-1043,1080
1236,1268,-7693,7314,1937,-1099,-1206
1237,-3637,1067,1150,333,1092,872
1238,-5626,-7594,1075,906,-894,-348
1239,2757,-7929,-2466,-1022,-1067,480
1240,-3786,-6152,2130,1770,-1897,-1336
1241,-2586,1812,-6203,-37,-1391,-936
1242,5411,-3613,1545,19,-1075,1615
1243,2335,-4986,-5765,667,1883,1174
1244,7388,2953,7601,-770,-1113,1382
1245,-6778,-1390,7510,586,-652,333
1246,6063,-1580,-3373,-226,-1052,-1778
1247,6909,-6291,-6352,1654,-1086,1291
1248,-2608,-5686,1696,-1841,-1547,1896
1249,-6549,5285,3921,-307,-124,-1073
1250,2587,-7390,-2784,233,-556,1962
1251,-7810,7108,4495,-623,402,1749
1252,-3624,3634,-5957,939,-1127,-715
1253,3832,4574,-7105,-761,187,-1798
1254,-1726,-6139,1052,691,-547,532
1255,-303,3472,6207,164,-1693,-1618
1256,-625,-6772,-7115,520,-1699,1118
1257,6380,3780,-4652,-347,990,690
1258,7747,-4215,3218,801,1010,-631
1259,4750,2954,206,-1741,730,1814
1260,-1203,5559,3269,-866,1847,-1102
1261,3324,-1071,-2495,1620,1983,1077
1262,2751,-3380,-478,1474,1052,999
1263,-1432,1510,6577,1047,1340,-184
1264,7273,-2498,-7918,117,397,719
1265,5649,-6576,-6500,-429,-175,1686
1266,1449,3040,-485,-804,-1868,-1825
1267,662,6764,6590,-464,-753,-476
1268,5596,-7813,-7485,1271,-1637,-1464
1269,-1533,6538,-1,1092,-733,859
1270,-1899,2193,966,-1191,1945,-106
1271,-5039,-4110,-4828,1745,1093,254
1272,-7455,-3913,-5555,-1375,1934,-1012
1273,2331,7846,1735,-982,715,1288
1274,5640,-2688,5854,741,-184,923
1275,-7593,-776,611,-175,365,464
1276,-6915,-132,-4815,488,-328,172
1277,-3592,-2942,1137,-666,-382,1644
1278,-645,1019,3730,1253,1923,-1665
1279,-2627,703,-3465,-253,-1225,864
1280,-6255,507,5154,382,394,1929
1281,3950,2068,6167,-449,660,-695
1282,-306,-2147,7056,930,-241,-47
1283,3405,7412,-2745,965,-1179,815
1284,-3938,3337,6546,162,-1179,-590
1285,457,-3741,-3149,-661,-1854,665
1286,-2822,392,-2117,1972,973,507
1287,3902,-4157,-3044,-1120,377,-1644
1288,4890,3929,7525,567,1007,1936
1289,673,442,-152,701,56,1702
1290,3404,-576,5011,-1099,249,-324
1291,4165,-7038,1702,871,227,1936
1292,-7593,-920,7861,408,151,-1156
1293,3120,3783,-4602,-286,-1268,-1582
1294,3639,-6651,-5307,1565,-560,-70
1295,2065,2668,-5134,895,-1545,-453
1296,3289,5342,-6376,-287,423,-1540
1297,-1876,-35,-2278,-198,945,-1341
1298,-632,-7993,5754,1673,1807,-95
1299,1362,-117,5444,-1382,-676,676
1300,672,-5437,-2315,832,-1959,1056
1301,7319,-7112,3282,-354,826,-765
1302,-693,1156,7375,-1894,1389,-1828
1303,-3114,-7836,-1433,-1820,85,1590
1304,729,5762,-2936,-1037,150,1751
1305,7907,5169,-3220,-1894,-1102,1472
1306,-3038,3681,-1525,-94,538,681
1307,-3696,307,2234,-33,-1323,1375
1308,1472,2706,5325,-1552,26,874
1309,-3516,-2941,-1603,1219,319,-1029
1310,5950,-472,-939,317,767,-125
1311,6825,-537,-1780,1788,-807,-223
1312,177,2272,5601,-297,-1429,-1511
1313,-1704,7495,-3151,-1650,-154,1665
1314,-4016,-5582,3059,466,1618,-469
1315,4635,806,-5067,436,-1935,-473
1316,6728,7297,7341,1353,-1229,221
1317,-4398,-4528,34,1979,1418,-698
1318,-299,-856,1205,1873,-682,467
1319,2936,3558,343,111,143,-16
1320,-3186,-3302,1407,616,-277,1854
1321,2332,4873,889,901,933,-1224
1322,510,6696,6202,451,-1692,1916
1323,7872,7444,2652,101,1494,1205
1324,4750,6727,1633,360,152,148
1325,-3428,2367,-2483,-1239,897,956
1326,-4988,6623,-1707,1093,-50,-320
1327,1786,-5130,6592,58,239,80
1328,-2178,893,-3738,21,227,1465
1329,3630,3726,7050,-1369,594,1970
1330,-3578,4535,6656,1674,1649,224
1331,6730,-697,-1845,793,-584,-1443
1332,-5302,7629,2576,179,1419,783
1333,-2663,-1305,2030,1436,-1604,-1317
1334,2122,1515,-6364,15,-1645,1280
1335,556,-2201,-109,364,-894,-670
1336,-5194,-4547,-3292,-1667,-964,-1654
1337,1748,-3542,-6593,-1428,1354,88
1338,1459,448,-5093,1613,-951,1669
1339,-5938,524,-2539,285,-747,-94
1340,-1045,336,6276,-468,-897,779
1341,7812,-4035,-810,-1140,-418,1921
1342,7561,389,951,1297,14,289
1343,-4036,3976,4761,1800,-468,1233
1344,3158,5647,5223,-292,-306,-1032
1345,1885,-5616,-744,68,1091,-1315
1346,4857,-4084,-2235,773,-1731,1736
1347,-2104,6443,4429,-239,556,-1745
1348,-7650,5930,-7685,680,270,155
1349,2665,5156,5062,-540,672,1784
1350,7315,2759,5019,1601,1751,1290
1351,6394,4713,-7747,-254,-1190,-960
1352,7731,-759,-1684,583,1388,-1082
1353,7936,-1891,4825,-352,-1183,1292
1354,-767,7280,-4626,1534,-1696,-619
1355,5492,5743,-746,-145,-1772,1018
1356,-7470,3205,-3409,-1488,-160,209
1357,6159,-3983,7798,1715,1566,-1705
1358,-2192,208,5133,1547,-718,985
1359,5138,-3966,-2159,-1298,1765,-536
1360,4921,6636,3060,1706,-1581,-151
1361,4291,-3067,-7883,-1970,420,770
1362,-2824,-3257,-5952,-217,-1224,1995
1363,4876,4816,5919,-623,117,-494
1364,-3531,-730,-2650,-1547,1292,919
1365,5497,150,4895,1040,769,-977
1366,-6212,52,-316,1035,-1155,1488
1367,-5008,-4559,-6328,272,-443,-557
1368,-5838,7837,-4085,1930,-1654,282
1369,5884,-5549,-4889,1837,1334,-560
1370,5920,-4212,-7505,-1141,1536,-1243
1371,7016,1033,1289,1802,729,-1018
1372,7551,-5724,81,-1780,15,941
1373,-7041,-5424,5637,1974,1859,-634
1374,6653,-857,1627,-1562,1626,1447
1375,-7305,7537,4340,-308,1130,1026
1376,-6610,-71,-961,-676,137,-641
1377,1046,5098,3045,487,-1938,-1520
1378,4538,6565,-289,45,-1575,-1621
1379,6006,5951,-1982,1017,1071,-363
1380,-2313,-99,-7680,-576,826,1686
1381,4321,-5732,3084,882,651,-1322
1382,1242,-2242,-2880,-946,1390,-1135
1383,772,-6570,-1526,-1966,-1484,-1721
1384,-6877,3936,3404,642,1079,1517
1385,7961,3085,-1937,-414,-98,1695
1386,-5266,-2798,337,541,857,537
1387,7481,938,3617,643,-881,1374
1388,2196,7989,-4607,1213,1401,1990
1389,-2185,7489,-4654,480,1576,-661
1390,-278,3865,4732,972,645,663
1391,4275,-2746,3828,-406,499,-1433
1392,-1829,-6279,-6295,-423,-480,-645
1393,3654,-5139,6527,607,1361,-1900
1394,-1011,700,7568,580,224,500
1395,-6807,3854,5369,-1617,1480,-1928
1396,-5765,-4752,-7711,-1233,-1451,457
1397,5351,-1967,4617,-694,1221,108
1398,7286,-4441,-7103,-81,-386,-192
1399,-7485,186,6974,-1789,550,-1995
1400,706,-1608,6272,331,-644,743
1401,6835,7415,1232,-28,596,1215
1402,3560,-5057,-5347,202,916,12
1403,1496,-5290,-349,1195,459,-510
1404,-5237,-6763,4734,-971,-628,1015
1405,-3908,4472,-7549,-196,-1375,-92
1406,126,-1966,-174,-1060,1231,1657
1407,3361,-6457,-7228,-708,-114,-404
1408,7372,-3504,3431,-1341,1432,-384
1409,-7117,2987,-2187,547,540,-1482
1410,3150,7613,4551,513,-61,-1166
1411,-6589,-5104,3485,1928,1008,726
1412,-2491,-7047,1818,1461,-663,-321
1413,-34,7035,-5618,-1355,-314,-362
1414,4931,5294,603,-770,-633,1151
1415,1266,5924,365,-992,-1957,-1384
1416,1210,-5528,6952,215,-1015,1130
1417,-4072,-1732,5719,-1291,243,-574
1418,-4741,6939,215,-1040,-786,1920
1419,5225,-1324,-1408,-88,472,-1690
1420,1025,-4375,3897,-1533,-304,758
1421,1922,5415,-1434,1896,1200,242
1422,-5558,-1823,-6076,-987,-1871,-10
1423,-263,3233,-6525,-1855,1801,1186
1424,-2154,-6744,4720,1352,-1766,1561
1425,-3192,2496,-3494,-55,628,1375
1426,3653,-4121,1253,1091,1499,-1848
1427,7163,1983,-6128,-290,741,6
1428,-5464,4487,5638,1190,836,-1963
1429,4672,4697,-4722,-666,1785,-1077
1430,194,6919,-475,-683,1799,1190
1431,1103,866,-3315,1359,1762,1368
1432,-3103,-2227,7762,-1678,988,-1212
1433,-7968,-376,2759,1248,1130,-116
1434,6762,6468,-4907,924,-1893,563
1435,7418,7375,3656,3,-1912,713
1436,7064,-857,3945,758,-1556,1034
1437,6303,-5307,-493,356,1939,117
1438,531,4160,-732,-134,-330,402
1439,1255,-5024,-204,-1080,1492,-727
1440,-5765,-2223,1554,1337,1755,-1568
1441,-985,7912,-1756,-1176,-112,-305
1442,-818,3581,-4728,1004,1314,913
1443,7282,732,-492,-171,-1617,336
1444,-3089,6442,7787,-1709,-707,90
1445,-5686,-1495,-1089,-1342,-1788,127
1446,-7117,-470,-7578,-162,1796,1008
1447,1981,-4825,1355,-1389,183,-79
1448,7561,-459,5107,23,-1030,1900
1449,-6331,5922,2334,1348,1344,-254
1450,7596,7502,2011,-739,940,1506
1451,-6445,-3114,6068,1666,1401,-1986
1452,-7317,4142,-2025,-273,-1942,-1261
1453,-4717,-4383,-3788,1543,1493,-694
1454,-434,6413,1396,1152,676,-1421
1455,4676,-1382,2345,-1362,1884,330
1456,-2375,4019,4931,98,515,657
1457,-2574,7548,-7719,-1442,1444,-1990
1458,3454,1748,-1366,-54,-1801,1778
1459,-5483,-7322,-7484,1883,1813,-1074
1460,3962,-1298,1522,-180,-1127,-1412
1461,-3763,-2488,2129,268,1929,412
1462,-5343,6048,-7393,228,1674,-1269
1463,-1809,7945,436,1937,517,-512
1464,6160,-2736,681,1602,-588,-873
1465,1353,6621,-6755,-793,1907,-713
1466,6180,3501,1073,1799,-1422,-117
1467,-1938,-7174,-4327,126,-417,11
1468,5031,-5511,7157,878,-1991,1248
1469,-1817,-181,-4949,1,-1787,-725
1470,2175,1537,-744,1018,1954,1305
1471,-5031,-7141,-7899,-1573,-1026,-1814
1472,6311,-6297,-79,774,1977,-910
1473,3133,5320,1975,-1182,-969,1993
1474,7168,-6419,-2427,-1571,-1715,1849
1475,-633,-539,-4458,-33,-1551,-820
1476,2835,689,7450,-494,839,482
1477,1991,2188,3911,-1883,-1412,-182
1478,-136,-2315,5196,284,-647,815
1479,131,-4048,3953,-775,-204,595
1480,5713,1475,-3020,1573,-1508,356
1481,-4662,-5978,-2785,-1716,-1495,1914
1482,6545,189,-3453,-929,1052,-608
1483,6451,3806,-925,1005,-504,-1339
1484,3306,-2322,-6238,366,1450,809
1485,-376,3592,7371,1075,1946,367
1486,967,4523,-3310,1168,-28,-286
1487,7183,5781,-3071,-963,156,1446
1488,-6619,5018,-852,991,-819,1731
1489,-451,6638,-62,1301,829,559
1490,-3001,6261,663,-1947,-1370,1391
1491,-6398,7182,-417,-947,1803,-1603
1492,-7234,6646,3330,28,-1778,-1971
1493,3848,6409,-4322,1490,-1648,-859
1494,-4573,-486,-4194,-1891,-71,-1029
1495,6298,4718,-697,1269,-1494,528
1496,4976,4773,4758,593,-1831,-583
1497,-3021,-3589,4489,31,-1867,-1706
1498,1252,-5470,461,447,-1771,53
1499,-1867,-7209,7107,-1300,-1509,285
1500,5525,-1405,4917,463,1337,449
1501,-865,7726,3480,-486,430,-309
1502,1265,5992,1563,542,-1176,1988
1503,-4729,-2940,2977,-700,1384,525
1504,-5393,-2934,6866,-1415,-425,-199
1505,-3071,-6621,6235,610,-1476,1970
1506,-7978,-7295,934,1134,713,623
1507,271,-4252,5963,-1924,-843,1890
1508,4063,-7582,-6031,-277,0,328
1509,5629,-4633,-692,1002,365,970
1510,304,-961,-4451,608,1107,1582
1511,6911,973,1319,346,-1397,1114
1512,-4768,-6375,-3505,145,729,461
1513,-7334,2973,-2115,1236,1768,-460
1514,3816,4166,-1968,1120,-1656,1366
1515,2805,602,3174,-752,593,308
1516,-5962,-1429,6938,-1233,-538,505
1517,1240,169,-5378,-1611,-1709,498
1518,-1634,-5167,1530,1768,882,-682
1519,-148,-6240,3491,1542,814,-1502
1520,-3781,3611,20,719,-1730,-1873
1521,5030,3906,-5889,92,763,-1424
1522,-3897,-951,7754,-1948,-1597,-872
1523,2074,7999,-3904,-1082,-754,-1979
1524,-6941,6959,-1366,1819,675,533
1525,7980,1612,-938,-1327,578,-1610
1526,5153,-4511,-6286,-1414,-1842,944
1527,7353,-11,4496,-187,1064,-1203
1528,-5610,-1514,3007,919,-1943,150
1529,-2375,103,3743,-223,-1784,685
1530,2139,-1947,-3791,-492,1391,-635
1531,-2726,7057,-6290,-748,830,177
1532,4565,-1035,3028,-292,1062,-591
1533,4579,5063,3920,-1022,1106,-1249
1534,1696,-1277,-5004,-321,-97,1940
1535,-1146,-3084,-1253,-680,-1121,-1116
1536,-4829,-7951,-1050,1276,-119,-1114
1537,-1464,4970,2714,-1304,-774,-477
1538,3604,4082,-4315,-604,-1959,-109
1539,4339,-118,6929,-598,-46,-1128
1540,7738,-4065,-563,-1763,-1690,272
1541,5548,4282,2140,721,9,1564
1542,2432,-3094,5903,-671,1124,727
1543,-6129,4401,4331,277,-683,-1394
1544,-2649,-7301,-7204,-1495,1560,-1447
1545,-7700,1994,-7131,146,-1037,-1148
1546,6890,-4681,-4493,1958,-1637,1190
1547,3152,-6441,5217,256,390,28
1548,-4462,-2514,-1486,499,596,406
1549,7076,-6602,-4904,1597,-215,1089
1550,3403,5054,-4710,-1624,1323,-1286
1551,-3091,-379,4296,-1020,-251,315
1552,3405,4576,-5548,-881,-644,1887
1553,2322,-3662,2463,778,-1213,-496
1554,1963,-7601,-4124,-227,1251,1350
1555,5359,152,-1738,-699,1318,-1882
1556,-3141,74,7201,-721,-695,-1820
1557,-3977,7346,-4455,1104,1578,-740
1558,1085,-7379,-1299,-621,-1245,-1798
1559,4812,311,129,-1619,135,-171
1560,1572,6248,4000,551,617,1289
1561,-3399,-5775,4,528,-1120,-984
1562,-2781,-3110,5030,-759,-565,-783
1563,-6488,1591,958,1406,-1699,-1998
1564,-2039,1276,3678,-1342,677,-1076
1565,-7609,-3156,3543,-24,816,1613
1566,-5055,2728,3377,-1110,-871,-255
1567,-1143,1735,2713,477,289,1889
1568,-6281,-7958,-4492,-77,1963,371
1569,5707,5784,-976,124,457,1984
1570,7492,90,-3188,-773,-970,-543
1571,-962,4007,-2820,5,-1975,1117
1572,788,-7288,79,-1692,-293,-1831
1573,2080,-5991,1603,-813,-1180,1932
1574,766,-1916,6393,-247,1640,1176
1575,-2389,-7653,6796,1993,-391,-374
1576,-7806,-2378,213,118,-1680,299
1577,-7771,-1127,5286,-57,162,1990
1578,-7596,3522,-6397,181,-3,1646
1579,1075,-3332,4857,1478,-168,1211
1580,7205,4664,7208,-1642,1486,1296
1581,6485,2888,6460,-523,-478,-1622
1582,-5274,7394,7876,-1454,21,827
1583,-1239,3630,2829,932,-1742,-1328
1584,-873,-422,3106,-1036,-350,-690
1585,5645,7232,3293,812,-641,507
1586,-2646,-3468,-5853,-1906,-1349,-909
1587,4677,6901,-7313,1261,586,-440
1588,-5971,4102,-7838,-795,1055,-1894
1589,-3029,5562,-3594,93,1078,1706
1590,-1951,-2677,-3553,-1882,1426,1675
1591,-5471,-7717,3140,-595,1120,-305
1592,-2014,-4252,997,1285,884,706
1593,3044,3163,7502,-1664,-1126,296
1594,5189,5996,1223,-1707,1749,-976
1595,-864,-6196,2841,1131,-1141,-563
1596,4765,-6761,-3284,778,-870,623
1597,3470,-1803,2754,1761,1333,-1
1598,7860,5568,-6839,1475,684,-778
1599,-6523,-190,5844,-1877,-170,-1574
1600,-5607,4303,-6146,794,-1480,1999
1601,627,-2214,7127,-684,1402,1959
1602,-1039,1389,-4980,1053,-1169,-226
1603,-7922,-5971,-6781,-1841,-934,-1758
1604,-7218,-2733,1472,-679,-875,1862
1605,1350,-3380,-2737,-827,-1802,1870
1606,-7892,612,5179,-1598,1502,438
1607,-1888,-4820,5642,623,1584,-1078
1608,-6629,-6633,-6367,-228,-1632,-839
1609,-4344,-1758,4382,-103,-241,-498
1610,2861,-4276,-2535,-1192,-797,1666
1611,-5627,-2636,-5590,1588,-701,1587
1612,-5318,626,-3391,87,-418,-72
1613,-2834,-5507,7080,343,-1959,-928
1614,2826,-5842,-3914,-1505,-1301,-545
1615,-4163,2992,-3543,-1015,-1083,-1709
1616,-3329,55,1626,-727,-254,1927
1617,-4540,1818,-7832,615,-718,-696
1618,3453,5642,3526,-308,1243,1841
1619,-2259,3977,-1991,-1635,-60,526
1620,7527,-7710,4393,-1972,332,1155
1621,4713,6407,4990,-153,814,-1757
1622,5800,2936,1174,-718,507,139
1623,2423,-1527,-1640,415,-1919,-305
1624,-3949,-5821,7126,1842,-1637,-130
1625,6789,-4681,4778,950,-733,-1687
1626,-6627,7108,1817,-1306,-1511,80
1627,2842,-2448,7035,-1023,-72,-547
1628,-7320,-1040,6,-1480,1518,1657
1629,7280,-6480,-3774,1250,-343,894
1630,2914,7509,4867,826,1832,-392
1631,3878,-194,1657,1089,1052,-1481
1632,6976,7359,-6705,540,1921,1256
1633,2381,-520,7284,704,-1696,-1434
1634,1792,6423,5741,-370,-1763,1927
1635,-3211,-4964,6686,1463,56,-1378
1636,-4132,4318,-6915,1563,111,290
1637,-3870,4602,456,1591,404,1659
1638,5546,-609,5544,-1722,1392,-614
1639,742,-305,6025,-138,-773,-411
1640,403,-4955,3734,1285,-1229,276
1641,-2047,-5424,3276,33,-572,212
1642,2244,-5271,-5841,445,-1664,926
1643,2152,2484,-4077,1925,992,-800
1644,-5655,-2966,4647,-1118,437,615
1645,-7488,-393,2911,-827,-1415,-1328
1646,-4011,-2712,-776,-237,959,-1869
1647,3010,-1041,-1113,387,1101,-771
1648,4905,-727,-1956,-591,-221,-1106
1649,-7660,-7858,-157,1548,-271,-233
1650,-6694,-7752,6962,-1886,-1152,-1368
1651,-5480,1408,-975,-1246,1043,1844
1652,3892,-2969,4148,-1160,-1705,-1994
1653,-7474,5231,6874,330,-1223,1628
1654,-3694,3158,-7308,107,1717,1845
1655,-3459,6400,-3188,33,1196,-1292
1656,-6856,-126,5162,303,224,-106
1657,-2042,-1189,1226,-1704,268,1182
1658,-3088,-745,7963,1376,1345,-25
1659,2864,171,1270,1944,749,1912
1660,3176,-6081,-6700,185,-1973,-1429
1661,-5698,-6365,-1547,-27,-1628,-1201
1662,-374,4522,-7653,-1318,-1759,1938
1663,3551,4662,6131,311,-1831,1211
1664,-5229,482,-5808,1480,-1783,-1813
1665,246,5220,-661,654,1398,-785
1666,-7964,-7180,4691,1660,-1112,1154
1667,4600,-3260,-1218,-631,920,-785
1668,-1121,649,5543,1990,1544,-899
1669,264,2121,2648,-460,873,23
1670,3138,282,6679,1506,-1484,879
1671,-183,-5519,-1116,-771,670,-651
1672,-4130,-5657,-5733,-592,622,-1165
1673,4698,-718,-3977,-1290,-129,-1260
1674,2106,500,-501,121,1877,344
1675,-4606,1172,-4543,1034,-1421,890
1676,6965,6259,-1585,-1242,-820,1791
1677,7149,-6518,-804,-1107,-476,-1612
1678,4349,3166,3366,-1136,804,-36
1679,7570,-3183,2879,-468,1783,304
1680,-4864,7253,3474,-1971,1930,-643
1681,4041,-5833,392,1289,-1957,224
1682,-3321,3753,6159,-1473,-1844,-159
1683,-3055,2118,-2488,-1669,-691,693
1684,1519,-3033,-4831,-1289,1673,-1685
1685,-1622,2435,81,1944,-1678,1190
1686,6907,-3422,-5947,-889,771,-975
1687,-6216,4293,-7051,-300,-1495,-1229
1688,7112,-4978,4436,-1213,1415,-706
1689,5013,-6010,3539,523,730,289
1690,82,1735,-7250,1261,497,-539
1691,-485,3509,1275,-961,1278,-84
1692,7226,7956,2846,493,1395,1605
1693,2893,3974,-1897,1868,640,-1845
1694,7607,-1904,5860,688,-1787,-905
1695,-5127,677,4492,585,-1294,1261
1696,-811,142,2021,1511,1896,1387
1697,4342,-2476,-951,-330,755,374
1698,-1969,-388,-297,-889,267,1324
1699,-5429,6102,1664,-644,1315,-992
1700,-204,-5530,-6441,-562,1111,-1155
1701,-3634,2343,5278,-1554,1071,116
1702,2506,-6589,719,1136,42,1625
1703,-3380,7647,-6873,-1914,-326,-1429
1704,-5690,-5079,6933,-1117,590,1488
1705,1564,1298,702,567,882,1200
1706,-5553,-7703,996,942,1207,-1190
1707,7941,-4794,5603,-923,-1586,1433
1708,6778,-3598,1531,-354,-1096,238
1709,-928,-6271,7686,-1427,1028,1784
1710,-2093,4679,-4464,5,-1592,-348
1711,-6011,2907,2677,-160,-160,1721
1712,-1613,-280,-5598,1265,770,-1058
1713,3180,-2301,3280,-153,-1400,942
1714,3804,-5965,-135,1156,-830,-1956
1715,5845,4490,1291,-921,-1408,-1467
1716,-3021,2593,-3949,-25,272,-1537
1717,582,1085,4138,733,51,-1942
1718,3766,-4727,613,1544,1104,1592
1719,6397,2811,-6966,-1020,906,485
1720,-7195,-6138,6955,-1725,-454,660
1721,2454,-2878,-5910,-965,1649,1490
1722,3564,4188,-2717,782,-938,-316
1723,-3750,7315,-6038,592,1514,-969
1724,2725,5916,-3385,-242,-1416,-1755
1725,-4950,481,-6367,-1058,526,337
1726,5704,2286,-4804,-308,275,-129
1727,6950,3139,6218,-873,1383,999
1728,4868,5324,2118,-63,-1589,-117
1729,5651,-7358,7652,-974,571,-1191
1730,5014,3116,4832,1929,-988,-1623
1731,6785,-7911,7314,114,1974,-832
1732,3631,-1064,876,-155,-1667,-1211
1733,5060,-4979,-1054,-1686,1931,-1771
1734,-5673,2709,-7117,-1914,-261,1744
1735,2176,-2916,-1096,667,110,1094
1736,-7388,-2958,-6880,1309,-1106,1612
1737,2656,-7494,2422,987,1961,1725
1738,4809,-4148,3813,-497,-361,69
1739,7957,5154,1260,1337,1130,-691
1740,2836,-560,4903,-1961,1171,1445
1741,4519,6306,6315,154,1761,-1089
1742,662,-2369,4384,1431,1669,-408
1743,7129,-3288,7128,1685,-76,1200
1744,-4645,-711,-7332,-1928,-201,1810
1745,1550,-6523,-7080,-531,1227,714
1746,6800,6139,-2734,-1723,1933,-987
1747,5139,-715,-320,135,-1362,742
1748,1051,-2805,7618,-1296,-843,53
1749,3984,-246,-2924,-686,449,-335
1750,276,1584,-2852,128,1880,-165
1751,7590,7250,6571,939,521,-725
1752,4458,1634,3445,49,303,1643
1753,-1065,4496,-2074,1572,-302,-1841
1754,1492,355,-7684,-14,899,-1147
1755,4044,2910,2464,-569,-320,982
1756,5995,4790,2989,729,1608,-746
1757,-7389,7575,-2006,-176,159,-630
1758,-4048,2647,2516,379,-1471,777
1759,-5648,-5101,5912,-1435,418,1948
1760,-3203,-5008,5217,-1453,132,-1156
1761,7554,-6123,-6639,-188,-1643,1659
1762,-7924,1838,-2815,-1318,-1730,1422
1763,89,-7245,7909,-913,-497,-1692
1764,7645,196,-5109,436,-1301,1167
1765,5185,4062,6841,75,-1525,205
1766,-6013,7346,-7337,-1334,1487,-1037
1767,-2742,6554,3059,-1671,1729,1578
1768,5794,-5638,1302,-388,120,1259
1769,6486,-3797,-1417,1860,-728,116
1770,6319,-4905,5152,976,612,-922
1771,6818,5678,-1273,-359,924,831
1772,3527,577,6208,393,1634,1174
1773,-6282,-4059,-5045,-1654,-58,-585
1774,2694,-6263,3537,6,-1133,728
1775,-2326,2469,-4343,-1660,-177,1987
1776,6635,143,-7464,-363,-1428,1033
1777,6902,673,-6305,-447,1822,-282
1778,679,-4650,5797,-1251,-1301,1241
1779,638,-6828,4508,-548,374,-1885
1780,-6244,1569,4399,-1700,-109,-122
1781,6317,830,-6810,-555,15,-1090
1782,2345,4488,5752,-251,-305,1239
1783,-7406,-4412,-1694,-110,-1653,-1286
1784,6738,-4050,-2888,-590,-277,187
1785,-1393,-4726,4672,-1301,19,825
1786,-4060,-3937,-5825,-131,1244,-1476
1787,-2442,-3119,-876,144,-1856,723
1788,-2582,2012,813,-523,1449,-1789
1789,4772,-187,7233,-1136,486,-1483
1790,3873,3524,-2889,-624,1228,1310
1791,-2806,7517,6382,-1516,-1896,1451
1792,5221,1314,-354,35,580,378
1793,-2534,-6749,5530,1118,-1244,-1848
1794,6428,6049,-28,-302,1407,-967
1795,7525,3129,2043,-1032,-1507,-1390
1796,-3504,-4169,-5909,-1855,-984,485
1797,-3861,-286,-7738,1705,1771,-1791
1798,-4003,4823,4308,-402,-1928,-440
1799,-5945,4241,1147,-581,1320,1777
1800,-1755,7803,-1126,1503,1148,-970
1801,-1638,-3640,7144,-242,-1521,-978
1802,1060,1302,-7410,-1300,-1594,-348
1803,6819,4212,7695,191,-1980,729
1804,-4662,-6732,3096,-477,1126,163
1805,-6912,6156,5765,-602,1699,502
1806,75,6769,5527,-1861,834,1944
1807,7524,-3437,-6858,-1522,-1154,-332
1808,-6013,3068,-6618,1399,-665,-1453
1809,2429,5446,-354,-1809,-1951,85
1810,6506,-2578,6547,1622,438,1156
1811,-2088,-7215,4033,-1171,144,430
1812,1024,1387,-6325,651,-1902,-1382
1813,-2603,1124,2134,-166,1933,106
1814,1496,-3273,-233,-576,650,927
1815,3254,2689,-1289,1572,518,625
1816,-3026,-5211,-2689,240,-173,1033
1817,938,-7881,-7228,-1140,697,976
1818,-4909,-753,-7780,-1729,-699,614
1819,-6201,-4332,558,1289,1856,-275
1820,1879,4472,-5322,-625,1915,-785
1821,-7492,5969,-2017,-369,-715,-1543
1822,-4223,6109,7568,-1516,707,-1838
1823,-5362,-3142,4941,1812,-1312,289
1824,-7460,7065,-2012,-1094,1922,1583
1825,7733,5013,6445,-1925,896,1780
1826,7815,-2987,-937,-1198,1165,-1502
1827,-3062,-7474,-6866,179,-941,53
1828,393,-2905,-5918,-1245,-98,-1156
1829,-6423,1802,2401,-1994,-1411,-539
1830,-1011,4492,7124,326,-984,1040
1831,-4311,2922,1811,-1199,879,627
1832,-3044,-1706,-336,-1112,-548,113
1833,-7295,4113,7018,1535,-546,1006
1834,-4407,1209,-7860,-1865,-1668,1375
1835,4167,926,2021,1778,-1400,-1538
1836,7959,4450,4551,924,-1061,-1226
1837,990,-4327,-7865,367,1299,1321
1838,-7576,-5059,2987,432,1840,1731
1839,-4606,3439,-233,-1653,1189,1680
1840,7828,-4997,-2624,-879,1384,-1570
1841,2065,-4643,4807,828,-1337,1747
1842,1371,497,3218,-1252,1782,1610
1843,-3339,4972,-6726,38,-79,-667
1844,-6254,-5346,-1964,-689,708,966
1845,3213,3872,-1193,655,777,1592
1846,4875,-7372,-6783,479,-500,-1829
1847,-2069,-4600,-3014,91,-1786,1655
1848,3455,-7854,2112,1202,-1098,-532
1849,-553,-2410,7598,300,-1323,244
1850,4220,-388,-3809,383,-611,-367
1851,165,-3189,7932,-854,1944,156
1852,-5013,-3058,-6871,-1945,-1569,-766
1853,3965,-7382,1097,-793,-735,-1602
1854,-720,6886,165,-1237,-1102,344
1855,939,3364,-3310,-952,-1894,-1387
1856,1746,2388,471,959,-1314,-703
1857,-1436,-3479,4032,-1134,1722,1523
1858,-6077,-7514,-2678,-1337,-1390,539
1859,5971,-3321,-657,-79,672,260
1860,5870,6733,3547,1854,-1936,1232
1861,2194,4845,574,-840,1690,-1487
1862,670,295,-4454,-1758,817,1310
1863,5646,-5383,442,-1282,1248,-1123
1864,-4915,2151,-2531,-1029,1115,1330
1865,-7071,5870,-5791,-2000,-1190,-624
1866,1864,5285,425,-1591,919,122
1867,-3262,7260,2432,-1937,526,438
1868,6742,5745,5924,-730,705,-242
1869,-5569,-4785,-2186,-560,578,968
1870,-423,-1273,5328,-1222,1274,164
1871,-5723,-3008,2583,25,1330,1049
1872,2807,-1706,-5097,-120,-962,-1684
1873,3184,2270,2721,-1795,-1590,1898
1874,-2789,7775,-4137,-1991,-1241,-1474
1875,-27,-2408,5167,-1946,-1280,-705
1876,7300,4247,2678,488,-1881,1279
1877,-2475,-3125,-7886,-1018,1259,1292
1878,-6047,2309,-3808,664,-1048,696
1879,4468,-2108,6423,1632,1517,-1291
1880,3277,-188,1966,-955,-1663,-858
1881,-1781,5973,-6121,1200,-900,-1968
1882,-2617,2542,-46,-228,1102,-1105
1883,1206,-644,-5401,809,449,1441
1884,-7811,1905,7411,432,-1631,1409
1885,4032,-380,3424,-374,-1602,820
1886,-6941,-7197,225,-1165,-516,624
1887,-7012,4194,1366,-868,-272,998
1888,327,1611,4733,1492,-1139,-530
1889,7079,-7671,-6056,-1418,824,-108
1890,2218,4416,-37,1029,-2000,-1850
1891,1744,5399,1876,-1678,-1810,-503
1892,-7036,-4081,-5678,-785,175,664
1893,-1345,-7578,1232,237,-910,1233
1894,3871,-6786,-4900,-1148,-1803,413
1895,1214,3498,-1469,-1038,574,-1947
1896,243,2080,7602,-574,-1873,1701
1897,3006,-217,3667,1010,-1468,-1602
1898,-7768,-5893,6981,-1797,819,-568
1899,-2932,-6528,-1589,-1120,1210,1818
1900,-1369,7430,3277,1562,665,1559
1901,-2618,3156,-4293,1248,-143,1013
1902,-7113,5944,-190,-796,-1093,627
1903,974,4629,151,-1729,1126,632
1904,2240,6617,-630,-1601,708,-925
1905,-5870,-7861,5508,-659,-97,1140
1906,-535,2355,927,1306,-1638,-119
1907,6920,460,-4745,-1381,-1411,302
1908,5105,3027,3244,996,-655,-912
1909,5101,-5089,6604,1639,993,-456
1910,-6327,-2754,-5512,1265,372,540
1911,-2670,1667,3347,419,372,-551
1912,-5165,-5416,1374,-1092,-1536,-495
1913,5899,4116,-6978,-175,-992,860
1914,-5136,-1227,5856,-582,1239,-1726
1915,-2771,-3609,-1083,-1077,208,228
1916,4851,7091,-3058,723,1262,-257
1917,-7875,-3492,-7344,-1412,495,1760
1918,-3368,-4839,573,-846,1810,-240
1919,-6527,-2140,1252,-656,-1437,1862
1920,-6499,2226,1180,-1726,-1378,-1484
1921,-3372,4612,-2197,915,79,-1203
1922,-375,-4166,-3338,-32,279,1351
1923,5618,4360,244,-352,646,-219
1924,-7466,2225,-7932,1511,416,1499
1925,4836,4555,6220,762,-1797,530
1926,5308,5170,-5009,643,58,200
1927,-3397,2365,-2453,212,298,-758
1928,6529,1268,-4273,-1324,1595,-642
1929,6934,-4555,-5257,-1909,-333,-8
1930,0,185,7685,392,1488,1601
1931,-5807,-155,234,-1537,544,934
1932,-3123,-7845,-3928,-1150,1713,-203
1933,1254,4204,6744,1171,-1640,-624
1934,-6455,5879,3798,1579,514,129
1935,-6617,-5517,-621,162,1249,-739
1936,-5808,-2583,1429,-1027,-1181,-1940
1937,470,4581,-2085,-1019,-38,-1480
1938,-4365,5282,2811,300,1038,-1441
1939,-4463,6512,909,-669,-1427,-389
1940,-5821,-321,2060,1558,-525,-1632
1941,-6970,-1733,1949,-1694,-1902,-1790
1942,6695,-1566,6590,-1195,683,-526
1943,-4841,-2823,-3540,874,136,-690
1944,1016,-7447,-5327,1326,834,-1625
1945,-4330,5389,2264,982,-1196,-1930
1946,3981,-5351,2916,805,1093,-1416
1947,5048,-7795,-6632,1601,-1464,555
1948,4003,-5799,3811,1852,-723,1021
1949,5524,688,630,-1654,558,-1768
1950,7831,252,258,-744,-1748,-1271
1951,-2275,-1617,-5505,-1859,-1442,-1691
1952,3488,-2663,7809,-1843,-309,1287
1953,-4571,-345,-6221,231,-244,-927
1954,-5248,-2007,1177,-1785,1157,-865
1955,6281,1512,-4649,1629,-386,1454
1956,1745,-124,-412,1397,481,-197
1957,2870,2832,466,-1125,-1348,-1624
1958,-5403,-7376,-650,-441,1083,209
1959,2809,1178,-7518,386,-38,-1966
1960,7254,3135,73,-1483,-1220,1976
1961,-1035,1594,1988,-1487,344,889
1962,1410,4991,-2233,1629,-900,1245
1963,-1232,5051,7174,29,84,-444
1964,6974,-4481,5660,-389,405,-1519
1965,-2693,336,7858,9,-673,1268
1966,-2454,-262,-7726,683,563,-511
1967,-2183,5894,4513,841,-1418,-236
1968,-2776,3528,7529,-86,1790,860
1969,801,-7994,-743,-609,1922,-1388
1970,-4200,3415,1810,1001,1680,-705
1971,-1302,-6096,3714,549,1905,-107
1972,-4190,5442,-236,-401,238,1945
1973,-857,570,6574,-1199,-779,1599
1974,-6600,5774,-6327,827,-1491,1088
1975,779,3629,2192,188,1919,1881
1976,-4347,-5478,-1497,1919,958,-1689
1977,1250,-4941,-2966,-823,349,-1115
1978,-7689,-1879,418,-902,416,-68
1979,-6512,-6700,379,-386,1518,-1198
1980,4208,-5861,-5255,447,352,-1027
1981,1952,79,138,246,-993,546
1982,2107,2111,3117,-429,1812,688
1983,3794,3894,1492,-178,1312,1272
1984,-2918,6765,3834,1387,-4,-1339
1985,6671,-1176,-5379,-1085,-1128,-351
1986,-4237,5505,492,-1984,-1213,753
1987,5564,-2050,3231,-850,-1940,1232
1988,398,1355,-2413,-1745,-845,1770
1989,6685,-1384,-2219,423,131,1788
1990,2651,1538,-5464,1420,-1405,-497
1991,-3174,-1165,-5438,-225,1391,-328
1992,7761,-4585,822,260,1985,623
1993,-4076,-4992,-3407,1359,1845,-1959
1994,-3159,4036,2510,1307,394,893
1995,-5503,-6619,-400,-582,-1084,-1045
1996,1793,6136,-2886,-398,1441,712
1997,-5795,-7779,-5627,397,-915,-336
1998,1605,-7274,4415,733,29,-885
1999,-2464,-3305,4560,-900,1321,-19
2000,619,845,7308,-202,1007,989
2001,-2108,-3894,-1212,216,1491,922
2002,-3189,5141,3150,769,1846,1609
2003,-5820,4810,3697,-963,-730,1973
2004,-7424,3214,-3300,1905,-1387,-110
2005,-112,-7587,3113,1588,138,82
2006,5339,4639,6178,-820,941,61
2007,-4761,1591,-989,-1663,-35,-1595
2008,-909,5518,-1613,274,-982,771
2009,-6798,-2029,-7640,-688,-1790,1817
2010,-4244,4252,1005,1847,988,-195
2011,7868,4395,6652,-1885,1367,1804
2012,3635,-3016,4761,-685,-1056,1589
2013,-3232,-7720,1323,-1884,387,623
2014,2557,-182,-3282,-1519,-1621,-379
2015,-4024,4652,3600,1551,938,-508
2016,510,5504,2869,1823,-1801,609
2017,63,2366,-1442,-1905,-1231,-1916
2018,3473,5681,33,1087,-1723,-510
2019,5,-3689,4388,1007,485,-349
2020,-4410,-4584,5898,17,-273,396
2021,6102,-2636,1543,-956,936,-394
2022,-4170,-2264,-5154,1483,-691,979
2023,-2687,5318,7657,1209,566,-1588
2024,-752,-3776,4533,-961,1894,1151
2025,2325,4818,-5210,-21,1567,192
2026,5386,4016,-4533,-1443,1134,508
2027,-4117,3973,-6168,846,895,964
2028,-6707,4980,902,438,1667,-486
2029,-373,6362,7760,-1032,-552,-1389
2030,3017,5141,1278,-867,-613,-1407
2031,-1821,5300,421,-521,1317,-142
2032,258,-5345,7870,1171,-765,-1532
2033,1173,-4936,6753,594,-636,408
2034,-1,1388,108,-1564,-390,1815
2035,7036,-798,7551,-375,-689,-1416
2036,5817,-3183,7663,-1312,977,1212
2037,-7409,2253,-7256,-1917,197,-784
2038,-6432,-5810,-7394,1135,914,1159
2039,3706,4602,-1279,-1558,-817,780
2040,-604,-7138,5618,949,-1433,41
2041,1775,5862,-4643,676,-1142,-843
2042,5686,5491,229,1121,252,801
2043,-5804,971,-783,-917,-311,1163
2044,1823,5234,6959,625,1782,-447
2045,-4527,-1313,1979,1901,-700,168
2046,-231,7733,683,-761,1917,-406
2047,-7410,5847,-6780,-895,-521,71
2048,-4365,81,6956,-329,1055,-1053
2049,-7824,-2255,-6311,148,-149,-1196
2050,-97,3312,-392,-753,-1600,-1015
2051,6459,-5800,-2432,-1942,-565,1537
2052,-2918,1714,3667,-1363,1833,936
2053,1728,2708,4844,380,-623,211
2054,-255,-7645,3442,-843,-991,-216
2055,-3055,3199,7547,-1403,515,1286
2056,4570,3611,4986,-373,91,-1254
2057,-7783,-6206,-4124,1914,1894,-520
2058,-3615,-6318,3215,463,1182,1942
2059,3666,-1496,2821,608,396,1047
2060,-4966,-3590,-4201,-1391,-1329,-1886
2061,3666,7485,7133,1566,859,-157
2062,489,-3699,-3394,1226,-1208,-19
2063,5290,4226,2677,-1939,-1332,254
2064,2128,4769,1349,1375,-620,1275
2065,4006,-1419,3038,905,16,-1680
2066,5388,6804,-4840,-1202,52,1710
2067,6255,-5595,5669,1382,-831,-1201
2068,-6552,4581,-1606,342,-1054,19
2069,668,3934,-4980,-1343,-771,1562
2070,-6870,-3430,5689,-1018,1825,341
2071,-4505,736,-753,-206,-672,-1504
2072,-1187,-1211,-5542,1179,-1899,-1595
2073,-6502,7770,-1945,764,-1685,-44
2074,-5885,-6866,4131,-1718,-1661,1228
2075,7503,1573,-7525,154,437,128
2076,-6195,-2715,5056,-115,-485,-1100
2077,2216,2378,-1289,-906,-618,1541
2078,-4579,1539,1836,487,1112,1761
2079,829,3035,3371,-817,1997,-685
2080,-5631,3862,-7048,302,-921,1382
2081,-4053,2063,-6861,-392,-207,1300
2082,5054,2585,-4005,981,1446,116
2083,-6894,4642,362,1105,-588,-806
2084,6349,-4069,-4331,1016,1612,1643
2085,-3164,-4097,-3111,-263,107,402
2086,7170,5255,869,-1665,-802,476
2087,1568,3231,2700,1194,867,-1729
2088,-7739,-6844,-5181,320,-1682,1407
2089,3392,3730,-1245,1059,-1489,83
2090,2709,-993,-1363,-183,1821,-447
2091,1883,-6786,4812,-1841,564,233
2092,-3367,-7499,-7365,75,-727,1845
2093,-2107,4251,-4349,560,1033,1668
2094,1079,3685,377,260,-860,-1597
2095,-4149,619,-7526,371,-503,848
2096,131,-4101,5414,-1918,-277,-1326
2097,-229,3798,-4876,-326,-1504,443
2098,-3208,-7956,5638,1804,325,974
2099,-526,748,1096,-253,-2000,683
2100,1022,6289,-1780,-1482,-1457,0
2101,-6088,-6898,-3475,-269,-1725,1073
2102,1223,5180,2188,971,-80,70
2103,5386,-923,-4139,-1303,-1396,-287
2104,-545,764,-2176,-606,1944,713
2105,-3545,801,-1044,-1302,555,354
2106,-6443,4127,-7187,-1502,15,1180
2107,2671,1417,-756,1875,1719,1954
2108,421,2497,-5939,952,-1581,-1363
2109,-4241,7736,826,735,1205,-1166
2110,-705,-5411,3117,-1740,1618,119
2111,-1846,-3020,266,503,999,-998
2112,5767,2071,7379,1626,-1155,-310
2113,3059,-5124,5412,25,115,-1379
2114,6511,-1970,-1991,1087,-1659,-1733
2115,-673,3,17,451,981,-520
2116,2831,-5784,7442,-1466,-1500,-1536
2117,4971,5591,-7329,605,267,1769
2118,-2355,-1703,7790,-1561,-779,1353
2119,-6386,312,6316,-205,-1534,707
2120,-7783,2835,-5368,689,-24,-1778
2121,5312,6046,6624,-1342,-402,1477
2122,-3596,3385,6979,-385,-1715,-138
2123,1749,3695,3149,-1877,1206,489
2124,4962,7507,962,1751,-449,235
2125,5124,-7261,1670,1338,1474,-1134
2126,195,-2010,-2310,52,-1900,-1069
2127,-2177,497,6557,192,676,591
2128,-2091,4727,-6421,-865,-1249,-1378
2129,-7698,-347,7102,989,438,-573
2130,-2983,4821,4159,-1735,-1809,703
2131,6804,-864,-1722,326,-1066,1748
2132,-5891,-165,3258,958,1072,-191
2133,2191,-3921,-831,1931,776,-1170
2134,-4287,1310,-527,1185,-1212,1367
2135,-6282,7949,7773,252,-576,1752
2136,-3210,-3798,-7905,1878,1562,-1273
2137,-6856,7354,-437,-645,1825,-1701
2138,-6138,470,2078,915,-1290,-1481
2139,-3638,500,4323,-1177,-1408,1270
2140,-4315,4629,4235,-1477,214,1300
2141,5173,-6945,636,-566,271,-1949
2142,5873,7108,-4286,-1353,-518,1941
2143,3375,-7298,968,1302,-1126,-994
2144,7543,3718,-6944,-1369,-1087,465
2145,4881,-7419,-633,-1353,1301,859
2146,-4489,869,3634,-1631,-576,-1365
2147,899,7161,5275,1582,1458,1359
2148,-2612,6609,5237,-663,1011,1260
2149,3905,-5290,2484,-1187,-1491,-1589
2150,-6218,5943,-397,-455,-1159,99
2151,-5029,4273,-2188,686,-1746,-143
2152,7853,-4582,559,996,-965,273
2153,774,-5622,5903,-1240,-733,-825
2154,-1599,6618,3326,1185,1410,968
2155,-456,-4679,-4302,-338,789,1516
2156,-2406,-331,-2013,447,-350,259
2157,1379,7815,-3356,1934,-787,-1489
2158,-5452,1075,-5430,-525,1750,-1922
2159,7133,317,6223,153,-564,-1558
2160,5700,5159,4741,-1122,-1642,-909
2161,-6769,875,1482,1605,-1374,-1228
2162,-3231,5176,2223,898,-656,1693
2163,-3660,-5982,7938,1221,687,-1251
2164,-5833,-6413,4753,470,1780,-1243
2165,-6454,1503,-7429,-1902,-839,1597
2166,-3243,7545,6631,1672,178,-1375
2167,6619,3167,1739,1215,147,1470
2168,-4469,-2924,-7284,-1370,318,1809
2169,-3889,-6326,4630,-460,1073,1328
2170,-4695,6664,-5357,-928,-120,-1585
2171,2841,207,5382,-507,-658,-1997
2172,2295,3230,-2602,-759,-955,404
2173,7205,-6722,-4116,1392,-336,789
2174,2694,6254,6794,-839,117,-1816
2175,-3359,-5674,-1826,902,-1555,-792
2176,-5885,7110,890,-1926,1870,-1785
2177,-3076,-4785,7547,773,-65,-423
2178,3030,-7492,5129,-519,-854,-892
2179,4332,-7072,4789,-1266,939,1403
2180,-3132,4492,5037,152,-1406,-630
2181,-6934,-6334,-7392,-1908,398,-694
2182,-6983,-4265,-6328,-184,-1555,-1855
2183,126,5343,6302,-1295,-353,-1586
2184,6609,7015,7277,1091,-1022,1398
2185,-5616,-2240,-2522,993,-325,-1028
2186,-6210,-2809,4743,-723,-1401,1962
2187,1476,-7394,-1755,-1631,1359,1433
2188,3532,1298,-1343,681,-1156,1853
2189,-7771,-1081,3996,-446,-960,-1606
2190,-4557,-7603,-5886,-1601,-91,1172
2191,4286,-1046,-6767,-1657,1457,1306
2192,-7950,-2398,-3854,-1360,1325,735
2193,-218,-2214,6273,436,35,1870
2194,760,3537,5173,-1393,-307,1911
2195,-6696,-4588,-5510,283,966,1443
2196,3587,-1391,-5487,595,774,1625
2197,-1410,-7860,3071,-193,480,-500
2198,-202,-1304,-5030,-286,-922,-227
2199,5254,-3543,-130,-503,349,1050
2200,-1589,-6787,6275,-1487,-939,1914
2201,905,2573,-1666,-1875,359,-105
2202,-5472,4841,-7488,156,1035,-1042
2203,-5929,-3297,-7237,1242,383,1988
2204,676,-7824,7042,-227,1964,-980
2205,-5053,-6138,4256,-1775,76,-909
2206,-1191,914,-1391,1175,-1900,-146
2207,-3481,-1730,-4047,-1828,623,-208
2208,1706,931,-5325,-291,-1995,1720
2209,5195,-6409,-5574,903,-1669,-646
2210,6428,-5792,4143,1659,1973,1167
2211,3874,1175,-6674,712,1909,1733
2212,2386,6749,1832,1917,204,-235
2213,-6693,3892,2482,-459,781,869
2214,308,-6479,-2757,-1983,1516,-1050
2215,-7516,6903,-888,-971,-1118,-1885
2216,-999,5494,-2463,1833,916,78
2217,43,2630,-6098,-1324,975,419
2218,5908,-4450,-372,1634,355,435
2219,-6492,-3820,-5104,1240,-989,-1946
2220,-7150,5926,-6087,87,-929,-1143
2221,-5283,4116,-2312,817,-920,1971
2222,2989,-4625,4243,177,680,312
2223,697,6090,-4913,1640,709,1613
2224,-5725,-4681,7190,-1781,-343,304
2225,-1003,-3201,3053,-1492,-318,-521
2226,-6112,-7883,5021,-353,-530,643
2227,620,-4977,-6332,1116,-1621,575
2228,2525,7613,-1333,-1742,-32,54
2229,649,3576,1850,-799,1264,1874
2230,7155,-828,-2379,-750,-902,1853
2231,-5153,-6075,6817,1535,612,360
2232,1296,-4610,-385,922,742,628
2233,2609,3001,7528,583,1753,-1802
2234,6725,-6587,4132,-659,874,-286
2235,-2952,4037,6199,-854,-353,40
2236,6348,-3332,-4376,1653,1342,-20
2237,5918,-663,3892,1246,432,1222
2238,351,-2652,6591,1352,-484,-134
2239,3967,-4181,-1800,-717,-685,1132
2240,6871,2024,5558,-1926,1999,-1636
2241,6672,-3604,-7557,-170,256,1487
2242,-4959,-2748,-123,-694,-1761,631
2243,6805,4832,-6745,1186,1013,-642
2244,-1159,-3921,7069,-968,-911,-1597
2245,-5832,-7356,3042,-1011,768,-1764
2246,-6273,-134,-1759,-1914,501,988
2247,-1407,1326,-7238,-887,-999,926
2248,-4126,1892,-7835,113,1338,890
2249,-7082,7725,5643,1923,942,1118
2250,838,1278,-4057,-1219,-727,841
2251,-7986,1827,-2753,1295,-1240,-781
2252,3806,-7087,3680,-297,328,1585
2253,-5014,-1826,-2688,-583,-1057,933
2254,-3273,-2218,-6528,131,1344,-1364
2255,-5704,2683,2609,-88,773,-1680
2256,-773,6463,-594,1099,669,-1397
2257,5957,-1998,-4091,-57,1524,-463
2258,4921,6220,6900,-198,-1571,548
2259,-1682,5635,-2174,1673,-219,-1087
2260,2716,6502,7360,1528,-4,488
2261,6531,-5982,2913,1720,547,-832
2262,-1506,-450,-7553,-435,-1995,-176
2263,-4026,-2179,4073,-185,220,-1901
2264,7751,-2052,-7380,-623,1715,-495
2265,-5522,-5313,3194,1347,1871,-925
2266,4329,-873,-1851,-659,1379,79
2267,-6315,-596,-6584,-375,604,358
2268,-7302,936,-6761,-1801,1721,1436
2269,6745,-5453,-5406,-920,-683,-352
2270,4390,5743,7489,-1748,-483,-976
2271,7051,-5715,-7846,1286,792,295
2272,-1951,7218,-2061,756,88,-1490
2273,22,1080,-2380,283,-1396,1696
2274,-6895,5496,-3968,-166,983,322
2275,4548,1628,-3861,718,-122,-1443
2276,7279,4714,2785,-1923,-963,56
2277,2906,5053,3699,126,1949,1799
2278,-7860,5479,2173,1456,-1882,1668
2279,2829,3054,510,202,-1644,1432
2280,789,-2193,-4211,1157,-151,-961
2281,-1273,2956,-1514,-1483,429,-1887
2282,-7493,2359,-3217,1008,641,1250
2283,-7053,-4955,7239,512,-365,1430
2284,2586,-5595,4101,327,-234,-766
2285,-598,-1186,-7723,-72,1658,-1124
2286,-4449,7402,-2599,1148,-69,-1444
2287,5524,1842,-3064,169,28,312
2288,-1300,-572,-2150,-1542,-1329,-1234
2289,-7264,1430,-1614,856,1575,719
2290,-6886,2200,-162,-1965,-1090,1497
2291,2799,-6662,-3460,-21,-494,1500
2292,-14,-5238,7374,657,765,103
2293,-6422,505,1598,171,1921,1204
2294,-6864,1020,7810,610,1261,-1218
2295,-2164,7315,1894,1703,1034,-505
2296,4744,-6873,-5540,-1656,-502,895
2297,-3679,-4367,7119,430,1315,413
2298,-5120,-163,-4329,138,-1343,-1625
2299,-4674,-3870,-3525,-1084,181,-1385
2300,3575,-277,5794,-1349,-669,730
2301,5657,-1327,3792,1575,-1184,395
2302,-3243,-4954,3773,-1252,-501,-1242
2303,6981,-1270,151,-1698,373,-112
2304,5268,1213,2753,1614,1376,-1264
2305,-6855,7487,-6309,1929,-932,681
2306,2477,2129,-7664,261,-1177,1222
2307,-1587,-6811,-2576,1124,1310,-1813
2308,-644,45,987,-1491,1956,-1117
2309,-4256,6663,4199,143,496,-658
2310,-4780,-1361,-4063,-360,450,-1185
2311,4273,-6116,-6184,-1174,-551,1919
2312,6230,-6280,55,-902,-505,962
2313,7829,1778,4127,-1444,432,1800
2314,1248,-4825,840,1364,246,736
2315,3407,1538,868,978,1764,-1578
2316,3614,3514,2225,1216,-1297,-1180
2317,-2464,-5867,6846,-1247,1843,-736
2318,3554,-6222,5276,100,1253,1365
2319,269,6386,-3505,-1941,1926,-701
2320,-7340,-4204,6555,-1211,1466,-1313
2321,-1328,1031,5171,456,448,724
2322,-4308,-4203,-1944,-1446,-1312,1744
2323,818,-6114,5004,1105,713,1329
2324,-7556,-434,4699,1469,-1515,-1388
2325,-2059,1287,7601,-358,-1124,-718
2326,-3019,7025,-6240,-804,1293,836
2327,6353,-5098,7662,1049,819,654
2328,7505,-3932,7333,-373,-874,1803
2329,-7087,-7168,6903,-1304,-1043,-896
2330,-4784,6088,-6252,700,1649,1824
2331,-5121,-3503,832,-806,-262,1336
2332,-13,-4485,-7190,-390,-1204,-716
2333,-7722,3125,1871,579,-1706,-939
2334,5077,344,2800,1850,659,-800
2335,-7596,-6267,-5547,1374,-1014,499
2336,116,-4457,5992,-1792,-1179,181
2337,-6803,7118,-7300,-38,393,1066
2338,-2548,840,5336,564,371,204
2339,3492,-4919,6103,882,-1668,771
2340,4771,6185,7985,-1131,-226,-159
2341,6889,-1633,4690,1090,560,935
2342,2241,-6635,7664,1634,-81,-831
2343,4020,-5776,7008,-910,485,-906
2344,2361,-1999,-4261,677,255,459
2345,-7392,-3993,462,-126,-1133,-1620
2346,-6216,1191,-3491,1177,538,-1423
2347,4374,3228,-7551,-1513,-1901,1557
2348,4569,4540,3819,183,-591,-1012
2349,-6789,4425,-6913,883,189,1018
2350,-5596,-7767,4411,191,1261,993
2351,-701,-3665,-6081,-465,883,1716
2352,-2324,-6577,-4270,1699,1731,1622
2353,-4725,-6416,-7090,-1524,-1878,64
2354,-454,1717,1917,-1805,245,-1237
2355,5414,-3943,2258,84,-1942,1038
2356,4204,6265,-4450,664,-278,1684
2357,1583,-3963,6658,-1568,350,-95
2358,4158,1079,5909,-1388,-1901,-1560
2359,-6615,-6650,-7406,-340,852,330
2360,-3560,7002,2721,1537,736,1132
2361,4438,7290,-7657,-1758,-1299,1714
2362,-1973,3960,6770,1251,-1947,-498
2363,7900,2362,7582,1567,-1964,-580
2364,7580,-3604,5186,1901,1853,-1663
2365,3169,-3981,6356,1390,-1265,1189
2366,302,2147,770,-546,1207,565
2367,-4652,6529,3,-800,-253,-1025
2368,5578,-3404,-5620,1572,-1135,-1291
2369,4936,-4474,-3228,-1534,934,150
2370,-3246,-1549,-7757,1421,-1470,-1490
2371,-3803,2822,7993,1488,459,1751
2372,-6549,4820,4500,341,-641,1993
2373,7234,-5274,-7701,-1763,-66,1257
2374,2439,-4504,-5188,-184,-143,692
2375,-304,336,657,-1237,-14,605
2376,1358,4046,-4875,-551,-1797,1525
2377,1339,-5194,2854,-1446,528,1261
2378,-6056,2960,4886,-1119,542,1711
2379,-5006,-7009,7328,30,-1340,-1139
2380,-1553,-6475,-4048,264,-1040,-895
2381,-5214,-4606,425,226,-74,-1085
2382,-6756,-6548,-847,-609,-1993,-715
2383,6234,-175,-2236,545,-1777,-599
2384,50,-3212,-7928,716,-589,170
2385,7549,3736,-6361,-36,-547,71
2386,7620,-7456,-5961,-1984,1633,-373
2387,-6351,-7115,-3766,331,492,1109
2388,-5332,-5729,6515,-1513,-841,526
2389,-7887,-3111,-4880,-901,-433,-1056
2390,-4290,7835,-1127,564,-112,-560
2391,7373,5958,683,-348,1305,382
2392,-931,-62,-468,-1527,-700,703
2393,2387,6809,-1442,163,953,1792
2394,6032,3359,2988,-1746,-1076,-794
2395,2524,2188,6240,-453,683,1452
2396,-2401,-2317,6597,6,364,-1108
2397,-5248,-110,5495,1311,929,-882
2398,5763,-4170,3601,-1046,752,-353
2399,-6271,7515,-6339,1363,-1530,-1236
2400,-596,-4550,-5339,1674,-1470,-1106
2401,-1011,6058,-7849,-1482,-367,1962
2402,-3287,4356,-5298,-243,-1169,1628
2403,-232,-6258,6571,1518,-1700,1420
2404,-1331,-3175,5680,1390,90,-553
2405,4056,-80,3396,1218,-1285,1729
2406,-5969,7354,4794,-1032,107,1915
2407,-4573,-2280,-6578,1590,250,1869
2408,1738,-1498,-2237,-423,236,407
2409,-2679,-7570,5224,1759,1591,-968
2410,-4423,-2348,-4871,1666,-1503,1225
2411,-7856,-1476,-4250,1028,-609,-859
2412,4673,7064,-1084,409,1361,-134
2413,-3563,975,6627,417,-399,-455
2414,-2403,-6770,4523,-1404,-1094,338
2415,-4768,6735,-5545,-1171,-244,1602
2416,-5272,2501,1217,334,-174,-1931
2417,-7319,-4971,2973,1376,-1220,1790
2418,-5098,218,-1459,-231,-1184,-1834
2419,5222,6045,454,-78,-1946,1071
2420,260,-957,4787,1684,-1167,180
2421,-3280,5099,-7430,757,608,602
2422,-6829,6925,5274,593,1314,658
2423,6436,-1782,-7615,-288,748,-260
2424,-6263,4814,2708,1171,-1122,1705
2425,2721,6794,5876,1800,-882,-1401
2426,2248,-4000,1240,-182,-220,-1086
2427,2656,-4587,-1925,994,-536,-1416
2428,-1225,-6119,3448,357,969,479
2429,5129,6648,6619,354,-826,1185
2430,-863,-3942,4869,-834,-1414,-60
2431,4490,-306,851,207,-1989,-1711
2432,2095,-5955,-1636,1578,-666,-1446
2433,-3586,2644,1697,489,590,1016
2434,1191,7919,-1834,-1225,1599,726
2435,-5606,4493,5969,1454,-1200,428
2436,5799,-5737,-2231,-1742,-1501,-1753
2437,-53,2406,-3475,416,-889,1039
2438,2518,7419,-7356,1581,-1335,1056
2439,-1607,-2295,-5168,-1177,-1992,-1050
2440,-1323,-6154,824,-1045,-1238,1891
2441,3074,-4910,842,-727,1633,1569
2442,7180,-3334,-4674,1153,1310,-1440
2443,-7324,-6864,-6908,1514,478,1564
2444,-7865,1972,-5703,-1013,-288,-376
2445,-3787,-1831,-6581,645,1494,-1796
2446,1043,7773,6844,-1790,-601,522
2447,-6648,4931,-4867,-1161,-166,-68
2448,-4329,-1300,-697,-108,283,-1724
2449,2574,-4019,-1135,-337,1085,-84
2450,2030,-6600,-7621,-804,920,1238
2451,-6353,-715,2000,-552,-223,551
2452,4307,-845,3843,-436,-1225,636
2453,-19,-2746,-1477,-1654,1014,-1130
2454,-3448,4565,-4062,1442,1377,-1875
2455,-445,-1863,-3910,647,502,794
2456,4267,-5313,5182,-1818,1962,-333
2457,1610,957,-6337,-1672,-58,540
2458,3548,-3441,-2512,653,632,-1845
2459,-942,-2549,3283,797,1535,739
2460,-3125,1273,7507,-194,-1356,-1470
2461,-4672,1221,-3846,-942,-810,1426
2462,-4427,-6692,-4495,-1116,-1288,987
2463,-7950,1231,-4311,-1635,-42,1908
2464,-7917,1440,636,1056,1118,342
2465,1349,990,-4365,550,413,-88
2466,2865,-3195,2156,838,504,1911
2467,2094,-577,-7342,1507,-1769,1330
2468,7425,-5006,6261,1302,-1228,-409
2469,1867,-2574,3701,719,-437,-1528
2470,-7197,-1689,4626,469,-102,-234
2471,-1940,1393,-6157,1794,649,-1593
2472,786,1381,5080,-1521,-1839,274
2473,-1915,955,5042,-566,1385,1458
2474,-6673,-173,-3883,1476,1631,592
2475,-3899,266,-2444,-124,-794,-1706
2476,1185,1753,-4492,-1306,-1266,-1680
2477,368,4188,-7135,-694,-278,-221
2478,4630,2797,-7439,274,-348,1204
2479,-2609,-4610,1481,-1240,-293,1193
2480,-1729,-4777,-5704,1768,1156,-1195
2481,1800,-7364,-2971,-47,-1175,-781
2482,-109,465,587,1888,1078,-932
2483,-5718,-1849,-6640,-349,155,1898
2484,-3530,-7666,3607,1895,1690,-1988
2485,6411,-1049,7918,-1057,-1919,558
2486,-1070,5119,-605,-433,83,1761
2487,-413,-7974,-213,1735,397,-930
2488,596,528,2037,1175,1081,-1731
2489,-6141,4369,-2380,177,-1241,1130
2490,3003,-5644,4777,-1455,1282,124
2491,-5668,7804,-612,-456,174,1998
2492,-2740,5549,2818,-1030,-445,-1970
2493,6305,3924,-4775,-984,1251,1026
2494,6090,3496,-5030,-813,-1053,-186
2495,-5161,3081,7788,202,-664,1028
2496,-905,4097,-5994,1964,1179,734
2497,5364,-5600,-4367,1962,-379,970
2498,4476,2915,-5554,238,1255,-990
2499,-149,-4550,-3712,1418,-1372,-1727
2500,-42,5174,6334,-763,-430,-1806
2501,7491,-2523,2603,-1118,-612,-1808
2502,-224,2065,7072,-1140,762,-83
2503,-124,1984,5063,1250,-488,-279
2504,-4227,7303,643,-592,1506,655
2505,878,-5721,3389,603,1254,1808
2506,5239,-94,394,-76,-1616,-1108
2507,4214,-3877,1946,-712,-1585,1568
2508,-2581,3864,2358,741,1822,-835
2509,-2689,-583,-3742,-813,845,-1468
2510,230,3886,2005,981,-1935,-1137
2511,7297,5782,-1057,-755,-1787,1998
2512,7500,-6669,-6902,376,-536,1825
2513,1336,7961,1278,271,-1448,-1773
2514,52,5192,-2830,-151,275,-12
2515,7927,-2835,2950,643,1197,-84
2516,1466,1213,7823,717,-1856,-1968
2517,5142,-7331,-581,553,507,1348
2518,-5125,-3550,-4315,-201,-765,-85
2519,4319,-3935,5419,1177,-1486,-366
2520,1042,3383,5355,-372,612,1895
2521,-4654,-7554,-1586,-1935,-1093,1652
2522,2929,-5336,1105,1039,1635,1687
2523,700,-7147,-541,877,1754,-445
2524,6739,-1340,-5050,1816,-337,-1088
2525,-6898,-6470,2924,-144,-1634,1046
2526,3345,4896,6095,1476,768,1406
2527,-927,6086,-3548,826,1113,628
2528,-2686,-2023,-6858,1969,1856,1682
2529,-408,-6989,648,-847,387,-952
2530,-7267,-7595,6084,1432,-311,-1117
2531,2629,-4873,-7221,919,820,1192
2532,-5986,-2740,3542,414,408,1204
2533,-1773,-2066,-5794,1292,773,-1149
2534,-3120,-4756,-7532,-680,1901,-434
2535,-3221,1603,-5560,160,808,-729
2536,705,2801,-6757,-546,-866,-1634
2537,6869,-5697,-2348,-1708,1858,-768
2538,6107,5336,7333,-1328,-949,-1389
2539,6037,858,2123,-236,-1113,570
2540,4104,-5902,-3990,1438,-369,-1849
2541,4262,3463,-2905,107,321,1425
2542,6708,3285,1388,313,-123,378
2543,-3809,-2025,-4356,1852,1788,-171
2544,-6684,-2307,7247,1452,-728,214
2545,5863,-7287,7365,-89,-1920,1689
2546,6916,2864,6541,-87,-1627,-957
2547,3846,-3043,2453,-682,-53,-46
2548,-2333,-2418,-217,-1398,-9,-536
2549,2413,7874,1490,-1117,-700,-692
2550,-5243,6129,-4675,1696,-1432,-809
2551,-5334,-2528,2531,-1866,-838,-922
2552,-1323,4116,-5437,348,-1258,-1624
2553,7881,2119,-1486,-1745,620,-1783
2554,-2616,-7315,3544,-1912,1838,549
2555,5875,5284,-5518,586,-1020,-1839
2556,6349,4690,4584,1601,-221,1117
2557,-2098,-2011,-7423,-814,-277,-883
2558,-5985,-4978,3956,-1068,920,-909
2559,-4838,4292,-7957,1479,-455,-1007
2560,-1765,-1039,-7874,1835,1808,953
2561,-6105,3218,1459,-1267,-28,130
2562,400,3893,7580,930,-931,-1393
2563,-3516,4044,-4276,-1060,1665,1394
2564,-4174,4229,3080,327,496,1641
2565,-5587,6177,3631,1073,78,-77
2566,-7021,5050,6155,746,10,-1164
2567,1009,5405,-5421,318,-48,-1880
2568,-1350,-188,6583,1295,28,893
2569,-4304,-7756,-4256,-1879,-1045,910
2570,-7229,-6750,5542,-161,386,-1826
2571,6317,7783,1846,-395,-1015,-298
2572,6886,-6114,3266,-876,1402,-1600
2573,-6195,-6539,7995,898,-1812,-1000
2574,2956,-4445,-7962,1580,10,1650
2575,4241,-4263,-2866,-694,-1352,-1438
2576,566,4771,-583,243,1864,-742
2577,7698,-7986,5520,202,-161,1180
2578,744,-2780,-2171,-1158,-1801,254
2579,5754,-817,-1039,-1257,-1071,739
2580,1839,1627,5668,-1023,-1150,1765
2581,-6538,5330,7316,-585,9,1118
2582,-7877,4443,-1976,-1949,-1370,-1452
2583,-2952,5299,-828,-1910,-1930,-1086
2584,-165,129,-189,1229,1974,399
2585,377,-1733,7672,-878,111,-703
2586,-7126,7070,-7235,580,845,223
2587,-1964,-3611,-3735,1494,1278,1217
2588,367,7507,-7203,1001,-131,-1816
2589,6714,5111,-5591,373,-37,-1170
2590,7510,-1857,6656,963,-1495,-914
2591,3166,6673,-5396,-40,1030,1275
2592,3147,-4141,4989,458,1195,-821
2593,-4828,1936,-6816,-1208,-997,-1502
2594,5607,-3294,7823,-1917,-521,-649
2595,-3781,401,-6593,-343,-1601,390
2596,594,-596,-3244,1846,-1844,1486
2597,1714,6033,-1371,94,577,-707
2598,-3846,-7314,-5869,-1277,-1713,59
2599,-2533,4620,6419,1549,155,1615
2600,4548,-3550,2218,1616,412,1571
2601,3203,-4261,5787,-224,-172,-1202
2602,-5288,-6796,3935,1558,590,365
2603,-1667,-1962,1026,-445,49,1307
2604,70,-468,-7329,-1620,773,1864
2605,2306,4157,1172,344,692,-966
2606,5134,2198,1260,-1561,1233,1633
2607,-3468,-4051,-455,-1607,-606,1908
2608,-2364,-1409,-5711,-656,-569,-1777
2609,-7027,-157,4218,-1200,672,1224
2610,-265,1925,2263,1759,56,402
2611,-6410,-1034,2313,1194,-1614,770
2612,4048,-5597,4673,477,11,367
2613,5687,1071,4957,-1141,-1706,1196
2614,-6370,-3703,7851,-1019,-742,1311
2615,6302,7537,2405,-1365,-1252,1844
2616,7325,-6566,7170,-153,1458,-1938
2617,-366,-508,-1487,210,-1184,697
2618,7942,-7420,745,-873,-28,-1210
2619,738,-6214,2164,1260,1890,-1943
2620,1090,1020,-13,206,480,361
2621,7707,2268,-2028,-705,-219,-991
2622,11,7952,1467,325,-1959,-1358
2623,-3253,5655,1570,509,-853,-120
2624,3542,-1377,-155,678,-1990,-1267
2625,-394,-5021,1541,632,-609,17
2626,-7620,-1233,-4243,-1562,-1295,223
2627,6136,-6455,-2711,1534,537,-82
2628,5691,2163,-6272,1339,1792,801
2629,-3674,-7587,5461,783,-1115,1253
2630,7824,2605,2491,852,1640,-1223
2631,-3211,-4034,5954,-938,301,-347
2632,7820,1870,2356,-1257,1301,1541
2633,4513,-33,-4195,-1372,1499,-1081
2634,-1929,1229,-3524,-815,-1777,386
2635,-3300,7058,-2511,-1510,-164,-1245
2636,-7135,-3888,-3009,1462,-233,1046
2637,-1836,7849,7138,-1132,89,1468
2638,-3095,-3621,-2490,-713,257,-97
2639,-7545,7005,-721,1916,-1098,-1684
2640,5711,-2247,353,1603,723,286
2641,-5915,-1900,579,1542,-1850,1530
2642,1638,4069,5242,470,-1355,-1386
2643,6130,2367,-2292,-393,-610,1683
2644,-5215,1226,3050,1880,-863,-774
2645,-3966,-4258,7960,161,-200,449
2646,7728,4510,1549,-1541,-1613,1179
2647,-5920,7600,-2940,1249,1654,388
2648,-3156,-2875,7269,860,-854,1059
2649,5935,-4046,3706,470,-695,1064
2650,2812,-4569,-1338,1355,1516,981
2651,661,5842,-2140,-1176,349,-577
2652,3320,4455,-1423,-934,82,1364
2653,-4422,7550,2012,1146,-1346,-563
2654,3357,2627,6465,1096,1512,1768
2655,772,-1239,-7790,-171,-127,-1365
2656,-44,-6453,2370,-1210,1458,1935
2657,760,-1776,-2951,395,-991,277
2658,4295,-714,6862,388,-1770,1422
2659,2057,-4082,2963,-401,-783,-639
2660,4401,7741,-1472,-1202,522,-1133
2661,5318,1129,-6330,1685,-305,1516
2662,7128,-655,3637,-405,-1720,-279
2663,-2723,3670,5025,-1046,842,1098
2664,-229,11,4663,-1823,-380,754
2665,-3464,-7662,-3792,477,-994,-36
2666,664,-4518,-831,-1548,1418,-15
2667,-7537,7060,-7668,-817,-1004,-1391
2668,-7618,3430,-4266,-1952,660,208
2669,-172,2835,1421,1990,-1719,1997
2670,-5644,35,-1775,-63,-952,966
2671,-858,-239,-3399,1289,1331,-1086
2672,3654,-6547,1003,-431,59,1242
2673,-4078,3606,-7237,-1965,-325,463
2674,3621,6079,5854,-1351,508,471
2675,2013,-6796,-18,1753,663,-75
2676,-4893,7750,3061,-1919,1145,1557
2677,-2475,-3796,4285,-719,1155,-200
2678,7177,1528,-6052,1345,1449,-600
2679,-2778,6008,-3346,-1864,-1050,-366
2680,3044,6690,-2622,1718,173,1823
2681,4824,2513,5758,-292,-1698,-1801
2682,-7051,7876,3833,-155,-1186,-6
2683,1880,1206,2053,-1338,1539,-876
2684,5107,-4111,3248,-1192,451,-1618
2685,6911,-3518,-4896,-1697,-1269,-155
2686,198,-3168,-5290,380,-58,758
2687,-3478,-4283,5649,973,-1489,1266
2688,1641,2600,7673,-1812,-881,1025
2689,186,7832,5309,-508,-1251,-730
2690,-1274,-2387,-5273,841,-1330,192
2691,-5033,-3199,4276,1428,1285,-314
2692,4612,-2491,-5901,-429,-54,-1243
2693,657,-4689,-251,1426,-378,-1784
2694,-2656,749,-2489,-1505,1798,414
2695,1255,-7400,2251,-440,1580,-1045
2696,-4455,-3369,4802,-806,-600,-296
2697,-7845,7633,787,397,-1303,-1019
2698,6625,-3273,-5793,249,319,356
2699,425,-891,-7666,-262,1862,1439
2700,-3277,-7790,-7939,1502,-788,408
2701,-5323,-268,-2943,1056,1863,998
2702,-2256,1200,7212,326,735,245
2703,-7893,-5294,-5642,-445,-481,-1770
2704,-2318,3950,3539,-1126,1130,1432
2705,2786,406,-1886,-881,1439,-197
2706,-1956,-5910,6891,407,1887,1493
2707,5466,5071,7375,1249,-1124,-162
2708,-5586,582,-3747,1407,98,-811
2709,4466,-3322,-3938,-1660,-319,695
2710,-1749,-655,-707,979,-861,1852
2711,2672,-4490,1295,-850,-1041,-10
2712,7078,-1264,-6527,155,766,-766
2713,2443,-2124,-3796,1098,-212,-1514
2714,5224,-7683,2879,1205,803,-451
2715,5935,6355,7636,-1835,138,-940
2716,-4057,-3174,-6821,267,-32,1368
2717,-493,3303,-4869,-66,-335,1890
2718,-392,-1842,-227,-1855,-829,-126
2719,3525,-2513,-6782,92,-1185,-1992
2720,3522,-210,-5365,1681,488,502
2721,3645,-17,-1241,1753,1058,-710
2722,-10,-5394,249,649,513,-646
2723,4732,4205,2933,-879,-621,-270
2724,-4296,7105,5214,1028,-1210,678
2725,-2972,-2538,5200,1754,1721,-1202
2726,692,1559,-5354,1310,441,432
2727,-7538,4878,2809,-755,1510,-1697
2728,-7844,-1253,6524,-1010,820,1506
2729,4824,2511,-4438,-837,1198,105
2730,7768,4778,4475,1310,-194,-1348
2731,844,-3373,-7436,-435,710,549
2732,-5225,-3800,-5407,1581,928,-1119
2733,5327,-2846,-5588,-14,-1001,-1841
2734,-307,-7874,2829,409,1596,-1864
2735,-198,2044,3050,733,15,312
2736,-427,-2412,-2284,-1217,-723,1515
2737,2584,-6189,6224,-1364,1041,1377
2738,5926,-6163,7899,-1651,300,-277
2739,-1681,3429,7270,-1442,-628,-603
2740,-6720,-2903,-325,1728,551,-1416
2741,7959,710,3419,1557,471,-615
2742,-6882,7591,2914,1051,344,300
2743,-2354,-4270,1987,1244,-1683,1343
2744,6395,-1837,1692,-369,-1218,-1221
2745,-2435,3151,-602,1685,-313,-1016
2746,-4162,-5223,-2521,269,386,-1638
2747,-2294,-321,-1272,-61,65,1202
2748,7853,6296,-384,-1952,1553,-106
2749,5740,-2811,-3121,-1140,658,1806
2750,2673,7046,-3494,844,1183,1860
2751,6495,-3057,4573,-201,1869,63
2752,91,2030,-5095,-1284,-212,1151
2753,2315,-1574,479,1054,626,1996
2754,6890,4751,3135,633,-1142,-592
2755,1564,6756,-2136,213,476,880
2756,6768,2616,2537,-376,242,-888
2757,-1967,-244,-3180,-1115,695,-526
2758,625,-7887,3996,-1203,276,382
2759,6418,-1452,-5691,174,1639,-1606
2760,-1500,-5043,4548,-1591,-1710,1608
2761,-2409,7971,-1487,-1285,1583,-1177
2762,2444,-5407,-4183,-884,906,490
2763,5042,5531,7185,884,-637,125
2764,1503,-2159,-1817,-559,897,-360
2765,-1489,-881,-5485,1893,1061,-262
2766,7283,3330,-5734,-1525,-1976,-435
2767,-4965,-6717,-6886,1017,1219,-1313
2768,-5327,2189,-5019,-1356,610,-1238
2769,-5649,3193,6556,1434,-809,1680
2770,-4993,-5770,7405,-1731,-628,-720
2771,-6459,-4365,2402,-1772,-748,1869
2772,1798,-2357,1688,394,-194,-1863
2773,-556,-2462,-2587,1415,-401,650
2774,668,2337,-803,-207,1273,-1941
2775,-5653,-4061,1264,1986,-1912,-905
2776,-6635,6079,4758,879,1151,1572
2777,4276,-2206,-3763,1115,542,512
2778,1679,-1618,-1104,-1692,-1160,-133
2779,636,-3041,1394,-663,1700,-1466
2780,919,-1602,3736,659,104,-1515
2781,4005,-7706,7109,863,626,-1102
2782,6134,6614,4022,1767,-1644,-89
2783,-7198,-1651,-305,1644,997,-117
2784,-6643,-1501,3037,743,1171,1395
2785,-2071,7490,2259,850,1896,986
2786,3025,-2705,-7676,-1418,1630,1583
2787,-2167,-1702,-4579,1873,386,581
2788,-7274,-985,-6694,609,-1405,1588
2789,6596,51,-6827,1068,518,-384
2790,-2507,-3048,-7199,54,-1865,1956
2791,1692,1956,-4538,1799,-20,-975
2792,-443,5499,5645,1416,1122,1471
2793,-3532,4271,-2033,123,262,235
2794,-6765,-2879,-5131,1388,1875,637
2795,-7333,-415,7386,-478,-1504,-333
2796,6669,-2479,170,-1167,-314,21
2797,1868,7115,-4912,1153,-1720,-115
2798,6548,-5554,4073,1677,-1761,183
2799,6046,5440,6935,1129,219,-465
2800,5942,7784,5837,-637,-156,-1744
2801,3468,-4283,5064,380,-29,1761
2802,5453,-5299,2199,-1998,1245,-511
2803,-4546,-6727,-5959,-273,1368,-598
2804,-5085,-3094,-3363,269,-83,57
2805,-5279,-5731,-4241,-1647,995,1956
2806,7683,-741,2749,-599,1061,-1446
2807,5306,-2195,-318,1551,-1195,398
2808,4897,3846,2175,576,-373,-220
2809,-2144,-5828,-6840,969,1589,1574
2810,3781,7648,1659,515,-504,759
2811,1315,-1889,140,-662,-1685,-560
2812,-3324,-4195,3945,1684,544,-1202
2813,3578,-2311,-819,283,-899,656
2814,-2818,-4243,-119,-1135,1377,-223
2815,-6636,-4857,7848,1107,1329,-33
2816,2475,7770,-1044,-580,525,-655
2817,-2338,1677,7373,-1582,1642,1553
2818,4567,3258,813,-674,-992,-342
2819,-4764,-1649,6007,-1100,-908,614
2820,-1280,4175,4803,411,1102,1086
2821,-1084,-3677,-4421,6,1480,1699
2822,-346,-6072,1604,574,955,-148
2823,3297,2619,6114,99,-859,809
2824,2515,1653,-2609,-275,1301,-1371
2825,-3902,4029,1173,-1208,1205,-1909
2826,-2319,4858,804,-1329,1127,-512
2827,-6654,-1167,7406,508,-969,1520
2828,476,-7548,-3519,-1645,1850,1845
2829,-6006,1661,-192,-1733,-1242,-1513
2830,-3633,7345,7480,1323,807,-83
2831,640,4412,-6389,-1802,-629,1798
2832,974,5524,7897,-1856,-24,-1579
2833,2547,-1780,-6045,1617,1947,-1573
2834,-3198,-6466,5272,1883,1346,-979
2835,1250,-7227,-987,-822,-1289,-957
2836,1118,5869,-7829,754,1956,-959
2837,-3007,-2045,-1577,308,1974,-1362
2838,-722,-7781,-2624,-1772,-901,726
2839,1969,5468,2630,962,-1053,-616
2840,-1734,-4182,6766,1491,1373,1264
2841,5337,-1946,3881,-409,-1123,53
2842,-2820,-7877,-1577,-1552,-843,-1804
2843,-4192,-870,6417,-1416,-999,-973
2844,4660,-1683,-3560,-1795,1717,-1630
2845,2540,5726,-1704,279,-1660,724
2846,5695,-5010,6656,-938,-1263,1502
2847,5086,2612,2955,311,1967,-903
2848,-859,-4234,3499,-1626,-1359,-735
2849,-1482,-955,7589,-1810,479,-1230
2850,-1437,3222,-5178,1438,1908,1159
2851,-1639,5881,4324,-820,143,271
2852,4020,-1938,-5821,1728,-916,-849
2853,-6291,-6837,-7595,-1928,617,610
2854,-4630,7065,-37,1840,-853,-1373
2855,-953,-6170,-3504,1612,-1135,-1590
2856,-7562,6437,-6287,-52,286,-317
2857,7030,-2100,-7620,1404,677,768
2858,-3274,2521,-5852,-477,-1166,187
2859,3147,7805,-3958,1276,1569,1114
2860,-2261,6638,4785,-1401,931,1362
2861,-3012,4982,-5257,1899,1572,-1347
2862,-5860,-4786,7686,1596,-61,275
2863,946,-2195,-973,-185,1976,-1980
2864,-7373,-4275,6310,-1001,-767,381
2865,-7132,-5201,-5809,131,-1478,-859
2866,-6788,-6101,-2610,-83,-1892,1540
2867,-1120,-504,-327,660,1142,636
2868,-819,2093,2594,1025,-1886,1663
2869,5197,-973,1658,-617,-1416,-422
2870,-3747,-1572,-279,-1915,-804,536
2871,-1137,-6656,7780,-1327,-936,-884
2872,-6382,-6110,-2924,317,1864,609
2873,-4330,383,1608,-779,-965,-1633
2874,-5985,11,276,-435,1754,-2
2875,346,894,-3744,1607,-1850,-400
2876,-2329,3515,6011,-295,1093,1383
2877,183,-4518,3782,298,1773,1557
2878,-2856,1590,3988,234,-1566,-547
2879,-3142,-7696,2473,1302,-1329,-448
2880,-1937,-6470,7216,950,-772,-1742
2881,-6369,-3102,-5392,998,-976,723
2882,-3216,1898,-7463,-1043,-1824,294
2883,3623,-727,7795,1009,813,290
2884,455,-1941,3195,-371,1204,-1486
2885,-1008,3886,2283,373,915,450
2886,-4095,5526,-6507,-1897,-1640,-322
2887,-3666,3631,-3041,-1390,-1302,-609
2888,598,473,-989,-1641,-963,123
2889,5590,-2515,-255,-405,-729,826
2890,5000,-6951,-3273,1604,-782,792
2891,2396,1419,-5022,-679,1974,-1259
2892,-36,-2292,-5485,702,-737,1560
2893,4828,619,592,-489,177,-114
2894,-3251,-5807,135,831,-591,576
2895,2809,3821,6297,-1359,-1538,-1969
2896,-2489,-7809,-7847,1686,-1975,1979
2897,-1616,7389,-4230,345,-1105,-448
2898,4165,3023,-3848,-794,101,-1890
2899,6348,-6978,4110,587,-1907,-1967
2900,6941,-5897,-3000,-614,-527,993
2901,5652,-7573,3937,-631,1541,1455
2902,1191,2041,-3154,1426,1834,-262
2903,-5202,5766,209,-1906,1081,961
2904,1983,-3291,-20,1313,243,581
2905,2718,-542,-5982,1400,1255,-104
2906,-3805,2091,955,310,-338,1702
2907,2795,-7373,-6740,-1581,1226,604
2908,2427,952,1032,-1137,-279,503
2909,4435,5684,-4952,-711,-526,1495
2910,588,-7686,4321,744,58,-959
2911,5826,-7350,-6606,1190,-1476,1270
2912,2390,-652,4062,-815,-1308,1608
2913,-818,-3633,5337,1925,642,-1050
2914,6819,970,-7601,-1522,-748,-402
2915,-3785,2478,-6748,-811,-754,975
2916,-5515,269,3668,52,479,-1637
2917,-6327,1353,7202,-1842,67,-1834
2918,1576,4418,2426,-1863,-1308,-1859
2919,6593,-6486,5846,-1636,1353,-419
2920,2110,-2260,7539,637,1495,-1229
2921,2004,-7591,-6271,516,1380,783
2922,3989,-3739,4093,1570,-632,-1794
2923,-5213,2849,6309,-1397,278,-372
2924,-928,-6603,4648,472,-627,-1553
2925,-5761,5002,-5160,-79,-911,1678
2926,-1364,-6068,-99,1479,558,744
2927,1197,5605,-6779,-1462,1151,-701
2928,5471,-5146,6768,354,-1608,-1245
2929,500,-2918,-923,-1659,-316,-367
2930,-4192,-7561,-1734,-324,-1791,-1752
2931,6158,7008,1720,1059,1162,358
2932,5437,1090,1048,-119,-532,-1431
2933,4285,-4427,-4106,-604,1699,758
2934,-4941,3821,3541,1985,242,-1733
2935,-751,1513,2264,1851,266,-1565
2936,-6948,1682,-323,765,354,-533
2937,-2552,-3839,-1201,-119,736,397
2938,1739,-5297,-5945,88,-1930,-364
2939,-4623,6122,-4731,1541,399,1859
2940,5861,-5537,-4176,-134,-1612,-1752
2941,-2660,-5734,2111,705,-1121,1735
2942,3136,336,-4758,-1976,-558,884
2943,-3716,-3141,-6799,-1209,299,-1400
2944,7926,182,3172,-1645,983,1867
2945,2653,2079,6606,1836,1897,371
2946,1384,2559,6015,-180,1247,-1241
2947,-1973,7128,-6251,1866,-590,-1361
2948,-7992,5724,428,1851,1641,1997
2949,47,-5452,-538,612,1644,1448
2950,-5285,-6522,-4335,-596,399,487
2951,-4032,-4612,2581,275,-542,-397
2952,5002,-1502,-2310,-1962,-1334,760
2953,-7120,-3884,-4246,-240,1943,1468
2954,2431,-7339,-297,12,-31,-1058
2955,6515,6971,-4588,-1591,916,-1413
2956,-2798,-6715,-2484,1842,329,-1385
2957,-2258,1607,-6709,-1408,-258,-1223
2958,7335,4831,1606,-1464,-1963,-1494
2959,-1591,-1860,789,1565,1001,-449
2960,-6592,2470,-2328,426,1090,888
2961,309,-3753,3800,481,-1129,1425
2962,-4641,-1036,-297,844,1093,652
2963,-7986,4145,-2809,-1082,-1541,183
2964,2584,-1393,-4685,1409,-526,1941
2965,3009,1772,4821,1460,-1271,-472
2966,4150,6555,-991,957,-710,-1284
2967,-4641,-4041,-3476,-1249,1625,-1100
2968,4362,3603,7087,-734,-401,-86
2969,6212,4359,-2323,-1591,141,154
2970,-394,332,-649,499,-1399,1903
2971,-7911,-774,5779,1585,-1646,1279
2972,5398,-2548,-5806,1631,-1811,-1624
2973,-6885,-1453,-3878,-554,597,-818
2974,1498,-7410,-6611,-1911,242,1956
2975,5229,5422,-5955,625,-1740,-712
2976,-5281,4851,-2723,-1405,-889,-395
2977,5302,6454,-6048,1955,-814,1065
2978,7090,-2149,-6707,212,-1482,-1297
2979,7350,-6584,-720,-115,-585,-82
2980,2194,7783,-2621,-390,-1252,-282
2981,-7739,-7617,-1966,-1602,-1380,-426
2982,-7895,-5834,99,1561,1457,1733
2983,-6220,-97,2037,-1447,1643,1814
2984,2427,-5202,-5856,-1589,-759,1042
2985,1398,-2813,-263,647,-847,-1813
2986,3720,-535,4683,1034,-410,1933
2987,-1381,-1753,6789,1522,-649,1778
2988,4748,7376,-3830,151,-61,1519
2989,-3397,-5700,2722,672,744,703
2990,5725,4223,-2445,-1191,-590,836
2991,6763,7398,241,-1084,-685,1253
2992,5266,1434,3206,-1662,1526,393
2993,6466,-2491,-1370,-680,-1082,-1478
2994,2324,-2282,-2651,-439,-533,-106
2995,-6098,1274,81,-199,-280,1605
2996,-1156,-6243,2764,-634,-562,737
2997,6195,-1362,1337,966,-267,-320
2998,-4228,-6032,6487,1052,-1401,1648
2999,6062,5818,2452,1445,-63,1396
3000,4053,-342,-2594,1500,-601,-762
3001,-7407,2082,-6257,3,1156,-944
3002,2455,1097,-4064,1925,115,-1729
3003,-286,6941,4455,782,701,-885
3004,-3288,5288,-5520,-5,1586,120
3005,7682,6210,6161,-439,-9,1605
3006,5398,-2466,-1880,-1543,1592,1803
3007,-6102,5226,-2188,563,674,485
3008,-5154,66,6716,-335,-1757,-1805
3009,2966,7211,-2167,-660,1778,780
3010,7427,-2716,-4439,-904,249,-843
3011,-3589,521,-6510,-371,1628,1319
3012,3303,-6888,-7565,1231,-1932,-1714
3013,-3555,-1488,-2225,-1346,-1911,-983
3014,1452,-5781,-3142,1532,-1853,-1376
3015,-6928,1380,-3141,1699,554,-1537
3016,-5969,3342,2986,1616,-1729,1798
3017,-7687,7168,3839,-683,-634,569
3018,4759,5915,1318,-1594,-611,-1933
3019,-1758,5613,-6236,23,1622,-140
3020,-5518,207,2681,-1518,1932,1757
3021,4488,854,-440,-1424,-1772,-1577
3022,259,-5573,-7307,-1344,-1329,236
3023,6588,5381,-3523,-275,-1240,84
3024,-3091,-7223,1378,1487,-911,604
3025,4976,-2525,7475,1315,1574,-1196
3026,3178,4734,3598,-812,-1591,881
3027,-4600,-955,-6358,-584,-1031,-1765
3028,-6299,986,5229,-1374,1481,-564
3029,-7257,-2504,-4092,-1373,1699,414
3030,6524,3692,2905,-953,1430,444
3031,2606,7627,2645,-166,-1186,1517
3032,5787,-2009,-1700,96,1273,1142
3033,4841,6004,-3891,-1505,812,1840
3034,-1829,-917,-55,1327,-928,1898
3035,-2924,7082,7402,1368,1611,766
3036,6389,-2515,4599,1605,-1777,-61
3037,6487,-1038,-6750,89,-785,1963
3038,-4904,7309,4428,1760,-1568,31
3039,1299,-6334,6631,-313,187,846
3040,563,3961,2623,1989,-1483,1954
3041,-704,-5146,5684,442,1316,4
3042,3159,2526,6502,-583,542,-181
3043,-7512,-3745,6769,375,35,-164
3044,-4374,4356,-7892,-1543,-221,642
3045,-6044,-3739,-1139,-1059,372,-1495
3046,-899,3235,4533,-464,900,-752
3047,-3015,204,-4923,1442,-85,1809
3048,1807,4354,5596,1564,92,1995
3049,7331,2973,4111,1971,-698,6
3050,1166,2750,-2735,-1363,156,-764
3051,5214,7560,-564,1170,-354,1110
3052,-695,-2506,779,1886,-1524,-120
3053,5452,-798,1845,-1919,368,1837
3054,-6761,6971,-5646,760,-1130,552
3055,3448,-2661,-6714,194,-1242,-184
3056,-1966,-5507,-1832,-207,-509,1399
3057,-1876,-2058,4416,-1368,549,1066
3058,6048,5856,123,-427,-26,1438
3059,-6724,6865,-3609,538,-208,-977
3060,-447,4575,6257,-565,-205,1300
3061,-7027,3074,3588,-64,-360,-1952
3062,6597,-4348,-367,298,666,627
3063,-4047,-1504,-423,-15,-469,53
3064,-5550,-1236,-7609,1998,-1726,-1202
3065,3302,4153,6653,-1995,682,1457
3066,-5280,4482,6683,-1379,-73,-1762
3067,-6879,759,4979,-1425,-1517,-1601
3068,6852,-530,-6184,1937,1231,-805
3069,183,-2468,6454,848,725,473
3070,3611,31,-1135,-585,-1177,-222
3071,4755,-1225,4381,-1669,736,-523
3072,-463,-3301,7016,-843,22,-92
3073,6448,-110,7557,177,-230,-470
3074,-7823,7262,140,502,-326,864
3075,-523,-6777,3842,-514,1818,1764
3076,7069,6011,-6151,1273,-1023,-1982
3077,-4096,-2377,-3657,-1900,-1628,1078
3078,-4134,5358,1253,-1257,-1613,-685
3079,-1678,-3042,-4970,1158,641,-954
3080,7634,-2382,-263,90,1069,-1763
3081,3805,-7434,-983,-1610,-157,-1287
3082,6893,6763,-1215,-864,-1161,-379
3083,1894,-4766,-383,1,1777,-1110
3084,-6447,5727,3158,-1433,-1999,1594
3085,7679,317,-1403,996,-953,-1941
3086,3359,-7181,-1815,1854,193,330
3087,7974,-6383,-6755,-953,-1593,-1598
3088,-5311,-3111,1285,1857,-1867,723
3089,-1310,-5728,418,671,882,-426
3090,7362,4481,-4977,1279,960,-988
3091,-3901,-2967,3887,1295,-1643,-1859
3092,3556,1666,5615,-944,519,-1468
3093,-751,-7623,-6443,-866,-1271,1006
3094,471,-1240,1704,-1894,1750,1353
3095,-4906,1334,-1998,-1142,-1198,-584
3096,7222,-2562,-5696,-451,1915,-1402
3097,3387,-1408,2353,972,1824,1063
3098,-3857,7581,4005,-1298,-452,387
3099,6394,4808,-6898,-1729,1202,695
3100,2564,3946,6580,1369,1665,1248
3101,-6588,-6696,7947,-249,1161,1034
3102,-1170,-2915,2833,-1438,-1746,-1221
3103,-7190,612,-6734,-803,-733,-968
3104,-6332,-4741,4075,537,-1498,737
3105,-7352,1726,6397,1316,1346,14
3106,-87,-3824,3884,787,-378,1445
3107,-1623,-5066,2149,-1601,-1618,-1749
3108,5639,-4986,-2303,1096,-198,1984
3109,-149,-6179,6606,721,1339,760
3110,3802,2560,-5331,-385,192,1636
3111,-597,-5069,-4970,-133,-185,-830
3112,-3561,5737,650,-1982,1464,1983
3113,6772,7991,256,-202,257,84
3114,-7079,7387,-7688,771,714,509
3115,-5246,36,-2901,-434,-503,-274
3116,-1414,-6924,-3923,1431,-734,1314
3117,-4139,-3256,4804,-1707,-1837,1264
3118,-607,-772,-7561,-1581,-510,-1790
3119,6859,3843,-7410,1416,1303,1436
3120,-3428,1845,-2499,-759,-315,-1747
3121,30,6693,-238,-1750,1281,712
3122,4060,2882,-6462,1576,1370,298
3123,-2578,5458,2461,1607,1351,1108
3124,-5549,-5339,6194,-1597,-956,526
3125,4366,-4843,-925,372,897,1691
3126,-6377,-159,4143,1559,1675,529
3127,-2859,7549,-6619,1405,1167,1392
3128,-535,2014,1179,-1615,1768,1926
3129,-597,6895,-166,768,-487,353
3130,-3425,-4973,7857,-1901,-784,1722
3131,-3079,-673,6494,946,1788,-1464
3132,4413,-439,5728,603,148,531
3133,5886,-5960,1025,-1561,-1514,-1072
3134,-76,-3150,-6001,500,-1135,-72
3135,-2360,-4601,-5848,-1305,902,200
3136,1098,-6553,7300,906,1668,577
3137,-3820,213,942,1268,1230,-709
3138,1752,2823,-4655,-1888,-1287,1893
3139,-5373,-2006,1541,-318,862,-1135
3140,-6210,1075,432,1415,-54,-1761
3141,3741,-5484,361,416,820,83
3142,632,2216,4852,1104,1353,-1257
3143,-6345,3741,-4974,-185,-579,-1387
3144,-1137,5379,-5775,-386,771,-839
3145,-3852,4467,7490,-1224,-793,-1967
3146,2178,-1947,-7118,-261,1001,542
3147,-4375,6108,-2611,-6,-895,682
3148,-1752,6543,-5446,593,-1966,370
3149,3301,-2510,5691,-903,1329,844
3150,-7702,-5563,-1861,737,732,1042
3151,5656,2749,6770,889,-1515,1798
3152,-6823,-386,4492,1939,1636,-44
3153,-6771,-158,5961,1191,39,988
3154,-2908,6621,1698,480,906,-1654
3155,6619,7162,1978,-97,-1359,-722
3156,-2321,3487,-5805,1490,1029,1829
3157,-2267,1607,-2741,-505,124,747
3158,-169,3422,6172,-30,-1942,-68
3159,7853,2422,7025,-1274,858,1729
3160,5698,5838,5801,-279,-571,-260
3161,4416,-3267,1675,-463,-609,-1174
3162,-5368,-3154,3204,114,-1660,1874
3163,5931,6851,-5362,133,-1742,-210
3164,1904,-106,1263,-768,827,-870
3165,6820,5094,-7775,756,-828,1342
3166,-563,6736,-7124,-1662,522,489
3167,-7943,-1088,5080,-117,737,-698
3168,-1151,7847,1016,-1929,1782,-530
3169,6958,-1507,7675,1777,-28,-75
3170,5852,-4429,6274,-1501,309,517
3171,1334,7929,2156,-296,735,-477
3172,2078,4810,2597,-1879,255,-298
3173,2556,-1558,295,56,1657,1509
3174,6840,7541,970,1403,731,39
3175,6349,-6142,-714,-227,460,1078
3176,4703,-5601,-1390,1961,-610,-1146
3177,6381,5737,-4593,1086,-1866,485
3178,2104,6244,7131,-1483,-1046,1733
3179,6284,-4336,5709,873,686,304
3180,0,4329,-1527,163,-774,-1989
3181,-1604,7359,-4046,-102,930,-509
3182,5590,-1785,4477,-95,1148,-1425
3183,-4145,-7842,7585,-376,-1601,-919
3184,-2507,4318,87,1556,-725,565
3185,2958,-369,2449,-1902,-1582,-319
3186,3172,-1180,5710,21,-1450,717
3187,2536,775,-1784,1567,-729,-744
3188,-2872,-3736,-2663,-1722,261,1836
3189,-7536,-1317,7731,780,-124,176
3190,-2334,-6886,-4821,-1679,-1770,1979
3191,5161,-389,1827,1796,1577,-1325
3192,841,-1464,4551,1812,1473,-94
3193,3381,5841,-5064,-908,1931,1649
3194,-2418,2840,-4439,127,-1347,773
3195,6993,-6980,-6932,-1790,1797,1663
3196,-5981,3080,1803,1653,1243,-1035
3197,1316,38,-3897,530,-639,1969
3198,-5741,-3511,-429,-308,-42,1983
3199,-3256,-3727,5056,-1599,-1488,-1615
3200,-851,-5264,-894,5,387,1951
3201,-5047,-6727,-114,-188,81,-1439
3202,176,2122,-2706,1087,1944,532
3203,-7390,-5669,-3619,1293,-672,-1179
3204,-7472,1693,3032,-1313,1422,-656
3205,3056,-7391,-1061,-13,-1788,-704
3206,-5838,-1075,-6977,-1465,271,-1863
3207,6205,-1715,-5494,-363,-1407,-1139
3208,-5606,3277,-5818,1664,946,749
3209,3796,-1689,-6959,-1080,157,1841
3210,-4154,1980,-4228,846,-462,-93
3211,-4787,-4013,-1514,-659,-1096,468
3212,-7384,-3744,-3778,-818,-1651,878
3213,3912,-4812,-738,833,914,921
3214,-4728,2717,-2501,633,-767,816
3215,2068,-988,-3768,1326,-1584,1278
3216,1290,354,245,490,899,-1425
3217,3471,-2759,-1111,1940,-111,-1444
3218,7215,6025,-5387,-936,1439,-1282
3219,-388,3692,2002,-495,-1873,1182
3220,1300,-6888,-211,-505,1198,-1809
3221,328,3924,3429,810,63,559
3222,-3958,7666,-9,-320,74,348
3223,-2099,-7347,7018,-1456,-1483,1234
3224,-3669,3865,2835,492,798,-1396
3225,353,6905,3013,-1971,1130,1813
3226,430,-2703,-4089,-1805,152,453
3227,-2869,-5482,3083,-1403,-1732,104
3228,5726,-4944,7208,-1895,-164,1517
3229,3056,-4763,5242,1848,-536,-822
3230,5704,4614,138,1451,1687,-1204
3231,-1393,-6726,-4133,-1920,-1254,164
3232,-6130,4300,-4614,-550,1803,1616
3233,7442,-4135,5545,481,25,-288
3234,4483,-6379,6845,261,-1348,239
3235,513,-4155,299,1354,1825,750
3236,-2553,947,7273,-3,-1498,1740
3237,-7977,-1376,3748,-1749,933,675
3238,-7054,-5925,-1437,1073,-1651,743
3239,7302,7578,-4589,108,-958,1163
3240,-5069,3265,1250,1825,60,879
3241,4910,-1291,6920,416,1311,-1105
3242,354,2322,6343,843,1548,-1187
3243,2830,6734,-5514,676,-1284,1908
3244,-3484,-4018,-841,-95,-878,1946
3245,1034,-5424,4349,-86,-1515,1285
3246,-2243,2799,-2878,-589,-759,-601
3247,3890,349,3009,577,282,-459
3248,4876,-6272,523,-943,-1556,457
3249,-6267,-6481,-1720,1753,-1688,1774
3250,-5729,-6053,7126,882,1933,-623
3251,1809,-5179,7585,1701,-1824,524
3252,-3511,-8000,3545,-1365,1723,-649
3253,6675,-4601,-3369,-11,-1048,938
3254,-4654,-5915,-2591,219,-1669,1940
3255,-6414,2025,5847,1727,963,-79
3256,-7953,5811,-1,-286,-548,278
3257,-3134,899,2035,626,-1448,678
3258,3706,-7658,5173,1436,-238,1471
3259,7580,-6404,4157,-967,286,-473
3260,-6492,7020,6442,1592,-395,176
3261,4297,7841,1530,1494,1101,1706
3262,-1462,601,3593,-1033,-1789,737
3263,-2070,3382,-1398,-1895,1861,1654
3264,-4050,4110,7379,-474,-1775,1530
3265,2243,3494,-4961,1828,267,223
3266,1466,-5752,5308,-1995,115,-1840
3267,-350,2801,3383,140,1,1544
3268,3882,3778,-6650,1962,1436,834
3269,625,-3702,6208,-26,1840,-876
3270,2308,2809,-7240,905,-235,-1866
3271,-334,3690,-7786,456,-1907,758
3272,-3717,-4743,6131,648,-1723,623
3273,-3037,1197,3487,238,-346,-1092
3274,-3484,7852,-3332,-1191,-287,640
3275,4887,1469,6680,-1307,426,-1927
3276,-1620,-2354,-4845,-299,-232,1804
3277,5056,-1308,-1330,-1440,324,-1729
3278,2702,-124,-4903,982,-81,-744
3279,-6518,-6179,1873,1005,364,-1869
3280,-991,-406,-1654,-324,1786,-1523
3281,1278,-3743,2777,549,81,-217
3282,-4388,-2874,1948,-540,540,404
3283,-7854,4300,-3176,948,1214,290
3284,4086,761,-4557,-1753,-1381,818
3285,2793,3094,-7322,1293,-88,-1116
3286,-4767,6600,1260,-1805,-1238,1572
3287,-269,-6857,-2590,1616,650,-1549
3288,-1431,2929,1730,436,1318,1142
3289,-5823,7670,-7110,800,1084,325
3290,7641,1988,1289,-402,1704,231
3291,4433,1850,-5940,-1710,-1004,1216
3292,-7388,-2475,2944,-454,1415,292
3293,6053,976,-2473,-1810,-807,-1704
3294,2376,7175,-2436,-1201,1905,1763
3295,-7144,775,-6260,-1861,436,-934
3296,-102,1703,-559,-626,1302,22
3297,2027,-7688,-5570,866,-745,-736
3298,-7439,7045,-5860,-461,48,931
3299,1812,7050,-3149,80,222,-1662
3300,6814,-4339,1468,-1133,-1493,-645
3301,5904,-3067,-5633,809,128,-969
3302,-5792,-768,3287,-1822,-1926,-147
3303,6903,-4177,-1244,-161,1482,634
3304,-1171,-1796,-6763,1684,-655,905
3305,-6805,-5823,-2543,-1676,1899,-458
3306,-3564,-7815,7884,1905,-1518,421
3307,-596,-3471,-4537,1137,1807,121
3308,-2032,-2638,-2751,1999,1999,1893
3309,1570,6533,2099,1307,-918,1110
3310,-3052,2668,2133,-1277,-746,1498
3311,-6349,6027,605,263,-1846,-314
3312,3154,-7085,-765,-1741,548,1153
3313,4213,3902,-7731,1962,963,-1585
3314,-2798,-717,3458,-1967,1810,803
3315,4675,-1652,-1407,543,-1545,1439
3316,2154,-2170,6314,-848,1320,-1643
3317,-1212,3493,3354,318,-1061,1151
3318,6703,-6842,2295,794,-581,-880
3319,5548,-6041,7903,-329,1816,1810
3320,-7602,-4617,5394,-598,883,-1174
3321,1801,-1079,166,-390,462,-379
3322,833,-2078,3831,1111,-608,-1022
3323,-837,6586,-4664,102,-953,-1786
3324,7589,1462,-3060,-842,579,-924
3325,-5145,942,-576,842,-920,85
3326,-3556,-314,6825,1875,-1506,917
3327,-3812,-7195,-3231,-334,495,1460
3328,-6181,6097,-5247,-1274,-335,-1031
3329,-7050,-2855,1062,-1701,-1242,-184
3330,-7558,2345,-4847,1175,1469,-828
3331,3332,-393,-1254,324,-570,1855
3332,-2509,7783,-1175,-811,-420,-1636
3333,-1213,5448,-5055,1893,1026,-1634
3334,757,5733,-5962,979,-1160,-86
3335,7940,-6459,-6404,399,296,105
3336,4140,3968,7238,-532,-1008,1331
3337,-4176,1954,4101,-1009,-1587,366
3338,6226,-2085,-6398,-1073,-1658,-193
3339,1049,-7703,-3388,1345,653,-425
3340,3193,5270,-4340,-498,-745,-486
3341,-5890,-7795,-1808,1494,-156,1767
3342,4503,608,1165,1560,-1693,-1606
3343,5152,2644,406,1497,1697,-1099
3344,-6497,-6563,-1001,212,402,1523
3345,4821,-2773,657,-1322,-1356,1801
3346,3653,-7001,5352,-1508,466,1156
3347,5253,4944,793,1402,-1536,-950
3348,-5729,339,5691,-1281,1175,-1689
3349,7270,-2142,-1350,-1735,1738,-58
3350,-5824,180,597,1406,-860,-437
3351,-4167,6358,4035,909,1820,-200
3352,4366,1633,5570,-1070,-1423,868
3353,-6856,3484,1797,767,242,-916
3354,7289,-3282,-127,-732,1375,-727
3355,-4843,5254,3089,-1158,1726,-570
3356,6458,4465,5115,-1493,136,187
3357,6129,-4679,-3843,-1990,-712,-1934
3358,-7822,3874,-1993,-160,-1335,-1203
3359,2159,-370,-6355,298,-1261,1493
3360,-5892,-6373,6248,1767,796,-720
3361,-1987,-2707,3988,1425,1062,1921
3362,2440,-4360,2820,1621,-1397,199
3363,-2416,2432,7998,-450,-1053,-52
3364,844,4936,-4809,-1434,1171,-1038
3365,3557,-3413,-2310,-265,-1813,-1328
3366,-1276,-2726,-1928,1064,-775,-1636
3367,297,-4573,-6326,-524,-1511,-1789
3368,-1572,-3457,-7122,197,-4,1192
3369,-2499,-6244,-2161,1641,-472,-356
