Sample,Ax,Ay,Az,Gx,Gy,Gz
0,4473,-7260,-81,1017,1681,635
1,7745,4219,6355,-1733,1491,1301
2,-1380,7025,-4653,-1814,748,1886
3,-2652,4774,7731,1952,-1785,-622
4,7331,-3179,1411,-140,1482,1807
5,4870,824,-4721,-1534,-1410,-1929
6,-3806,7635,6673,-1361,1398,293
7,-1936,3828,636,1651,621,615
8,-1974,519,5108,615,616,1432
9,-5259,-1527,-4659,1965,-1404,1128
10,-5584,1297,7267,1995,172,-430
11,3886,4939,-6886,-1959,1569,1069
12,7446,-4546,7531,-1454,1334,1328
13,6045,7491,-2187,-678,-1424,625
14,-7509,5389,3694,-154,-1467,1425
15,5564,2512,2756,444,-1877,-430
16,2439,-3781,1357,-1227,-19,-833
17,7645,-6383,-4205,-439,-1834,197
18,2862,-6515,1690,402,-1614,-1936
19,6507,-1557,6488,-1751,1619,1025
20,6406,-7191,-953,-546,1051,-957
21,4239,-4340,7732,863,-1274,-1153
22,6804,-3561,7976,1762,-1034,-621
23,2442,-2105,4481,718,473,384
24,871,5548,-413,1210,1465,-974
25,-6769,-3082,6962,-753,-648,-1654
26,-4115,-4433,4099,-1526,1644,1912
27,1263,6985,-3204,158,560,1230
28,5092,-5158,-6658,-923,1126,1537
29,1108,-7428,-7937,-726,633,-122
30,-7479,1866,-2210,-762,-920,-727
31,-2774,4268,-904,-1636,484,-381
32,-4892,544,-956,-897,-725,-760
33,-5052,-1885,-2812,1366,-1107,-997
34,-4922,-382,-4733,-1742,-1228,-485
35,698,-3542,3383,1779,-1612,-39
36,1056,4014,-3269,-229,-708,-292
37,4718,-3953,5011,625,-1980,-632
38,6081,-3531,5520,-486,-1965,1883
39,568,-5616,-1757,1272,679,-845
40,106,-2109,3574,1252,827,864
41,-3098,4421,4282,-1975,1656,-896
42,7334,1844,-3478,940,172,-299
43,-1198,-1261,-4698,-1837,1867,-1983
44,7537,1968,-3302,1444,867,-1801
45,-4364,-2620,2157,-351,502,-522
46,-1658,552,454,-331,-1133,-1123
47,-552,4639,-3176,-1528,-258,572
48,-1145,4501,-3395,-295,99,751
49,6239,4019,-6787,-860,1869,1005
50,-5423,-2099,2661,-1018,-467,457
51,-7249,-1586,-3812,-614,1450,1473
52,7816,7363,-2609,-213,-1111,-107
53,-4018,-2223,-6644,253,-1536,-499
54,6274,777,2423,-147,-918,-427
55,-3618,7364,3340,-1086,627,1142
56,5325,3972,-4726,953,740,-113
57,1714,2084,-3818,1583,-914,1628
58,128,-7866,7441,1335,-389,-1576
59,-4604,836,5220,1849,-1579,-1293
60,7664,-2511,5838,-1223,1992,-319
61,-754,-7763,-2209,1074,-910,-415
62,4850,-2799,167,1437,381,-1916
63,-5353,-6170,2246,1048,-1501,271
64,-777,-5620,-7669,-1781,1958,1902
65,6420,7350,6392,-1931,-1500,-883
66,3163,-6228,-1606,1045,-1304,-114
67,-7835,1449,7456,-428,334,1886
68,5753,-4536,-2378,1720,-1285,481
69,-6070,2577,-1513,22,172,817
70,-2548,-3805,1378,-86,-80,1416
71,3879,7035,-6954,-837,60,-970
72,-2736,664,170,-1028,-1731,-104
73,-4587,-6920,6754,-1612,1523,942
74,1816,-5183,3207,1062,1560,1374
75,2813,2848,-1948,716,141,-1278
76,7871,-4347,-5018,306,-1762,1781
77,6920,1393,-801,688,-1482,-1394
78,-825,7724,-5305,1789,857,466
79,-5370,-3961,-1663,711,93,-398
80,-3564,-7027,3868,-767,-813,939
81,1194,-1578,7092,-760,-1600,1198
82,-4700,-3754,-6192,662,1167,709
83,-2939,815,1141,1956,1780,-637
84,2624,-5535,1875,-1237,1949,1088
85,-7770,-6759,1417,20,-380,99
86,5142,-582,4670,-121,-1722,1632
87,-1302,-2634,1751,1723,587,-1878
88,-601,-2026,1332,981,86,1146
89,-75,-416,-6202,1436,924,-398
90,7584,5425,1168,170,-1001,-1343
91,3194,-1891,3284,1943,-28,-1942
92,-6775,2089,3440,1973,475,496
93,7942,626,5834,-836,-1859,-1219
94,-3505,2552,871,425,-1764,1431
95,-1362,3926,4799,-1686,-865,-1148
96,-3683,5696,-3147,354,1651,-726
97,-6337,4054,4495,-355,1816,1375
98,-6956,-3791,-1440,-408,-649,-625
99,-6301,-5653,3083,146,1994,-1909
100,2300,-6999,-630,-742,1226,473
101,3356,-409,3250,-102,313,1530
102,17,2167,-7189,-943,-238,43
103,-1576,1401,-7391,-1320,-1730,-663
104,1008,-6483,-6058,1300,-558,-1208
105,7561,-3380,2050,-1933,-182,-1228
106,-4596,-761,-420,-1148,-732,808
107,-7671,2786,1323,1340,-1763,974
108,7073,-1783,2280,-1844,-832,1931
109,-5121,3290,-235,728,-67,-408
110,-3235,-6869,-3971,-644,1164,-888
111,5756,-326,-5595,1072,266,-1970
112,2328,-4044,-3556,414,-1035,886
113,-1656,-2611,6423,-569,709,-161
114,7604,-7952,5912,-978,-1784,-1725
115,-7745,-5571,-2101,-301,1534,706
116,-199,-1632,-2455,-1085,-1181,1241
117,-5933,-7542,5265,-499,1262,1481
118,-434,-67,-660,1586,93,155
119,1795,-542,-2631,1126,-1101,648
120,-5776,1658,-1227,-1270,-1179,330
121,4017,-4507,-977,1980,-837,1786
122,-7893,-5038,4611,-1290,142,-930
123,-6967,2784,-1699,1998,-941,1853
124,4640,936,386,690,-53,1970
125,5087,2256,7128,573,-1046,327
126,94,7211,3271,744,-486,-1660
127,1712,-5489,-6600,1887,-1185,-1994
128,-3090,-7281,3266,730,189,-527
129,2424,-6365,7972,196,-626,1927
130,-926,-1116,-7936,-1665,-1799,-848
131,-6313,5199,-4808,256,-1058,304
132,-3260,4122,-6657,-1969,-1718,1048
133,-1491,-1723,-1969,-1625,1454,-1264
134,4624,-1197,-1560,587,1776,-697
135,5640,5909,875,1951,738,221
136,629,2386,-982,1170,-1114,1102
137,-1531,-6553,1962,-439,-1116,1642
138,-5615,-4714,3536,330,-680,-726
139,5992,-7309,5163,-99,-57,877
140,-824,-7501,7478,1407,-925,682
141,6391,-57,4059,-883,1148,-1681
142,-7673,5350,-2750,-1220,-773,771
143,-4873,-4303,5831,732,1840,1166
144,735,6260,-1000,1790,-469,-1320
145,1313,5307,-4851,1850,-1503,-1584
146,2808,-7614,-7814,-1248,-1135,-1502
147,-5921,2327,-5836,-1520,1115,1815
148,-5121,-4765,2154,-1473,1,-692
149,5280,-6473,-766,-587,345,-1617
150,-1496,-1112,-1326,1191,-1655,489
151,7640,162,-623,1109,-443,1970
152,-5228,7411,-5745,-417,-1279,-913
153,-1423,2767,-6429,-1431,120,1079
154,2152,-769,3356,-80,1653,-282
155,4976,-817,4645,678,-1090,-1146
156,974,764,778,-1387,-1652,-1530
157,5320,1271,-7607,497,587,1853
158,-6437,-5526,519,-371,1559,-991
159,6380,-212,7068,464,-999,739
160,3631,-3173,-4882,-1682,-68,1806
161,7009,-3675,-7302,383,-1806,689
162,96,2632,-2131,-357,-788,-874
163,4513,-2545,1356,9,-1647,-300
164,-6895,2466,272,-798,-267,-1272
165,2576,-3685,6827,-1860,311,-1648
166,-6997,-7216,-6893,1551,-1048,-436
167,7371,-6335,-4686,1920,188,-1307
168,-7652,637,7744,1178,-494,-1196
169,5105,4647,-2328,-1319,487,-685
170,-7640,-896,2938,1474,-1487,763
171,-6552,-4200,4795,811,-237,-158
172,-2853,-5484,-2352,-1193,-513,1141
173,6996,-574,-7842,1238,-1192,-1133
174,7342,7626,-6162,781,249,-1991
175,2193,-2582,-6577,-937,528,1235
176,170,-6463,5493,1638,-107,-918
177,5488,-6817,-2187,369,342,-1367
178,6501,-6300,5291,170,685,-716
179,7022,7795,-2818,-933,77,491
180,-5792,7407,1251,-535,1847,-22
181,7190,2285,-160,1746,-726,-1531
182,-7627,-7789,5982,-1512,-1719,1775
183,7163,-7314,-4354,637,1909,-1640
184,-4840,7379,3792,-435,-973,-136
185,-2347,-478,1400,-232,-676,653
186,-1234,-3040,6128,1250,-106,-1493
187,-1169,7403,-3093,438,-172,1886
188,892,-4310,6585,681,112,-144
189,4935,-925,7267,-1473,624,-1793
190,-5683,1727,-463,-1725,-305,-142
191,5992,3002,5514,-889,-1787,-1066
192,7881,4089,6384,1935,-1094,1893
193,1375,-1424,-1838,-1341,-545,-573
194,4210,-6010,6092,-1101,1150,-1653
195,1776,1401,-3458,921,469,1128
196,-2089,-1750,-539,-730,-1583,-1687
197,452,-5051,3456,658,-298,34
198,7232,-7704,-6589,573,-1065,-524
199,4921,-5369,1855,-1313,239,1144
200,5548,-2239,-1179,396,-1748,-1994
201,2813,-5847,-4644,217,814,-450
202,-1901,-2473,-6782,1687,15,-795
203,929,-6869,-56,-1881,770,1420
204,-7917,-1421,-4108,779,335,1444
205,-6874,603,4157,-732,1657,811
206,-6211,7203,7515,1986,-1845,-212
207,4411,-546,-4140,89,-1639,-1903
208,-3396,5239,-5571,-735,1585,451
209,7697,-2884,3129,867,431,-1222
210,2609,6371,-3026,1681,-653,-352
211,2267,394,4130,-1002,1810,-537
212,-4408,-6926,1125,-1660,-438,53
213,-2779,153,340,-1780,972,-1997
214,6023,6738,2929,1382,-885,1224
215,-7970,2839,-7021,-1486,-1013,-72
216,-4544,-7233,-237,828,1752,513
217,-3119,4661,5576,85,-291,-1739
218,-115,1256,3005,198,148,-1658
219,-5259,-7934,2119,-1531,753,795
220,-6328,4039,-1199,-162,-229,-844
221,682,-7238,-5631,6,-1410,-1347
222,-7311,-5458,5979,1715,-22,1242
223,4045,-1475,7638,-870,-909,-1399
224,-3032,-1136,-7422,-150,808,-1142
225,-5099,-4014,2849,-1125,1891,-212
226,-332,-2157,7140,-438,-1488,-356
227,2291,-3137,1711,-107,518,-106
228,4437,-7579,2110,-1058,-223,-1756
229,-7973,548,968,-1697,1682,-1086
230,-4922,3356,3126,159,-847,-1877
231,-4448,5622,-3863,-1914,625,-1339
232,-6744,-7287,1094,-1440,1882,-1240
233,-793,-1796,-6914,-173,647,572
234,-3008,-5746,-6951,1726,-583,1696
235,-4375,59,7775,-1458,-445,-424
236,3856,981,-7355,1973,-1714,374
237,1161,5776,-2350,841,-1700,382
238,-5992,-4603,3879,1030,1663,-925
239,-2247,-6303,4905,-838,-1652,502
240,553,7759,-2531,1616,1703,-293
241,-7722,-5518,-4619,1977,-1889,-1203
242,5918,-7122,1839,798,-580,1565
243,-5348,6230,-2984,-1726,-1045,1169
244,1506,-2497,6324,-1151,1550,-1833
245,-1230,4115,-1832,1763,144,1388
246,-276,-292,-504,-866,1461,328
247,-3604,6179,6236,-929,1983,-173
248,-7748,-3673,-1322,713,-1783,323
249,-5039,5603,6175,283,1375,1495
250,-5483,-6155,1523,933,-924,-1375
251,2893,6942,5699,-1894,-745,-598
252,-6035,7912,3507,-1605,1418,-735
253,-3640,5260,3177,1437,-44,-1484
254,7040,2246,-6222,1903,-314,-285
255,2210,-8000,3071,-1797,1881,-1310
256,-4037,-3931,-7804,-202,1978,-1370
257,2970,5961,5877,-145,703,-309
258,3176,6387,-4481,570,-1667,-709
259,-1826,-625,-7299,-1385,1110,1745
260,-5906,3259,2242,-226,-45,-22
261,6549,-2124,-3955,710,-1827,-942
262,-2291,7723,7200,-644,-218,-1379
263,7705,2810,5342,907,741,-1689
264,-4548,2780,-4777,-835,-1358,-403
265,1351,-1343,-2209,-437,-1045,-814
266,6542,-4926,4526,1036,-677,1351
267,-7128,-5218,6632,-22,-1217,-343
268,913,1913,4157,-690,-197,1920
269,-7499,-3225,-1577,-1541,585,-971
270,-7559,5638,2526,377,-452,-1170
271,7422,1249,-245,307,1518,451
272,7060,5578,2564,-879,1833,-1627
273,5218,4831,-3924,1740,565,711
274,-7005,-20,-176,-368,1260,1542
275,7256,5858,-4902,49,-1963,414
276,-6198,-3179,4602,-667,1451,-1380
277,-6713,-6013,-7686,1623,-634,419
278,6587,-6814,-6455,-1028,-612,-1621
279,-7516,-6741,-3692,-226,1497,-1309
280,-3746,-4864,6023,1811,-1339,-834
281,-3748,7593,1724,1317,805,-1782
282,3735,-3855,-5835,344,1412,-975
283,-6406,1157,-1175,-573,-1781,-488
284,3487,-2547,2104,-765,478,-1874
285,-6043,-1639,2523,-695,-1963,1094
286,-7061,-2691,-5267,1881,-1637,7
287,-5762,6434,1665,-1891,1826,671
288,598,-2544,6714,-1008,-1407,-1880
289,-2899,-7252,6264,-1527,-1993,-1407
290,3055,6132,5056,-1263,-1183,-566
291,6123,-7488,-6413,1443,370,-705
292,-4091,-5419,-3397,220,-1278,18
293,-4420,3066,-4418,-1551,-640,1103
294,5272,3271,7536,1571,1046,1292
295,705,-996,-3372,-224,1386,1078
296,4637,-5896,-7292,-1716,-1859,-1543
297,-634,-2179,2535,1329,1931,-950
298,-2953,6733,-4429,1033,175,-592
299,4825,-4761,7575,1096,1675,356
300,-4677,1432,6157,-479,1583,-1889
301,-6,7036,-2890,-109,419,215
302,2008,-5248,6381,-1577,-537,-1034
303,-5303,5232,-171,-83,-1154,-911
304,191,3723,266,-1683,474,-1421
305,-2244,-6406,1864,-1427,375,865
306,-889,4438,-6329,-1712,434,377
307,6482,4621,1762,-705,-1936,53
308,125,-5764,3843,-1329,733,1822
309,4212,-2386,3528,-344,-524,338
310,-1531,1179,3381,-777,751,627
311,-5742,527,911,-834,1079,704
312,-5115,-1245,-7392,1173,1958,1987
313,2443,-3375,-7545,-357,1657,-1699
314,-1189,217,-4066,-116,-722,-1840
315,-830,5370,-1944,980,-722,1019
316,1867,-4985,-709,-1674,1003,-536
317,-3787,-6365,-3705,-1780,-783,1989
318,-1195,6725,-4336,-433,-1887,1906
319,-4373,-3366,-5517,-1814,-1647,1497
320,7378,1055,-649,-255,-542,-181
321,-7300,5430,-3477,1031,-52,1281
322,-5047,6949,1377,79,-1504,1524
323,-902,3342,-5270,-1087,-1720,-1153
324,4435,2882,-6502,-1898,-1051,1903
325,594,-1742,1852,-292,193,944
326,-1237,2739,-1273,-542,1514,874
327,-3511,-3966,-1817,-45,1568,-323
328,6250,-816,3933,695,-401,-417
329,4416,4814,1935,-601,1321,585
330,-2391,6513,-5652,371,-1439,-978
331,6910,-595,4973,1240,-1613,-589
332,-1032,-1837,1020,-553,-1718,630
333,4673,-2822,-5465,-1412,612,-797
334,4569,-4778,-3194,-776,-423,-166
335,-5976,1109,7797,-588,222,1210
336,-4830,3703,4986,-121,487,1025
337,-6831,1345,3944,-1795,-610,-258
338,-4009,4325,6375,816,662,1540
339,2454,4779,-6097,649,-396,-1923
340,4142,6068,-1008,1935,920,690
341,-3281,-1926,-3320,-1377,-362,-676
342,5835,-3374,6087,-762,-870,-1726
343,-2463,4184,-2280,1891,1208,-234
344,-5732,-5328,5102,1910,-1067,-435
345,3637,-3393,-2694,-1777,394,846
346,-924,3357,5489,269,1842,-1322
347,-566,-4323,-7218,1660,943,1807
348,5448,-7235,5237,-1198,-931,301
349,-4125,-3976,-5440,-1629,-477,-1993
350,-5336,1024,2523,-1304,1086,-916
351,5245,-3195,-4010,773,-466,861
352,-743,3514,-7390,-1403,-761,1176
353,7677,-7844,-1121,707,-1228,-1314
354,-2812,-1138,-1196,-1304,-1081,1926
355,-7804,7745,7253,-1988,50,357
356,888,7085,4553,-378,-1405,-1406
357,-2666,2646,7905,424,-1569,-1923
358,6605,5256,1789,1362,1754,1159
359,4407,646,-7047,-1524,-932,172
360,7568,2883,932,1218,-1177,1023
361,352,2296,-4925,-1427,1927,533
362,-3862,-546,1878,618,-1198,-125
363,1853,-3716,-671,1272,-1630,-1055
364,-225,-187,-6122,-1718,923,-1830
365,2598,4044,-4930,-1028,185,783
366,-4777,4962,-4957,-1147,305,-416
367,-6007,5564,6043,-371,414,359
368,1349,4370,1512,-516,-1187,-1456
369,5150,-5529,-3057,-45,374,-155
370,-4805,1664,-7497,242,1108,-18
371,-7746,7325,-1873,234,670,-1746
372,6824,6798,5388,-1853,-680,526
373,-1116,-3484,-126,1029,350,1342
374,-2688,614,-4445,-771,-1206,-1698
375,1369,912,5976,104,543,1042
376,3833,6034,5107,-1488,741,1045
377,-7181,-3825,3506,-722,-1371,48
378,-5302,-3268,-2607,-866,-965,1579
379,6407,-6321,7676,556,1935,-1318
380,-7174,-1528,-4117,-273,1412,-1906
381,-2960,4028,-3697,1927,-1871,-160
382,4961,-3397,3462,81,-1235,-17
383,-5650,4782,-2458,-288,1806,453
384,822,6173,-2667,-1064,1404,-861
385,4620,-7799,4616,1086,599,1742
386,-4328,-7507,-501,3,-1578,1385
387,-3366,-1801,3908,948,1668,1272
388,-4810,-584,3048,-1500,-1858,282
389,1180,6731,3879,354,-1700,-287
390,7798,6266,365,-1939,1,-817
391,1259,-4733,2029,-604,1202,732
392,5670,7580,4539,810,-1585,469
393,1618,-3947,-6220,-750,-1506,873
394,4523,-2582,4135,732,113,459
395,-4661,2221,1436,468,-388,1357
396,-4386,3787,1650,-262,-1093,-1350
397,-1065,2955,-1596,1476,-223,1193
398,-7575,-2129,3128,-1662,-372,-1635
399,-7802,2034,2911,-1991,-595,1126
400,-7225,6617,1866,-279,1998,-923
401,-2474,-7695,-6598,1259,-986,1398
402,7569,-4184,1827,-1053,739,-557
403,-2066,6401,-5326,-1965,-542,-1704
404,6918,-7120,-6692,-965,-1874,-1478
405,3638,-2182,-7059,616,-935,206
406,4878,-1855,-5711,-849,-537,-683
407,-7956,5446,-3770,-1022,-1794,-1941
408,-2523,3062,-5748,670,580,-1566
409,7669,6602,-1422,1101,415,376
410,-3762,634,6512,-671,1414,-168
411,919,-3478,-6543,775,-304,288
412,6907,-6036,-5553,204,-437,1739
413,809,-1064,-7570,1356,1314,1171
414,355,1664,-5998,-1089,125,-1453
415,-6981,1763,5620,1130,-384,570
416,-4300,-5367,-1242,191,1624,-1160
417,5569,-6178,-7115,322,296,-941
418,-7851,-850,-679,1167,-1969,1215
419,2678,-4247,-1323,-1516,-1749,702
420,-3863,-7613,-5581,-1946,-133,1816
421,-1648,-4099,-5973,-812,-261,1794
422,-7855,842,2226,1926,1371,1810
423,6747,-4548,-5473,492,885,441
424,3015,1012,-3330,1888,1813,-1236
425,-3941,2441,-4409,-400,1065,-508
426,-6342,-6511,6788,-374,-185,1322
427,5716,-4211,174,-1978,-319,-809
428,2321,-2558,-2637,-1392,-1922,1208
429,-2893,-2622,2072,-654,-1766,1785
430,5268,4741,6259,995,-1232,-1162
431,6824,-1368,1886,1353,184,-1358
432,4415,-1025,-5697,-1858,-1449,1588
433,7538,-527,-4327,-1995,-1395,1271
434,3336,-7851,3306,964,-529,-447
435,-7,6627,2365,521,1918,1898
436,-1927,-466,7105,1732,-10,-1861
437,953,808,5711,-1601,-704,-1505
438,2887,-7476,6008,505,1768,988
439,-7049,557,1562,816,240,1383
440,-7606,7868,1191,1303,1608,-24
441,6915,-3235,4801,1927,-234,-1643
442,-5808,-2279,-6146,-507,1834,273
443,6669,3013,-1933,-1232,-1461,842
444,675,7289,-7279,742,745,-1400
445,5003,-5157,-5623,-1737,1036,-287
446,-6908,5898,2465,-1261,124,1833
447,2822,-2273,4500,-991,715,1925
448,2788,-1713,-6079,1203,-1076,709
449,-4000,-6285,-7704,-1347,-609,677
450,-3921,-7313,6901,-1938,-1825,-386
451,6402,-7143,-6342,996,-334,-1492
452,-2703,5405,-7841,-1358,-178,-1584
453,2466,-4466,7614,-1405,1272,1758
454,-4193,-3836,3891,-104,-973,147
455,-4486,3113,6479,-1526,875,1717
456,1105,-2176,4146,1052,852,1999
457,-1173,-2968,-2385,-1432,-1748,1424
458,-5309,4014,-4575,-521,1490,847
459,-2733,1340,2864,1175,759,-1163
460,-4916,-306,2533,1919,11,1910
461,-452,-888,3891,-1256,1937,1735
462,6965,2872,6295,-117,-989,-479
463,5262,6163,6112,1841,1676,1544
464,-2523,1111,-5445,722,1918,1571
465,2554,-716,-4584,701,556,705
466,6855,383,-6504,-554,-457,-473
467,-4084,-7190,-137,392,-1631,1477
468,2298,-3538,3120,-216,-821,1259
469,-2873,-6577,-2539,-1320,181,109
470,-5978,-6805,-6126,-333,266,185
471,-6041,6708,-3996,-379,-1348,495
472,158,-164,6277,-1976,227,-1421
473,7631,-3195,-7723,-1666,390,-1420
474,-7308,-6188,-5111,1671,879,-1755
475,4488,5512,-7502,-1090,1127,30
476,7368,-3929,-2056,-419,-1304,1765
477,-7991,3221,483,1720,-1910,1332
478,3201,2638,4856,560,-736,845
479,-3901,458,-7819,878,583,93
480,-1829,7316,6405,505,-1791,-1730
481,5589,758,-1074,1110,1580,534
482,5552,217,-2856,-670,-1001,-444
483,1893,-5949,3117,397,-1367,411
484,-5053,-4577,-4728,-420,1183,977
485,-598,3093,195,-1980,-1340,-1878
486,126,6492,7924,138,854,-1372
487,1702,-4467,7386,-113,1128,618
488,553,3640,-4971,-1913,1528,-216
489,4457,588,6057,-501,1143,1762
490,-725,939,4260,-302,-483,-770
491,-7530,5697,-3902,1911,-526,-147
492,-7852,7349,-4403,303,-817,196
493,-3725,1787,5062,1404,1329,1106
494,-5396,-386,6329,-1599,96,-1173
495,-7883,5267,-1089,-132,-885,-22
496,7033,4316,6427,-815,425,634
497,3100,4269,-6470,1672,1614,-54
498,4013,1305,7486,1061,616,-840
499,6120,1707,-2258,110,-1568,817
500,4080,5208,-27,585,-877,-1521
501,-4399,2874,-5266,-455,-1585,-62
502,-6579,-5008,5524,-1967,-967,-79
503,-7750,-3499,-4015,-1964,1884,-620
504,-4029,7825,-6685,-1788,-1175,197
505,5983,2923,4131,-301,137,-1323
506,2681,-6228,1989,1202,-1122,769
507,88,-6924,-3843,1069,-295,-931
508,-7473,6435,-6958,-1283,1244,1006
509,-734,-5692,-401,1820,1253,778
510,2254,2310,5978,1770,1692,-1353
511,-6911,702,5425,-507,-1782,1546
512,2143,1376,3278,845,1576,-369
513,7586,-7785,4266,463,1952,1864
514,4064,2382,3625,463,777,1037
515,7068,-4079,-4375,1449,534,-350
516,571,4344,-6731,-84,-197,-498
517,-6725,-5589,7433,-561,83,1472
518,-7029,-4048,-5478,-598,672,1681
519,-3651,2081,-3574,735,133,1685
520,-4203,-3962,1718,-748,1961,749
521,6296,1933,-6504,1242,596,-470
522,-2553,-1814,2903,-977,-290,1650
523,1618,-4356,4141,48,1823,1309
524,3309,-1636,331,1904,-591,145
525,-2077,5993,-1481,-126,693,-1765
526,-5599,6965,-1179,689,18,-253
527,-516,-1762,-7619,-1091,679,867
528,5310,-5506,7646,823,486,-1854
529,354,-7441,-1455,-395,-1988,38
530,5017,-7046,-4199,151,-1868,934
531,5106,2616,-595,-902,1519,185
532,-4200,585,7497,-1608,-553,-102
533,-289,-3942,2262,-1601,638,-1192
534,5127,-3070,-5455,-227,500,-916
535,-897,-3005,441,147,-1064,-609
536,-2603,-4138,-6585,1200,370,306
537,6460,1935,-162,328,1133,-664
538,283,6575,2269,-828,-208,-734
539,3785,-4206,-2793,357,-1347,968
540,-1595,-4450,2655,1963,705,-466
541,-2076,5842,7522,-903,792,684
542,-3440,-5341,-6052,1221,-1011,-293
543,2461,4413,1150,-349,104,1976
544,1458,5382,5645,511,-293,1560
545,5806,2213,3143,-1795,-1422,103
546,1645,7811,-3398,-574,-1711,-1475
547,3140,-3347,1487,-563,-1581,1358
548,5699,-3471,3643,621,901,1575
549,3633,5768,-381,93,1529,1545
550,4684,-5833,-2068,1484,382,-351
551,176,1702,-5780,-1040,1021,392
552,-2229,7906,-1710,1924,548,-1761
553,-7081,4509,-4351,1915,1466,-1504
554,470,-4540,-397,684,432,1534
555,-4828,6372,4107,287,456,784
556,-3807,-5978,-6893,-980,-1147,-1510
557,-7667,2888,4155,-264,701,-1262
558,4946,7681,5366,1937,47,-1462
559,3633,5398,-6280,-888,-583,-78
560,-3941,3090,-7569,540,-1686,497
561,7960,2875,166,-1347,711,1804
562,-2087,6049,-4979,1240,-963,766
563,-2485,5383,-4968,-1447,70,1681
564,-1985,3997,7965,797,-297,-82
565,-209,-1057,-368,-427,-330,83
566,4268,-5120,-2111,-482,1512,-678
567,7509,-1853,6292,-258,-1468,402
568,-3455,-3963,-4538,46,1978,547
569,2825,1023,-5472,-703,574,1272
570,7856,3899,-2314,-1089,1823,1523
571,693,3395,-2965,-405,-523,-805
572,-4868,-1830,4469,962,1139,-1659
573,-4275,-2530,-2612,-339,-770,-275
574,-3969,-1383,-2351,-1854,823,-294
575,-2335,-6277,-6342,-1148,1960,895
576,-1409,-3935,-2951,-835,-451,1562
577,-7540,6492,1928,-114,-244,-1616
578,-5388,-4449,6337,924,884,-98
579,1100,-6880,-3661,1973,266,-169
580,5125,4398,4686,1235,-965,-1848
581,-3122,-877,-7374,1250,-1416,-1748
582,4451,-2186,4137,-1208,-1240,-454
583,-703,-6816,5579,-4,625,-1261
584,-7719,6144,-7427,-886,732,97
585,-64,1997,-7213,-1176,1190,-824
586,2074,2734,-1712,188,-548,1578
587,-2495,-5610,5671,830,965,193
588,5318,-6947,2031,-1441,-971,-1702
589,-6842,-5087,2330,-965,1507,-1678
590,3351,-8,-6235,-187,1007,66
591,-5451,-81,-437,749,-229,1694
592,-6407,-7708,2107,-193,-1765,-411
593,5897,-2033,1101,1211,-424,-202
594,3474,5141,-5882,268,-556,831
595,-6231,-6247,-7603,79,-1063,-286
596,-2689,-3738,5702,1375,1543,-311
597,2514,-2705,-2948,1372,477,-974
598,568,394,-3801,-1611,232,1279
599,4838,410,408,1687,174,-1008
600,4252,-2004,-7198,630,1512,-1526
601,4489,7296,3682,1764,164,966
602,2435,814,-5134,1670,-374,-1038
603,6822,-4746,-5918,-396,-1986,1764
604,-6034,-2302,-2698,-988,-1697,335
605,4180,6010,3875,1157,693,963
606,3699,2028,2818,-1591,-1121,-1614
607,7786,-3041,-7189,1151,-1538,-95
608,381,3170,-6960,-183,-279,-1956
609,-1098,-4767,7759,1107,151,-581
610,7026,3378,6582,-270,-67,1888
611,3810,1053,585,-1898,902,291
612,4499,3301,-5804,201,1839,-1356
613,-4559,6125,1737,1811,-1561,1560
614,-1889,6423,5515,1508,-678,1149
615,5352,7671,4645,126,172,-1934
616,-598,-2292,-5252,1267,1647,-1631
617,-7367,647,-3013,1704,816,1482
618,4760,-5192,-113,-1548,473,-632
619,7473,1350,-5290,-220,1320,865
620,-2404,-6174,-1515,-1490,197,617
621,-6326,-4530,2158,519,1626,223
622,4261,3703,4726,-1157,1230,-1625
623,470,-6285,4495,319,121,-1049
624,-7466,6418,1115,1992,-826,1238
625,-4457,5083,3025,1271,-794,1161
626,-821,-6023,7431,1575,-440,183
627,5062,-7614,-6340,242,932,1153
628,5180,3514,5927,366,227,-1551
629,-7944,-5254,-4853,111,-1694,1270
630,-539,2866,-1535,-1417,-1465,42
631,7063,6079,3152,-59,-1399,-891
632,-1072,-5137,186,965,-683,-454
633,3263,5276,-5084,-1042,574,1035
634,5514,-6601,-2247,1163,378,645
635,-4426,6906,2937,1675,-1540,-701
636,6229,-4137,4759,-820,643,-273
637,5234,-5149,-191,-592,-562,-1001
638,3886,3070,6634,-211,971,1777
639,3104,-3327,-4359,105,1784,-1754
640,-169,-2056,-3322,-1445,1835,1158
641,-3415,1199,2672,11,1829,-1566
642,4284,5586,2727,-1778,-1189,-1385
643,-2131,-5559,3450,-727,-1802,390
644,-2324,7834,4559,413,-1200,-382
645,7045,-862,5357,-1317,729,-1919
646,2362,-3160,4144,513,1715,-1283
647,5681,-2403,-774,484,-1665,-160
648,-3832,-4284,2775,1761,-744,-538
649,-2125,5381,-355,640,242,295
650,-2426,885,-5279,1185,-422,1799
651,-1612,-1875,2330,1932,493,377
652,252,-3271,7938,850,-279,-1888
653,996,3901,-3927,1476,588,-570
654,7730,-4091,-3062,1917,-1162,-487
655,767,4629,291,-953,610,511
656,3236,5775,3778,-1927,-1261,-481
657,1267,-2195,6865,492,-1409,605
658,-4088,3109,-4097,-217,-1393,1962
659,-6589,4154,2943,721,1119,-1739
660,-1109,6021,6715,-584,104,-1621
661,-7549,-1538,-4987,-1574,461,-403
662,3048,7613,2027,-318,-1635,87
663,6186,-98,-6822,1776,714,-1737
664,5651,822,5124,-1205,-1772,-562
665,-6356,-2759,-5064,1797,-222,-805
666,1533,-429,-3598,1998,706,-854
667,-5043,6729,6314,-1273,-61,-502
668,-660,6912,-6255,238,1363,-1198
669,575,-7934,-649,681,-1367,-1942
670,4326,-1875,-6630,-442,-309,963
671,299,5204,2370,1761,1200,-1263
672,-6493,-6956,-6923,171,1246,-997
673,-2132,4424,-6898,-799,79,-962
674,7030,-1603,2429,939,656,1173
675,-2570,7026,7404,1831,-213,-1544
676,-144,-1290,876,1548,-534,-1027
677,2827,-1082,5621,1213,-1967,406
678,4106,5236,-2021,459,1907,-1034
679,405,4526,2545,1152,1944,-1447
680,5968,-6145,-4135,253,450,-891
681,4213,4821,-2646,-115,-1064,-1726
682,5868,1082,-3684,-1679,-924,295
683,-5249,-4401,-4350,-366,1631,997
684,-6670,-7773,-2144,-492,494,-316
685,-5202,4180,-3925,-826,-348,54
686,5090,398,-3610,-76,1771,1509
687,-4853,599,5061,1517,-1194,1636
688,944,-4783,-67,-1360,1228,-356
689,1939,7358,77,-697,1564,79
690,5140,1815,-3287,1053,-1651,-973
691,-2223,4749,-1570,728,-1585,1787
692,-4022,-4208,7045,-1754,-1686,-319
693,-344,-685,7637,-515,-1197,408
694,-4614,1586,5535,101,-1374,664
695,-6869,-6189,3814,1104,-692,228
696,1397,-7668,-1642,-119,-422,181
697,-4786,5067,-1117,995,-744,-1131
698,4528,2183,1510,-392,-613,1526
699,7185,3428,5263,-1295,-1228,1503
700,6377,-1018,-542,1096,-1246,1141
701,-1381,-4761,-3431,-1863,368,-1198
702,-242,5499,5564,1492,-1667,-348
703,-6852,-5678,6427,1992,1158,-1290
704,-1455,-3304,-3101,-544,-845,972
705,6233,4182,-443,419,1572,1663
706,3764,2425,3822,-1442,-229,-1266
707,-2264,-273,4082,-442,1682,-1668
708,-5037,-226,4453,-849,1774,1605
709,-5555,-4520,686,-1412,-1429,33
710,3706,7862,-4719,1873,500,-1988
711,-7474,-2294,-4489,1926,1400,-594
712,-7465,-5307,-2309,603,295,-1747
713,-1276,-2090,-6683,169,1220,376
714,1043,-3061,2874,1761,-139,1896
715,-639,2575,7188,-1038,801,1213
716,-7803,-5027,-6083,-1391,-622,54
717,-6198,-7809,-4407,1150,183,1745
718,4454,1452,-3854,1243,519,-1602
719,7361,6775,-6657,-141,977,-1801
720,1965,2851,-3227,-486,567,-1141
721,-4448,-6211,-6462,977,-1716,1602
722,-2706,-3011,7622,287,-157,-935
723,7656,-4637,-4795,-1818,1350,-298
724,-2539,2796,-5090,938,-1091,-916
725,2944,6935,-5735,12,1878,-706
726,-1387,2783,6143,-819,-1892,1443
727,-2078,-6038,5707,-1894,-1644,556
728,48,7412,6521,-225,-1040,183
729,6173,-2448,541,1188,691,-818
730,1756,3823,-4351,81,-1864,-1352
731,-3629,-4971,1034,-167,1021,813
732,-7002,5659,903,1868,-417,1853
733,2266,-5714,-1016,-977,-1062,-1729
734,1710,722,4778,-1198,-1490,1111
735,2868,-7808,-2670,1690,1688,931
736,-7549,7883,6675,992,1060,1200
737,3424,-2300,-661,-1496,-266,-209
738,4971,-6640,-4862,1810,1770,-271
739,6388,-7342,7990,-507,-61,603
740,-2511,-3389,-7070,591,1409,389
741,-5183,-2424,-7296,1572,1666,432
742,-529,-5532,5648,21,-490,-511
743,1599,-1105,7846,1291,-1269,-241
744,-295,-3419,-6135,708,-1245,1646
745,-3030,-27,-4118,-698,1625,1196
746,819,-7798,-3095,-1386,1744,1955
747,394,-7369,3529,-1020,185,68
748,5601,3301,2696,1291,-252,-343
749,-5044,1247,5719,778,-1649,-801
750,-460,4124,-7215,-837,1704,885
751,-749,-6842,-4941,50,1518,1914
752,1315,2654,-7432,-412,-1690,-1113
753,-4274,-6851,3853,-1760,919,234
754,-4074,-1620,-6758,180,283,835
755,-6078,-3470,1488,-702,1203,405
756,7397,-7744,-6042,1625,1795,718
757,4239,5492,-7295,-1892,-430,218
758,5577,-3246,177,356,1302,-1034
759,5780,1264,-4773,773,1294,-1528
760,2519,5474,-1617,1991,737,-1465
761,6612,6655,-4546,231,1784,564
762,3282,979,-655,1124,-634,1646
763,1902,7461,-1836,-1170,-476,-1139
764,7729,-5114,-5473,1334,-1305,1255
765,1981,7732,3484,-18,753,1489
766,-2737,-2770,6946,-70,78,636
767,5768,5236,3760,-841,276,135
768,-6800,2236,6136,1723,-605,1708
769,4910,-3437,-354,-1680,-746,654
770,1942,634,2419,1696,636,1723
771,3295,-4318,334,607,1166,-217
772,6779,7554,5986,-1217,-1783,-1524
773,522,-5295,-2795,-946,-1636,804
774,-4140,4151,-3156,1453,-1318,-1388
775,1252,7422,1088,-270,-93,518
776,3918,1616,-1121,-911,-231,-886
777,-7555,142,5618,-1069,931,-289
778,-3585,-6921,3384,-1003,89,1564
779,-6957,-6207,1285,-364,-132,1950
780,-3798,207,-3609,-1673,1136,-843
781,-2670,-4628,7735,716,231,-945
782,3735,-5963,4394,-484,1382,370
783,1736,-7801,1921,-135,902,1233
784,-2452,6359,1472,-771,1394,-1348
785,1534,-2293,-1701,742,-736,-944
786,-2906,-5930,6940,1228,1575,-1925
787,-5039,2242,5250,-1368,1357,-298
788,-392,5385,5557,-929,-1566,-591
789,7284,-5079,-2182,-1786,1669,1228
790,-387,-1656,-2405,435,-1728,-1284
791,-6219,3859,-7190,-669,-1156,201
792,2822,5268,-3685,-1299,-1184,-172
793,-5694,-6575,6982,1221,-372,-482
794,-600,-4266,-5163,96,-1682,-1532
795,4777,4808,-2473,-508,-30,-1234
796,5972,-6356,-7591,530,203,-1933
797,4209,-2802,-1245,-1303,-456,33
798,-1825,-4931,4320,770,-1371,911
799,-5186,4860,2500,1253,-48,1244
800,2438,1321,6795,-1517,1911,-760
801,5548,318,3348,-491,-1805,284
802,2783,-3426,2802,1047,211,570
803,-711,5358,979,-1066,-1537,800
804,3257,5656,-5721,1355,-1737,-1156
805,-5995,3001,6018,451,-1526,516
806,-5539,-2241,-3858,-1384,602,708
807,4380,5188,-283,903,-836,143
808,-2775,-5995,-4603,-1474,724,-1408
809,2279,-1515,-7288,1899,-1623,-550
810,-5309,7210,-4394,-1486,1295,-215
811,1984,7756,6055,576,-1693,1779
812,-1547,4011,6466,849,-1065,-328
813,973,2993,7640,925,-1507,-1445
814,5478,-6905,-7979,90,1245,1408
815,-806,2744,-2040,1609,1982,852
816,-206,-7655,-3097,-1416,122,-852
817,-6027,2964,6814,-467,-1236,509
818,-3277,1292,-7876,-566,-608,-1062
819,-6544,-1155,-909,-1551,-616,401
820,1058,6685,-2888,-1306,327,1737
821,-3926,6817,-588,-735,-1327,410
822,4107,-1549,-5598,1496,1621,688
823,-4109,1129,-5855,449,-1114,1272
824,-760,1102,-5327,-962,-1084,1935
825,-6504,328,-3659,1155,-534,1833
826,5132,-49,7720,-338,488,-548
827,344,-6556,3036,-147,-1772,-599
828,1660,-611,-3113,1593,1040,454
829,6870,3409,-1274,-84,1974,179
830,-4817,-3571,1774,-1800,-1613,1609
831,-1273,210,-379,126,-1541,-1152
832,2075,309,-2421,-1638,-770,-1527
833,-2929,276,-376,1544,-1549,-170
834,-4566,-1152,7792,1623,-77,-344
835,-7586,6809,1145,1363,-8,1927
836,-1621,-5394,3717,79,459,-883
837,-7853,4865,1539,317,1452,-1323
838,-6587,6710,-295,-1397,-725,670
839,2713,1772,-2906,1211,1881,1306
840,3167,2348,-2081,-1283,-150,-1939
841,5109,-6322,-285,612,-1076,-887
842,-5391,-766,1857,315,-1024,530
843,-4150,-3969,-5499,-981,-302,-1915
844,-6399,6198,6888,-1940,1819,-402
845,-369,-7965,2384,1310,-161,-1135
846,3079,-1648,-5124,-931,-1594,1050
847,5367,7,-5127,1536,847,1537
848,-1864,-3933,2640,1161,589,-101
849,-2428,1972,-379,-671,1150,-812
850,213,2248,-3511,-1783,-740,1100
851,-1009,-6516,6844,-664,-616,-713
852,5174,-7726,6096,125,-1398,122
853,-6491,5846,7087,373,-27,-1489
854,7365,-5472,-6166,-1517,1353,1260
855,2725,1196,2312,1806,1846,1545
856,-5871,569,-726,1088,-1864,-201
857,-712,5833,-4285,-1255,1734,-1029
858,-6873,-635,1809,-998,1446,972
859,1222,1842,1029,816,1847,-82
860,-4274,-6792,-1565,-1505,-1868,-1634
861,1774,668,486,-914,-56,522
862,-2448,6710,-2395,-776,-809,-1457
863,7935,-3688,-7799,-1923,1596,-1102
864,-5512,1360,7088,-1237,1827,-1804
865,-5137,-7449,-431,-791,14,1139
866,254,-4268,-7608,-1490,-1143,-759
867,3137,3897,1868,-175,1497,456
868,5936,944,3070,-968,958,-1454
869,-3452,1774,6975,-1311,-33,-73
870,-4153,1953,293,-1960,85,808
871,445,4832,5899,-453,1775,-621
872,-1851,2386,-6499,-303,-360,1061
873,-200,108,-3098,-563,619,35
874,3110,5759,1278,-1485,960,-1299
875,4373,-6734,-5669,684,-1503,-685
876,831,5510,6007,1427,-1195,-504
877,-6825,7937,-6930,-1603,-1588,-762
878,7804,-7425,-1817,-527,1234,522
879,2672,-3855,-2847,320,105,-1399
880,-5807,3635,274,1062,1908,142
881,5776,-815,-3516,-1407,-828,-85
882,-3969,815,-7082,-524,109,199
883,7338,-4740,6645,213,754,717
884,-5393,-7733,-2866,959,956,-1547
885,-2959,6899,6685,1473,-133,-1908
886,4941,-5096,-5204,1719,17,-916
887,-1200,6509,3934,1949,-402,-1004
888,-6441,6837,-442,-490,-257,-789
889,2016,6687,-1824,1881,950,1379
890,857,3938,6052,598,1374,-526
891,-6701,-2084,-5621,19,265,970
892,473,1006,-708,-1861,1240,115
893,-7746,663,-4910,-1052,1116,782
894,6761,6497,-4478,284,1791,106
895,-7272,5848,1269,-76,-612,-604
896,-666,-954,5678,-53,-865,1360
897,2803,502,-4457,706,774,1977
898,1747,5481,-1028,-445,-1584,-1597
899,-1775,-2816,3481,-999,-948,-344
900,-3821,-7915,-4485,-1273,-1880,1120
901,-2814,-3335,-5119,-619,-817,745
902,1997,479,5799,1800,1057,670
903,5995,-1971,-2213,-1335,-1500,30
904,4447,3147,-6716,-789,-676,-528
905,1926,3058,-7809,335,-1159,-628
906,1570,6838,-3768,1682,-1462,700
907,-1872,4136,-451,-1238,456,1448
908,-2635,-4129,-5228,-371,-1446,-1346
909,-5735,6571,-3566,-215,-1171,600
910,-7278,-6428,726,-1072,-43,1332
911,-7062,-1525,-269,-1829,868,610
912,-7056,-2234,5402,1246,965,-1657
913,-725,-4198,-6673,-1576,1437,-1722
914,-3308,1075,4409,-284,-755,1712
915,-6703,-4741,-2378,-262,-1725,951
916,-2119,-2636,-5028,-554,-938,1682
917,-898,6545,-3292,-1119,-1316,-1283
918,-5728,-7436,1359,-543,1413,-1417
919,7900,-5188,-3286,1291,-372,1407
920,5314,812,-1750,-725,-576,1859
921,-2709,7611,5914,1940,-1449,-158
922,3026,-872,-7675,-1885,-1321,-1494
923,1982,7872,-3686,1313,-1657,1290
924,-190,5826,4376,436,1937,-1753
925,625,7284,694,738,348,77
926,5440,-5351,3206,1476,-1936,1139
927,419,3693,5312,-875,-881,1461
928,-7940,-1080,-7236,-865,752,539
929,-5969,-3211,-1362,-657,-196,1135
930,-669,4740,-1438,1215,801,-550
931,-1822,-7842,7673,107,1121,-712
932,-1242,-4490,-5131,-1398,1637,-52
933,846,-6697,-42,-1083,-759,832
934,-1945,2240,4535,391,1532,210
935,-2070,-4107,1031,1303,890,-1610
936,-7310,-7687,1718,-851,-517,-1619
937,-1005,6237,-5937,-733,-1028,-1141
938,-2262,826,7875,-66,161,-613
939,-1207,-4560,-3655,546,-1012,-1417
940,7969,1184,-5663,-306,515,-663
941,-2426,4264,-1273,-1479,1789,873
942,-7679,-1761,6459,882,834,338
943,3378,-323,-5337,825,-396,-735
944,-5774,-6123,4150,1058,1685,-298
945,-2153,-2543,-3905,-1880,1600,551
946,1982,4635,5299,-1609,-570,-1953
947,4130,-4876,2801,332,1941,1572
948,-7787,3473,-492,-1618,-759,1982
949,-4384,1306,7030,-1254,612,-1823
950,-6827,6295,-2722,-670,958,1387
951,7762,5539,-7007,1925,-1538,-1874
952,-1621,-3204,-6860,-1140,-768,-1462
953,-7664,3625,829,1415,202,1143
954,-1269,-3896,-2311,833,-264,144
955,3267,2196,6492,-1757,-1676,-959
956,4855,6935,-1631,1811,63,-444
957,-2992,7093,7026,-804,-1656,871
958,-5878,2329,-5333,1438,-247,-1604
959,-175,2226,2191,-1572,1432,658
960,-5880,-3818,5119,-103,1504,1007
961,1967,762,3826,210,-542,956
962,5489,5605,5978,1964,1478,-1442
963,-747,-3487,3740,-280,620,-941
964,-6296,-7379,-5178,-1559,131,611
965,6499,-540,2485,-1342,94,-146
966,-7532,5351,4595,1896,-609,-855
967,5891,5780,3182,1925,518,-945
968,-6085,6699,1250,97,-1329,1593
969,-300,7426,2702,-1049,-284,1204
970,-7291,-1223,5041,-898,-1050,-1747
971,2453,-5773,3191,-1158,-86,203
972,-7508,-5694,-1588,1414,1712,-1741
973,-2052,-486,-5481,-1394,-1176,-1796
974,-5231,2999,3694,-874,801,311
975,731,4182,-403,-1438,943,479
976,4697,1835,-5221,1354,316,-1180
977,-1091,-2298,888,-851,808,1173
978,3052,2014,-5519,316,824,-657
979,-1760,-4328,420,1634,1381,-1051
980,-5076,7812,465,654,1488,1495
981,6371,-4048,1788,-853,1503,488
982,7600,-3303,1994,176,1188,-673
983,-4575,-6731,4470,415,-1035,312
984,1921,6190,-260,-1343,1931,-1264
985,2226,-684,-866,288,-1020,-298
986,1035,-6696,4289,1140,1374,1794
987,-7222,-2966,-4687,-550,135,-968
988,2708,1496,2749,1813,1644,1181
989,-1633,1460,-7213,1172,-322,978
990,-1923,5019,6029,1720,1211,-957
991,-4878,2813,-1183,-896,851,-1624
992,2975,-3551,1217,-509,1211,1431
993,4165,4917,-4355,908,1580,-331
994,2182,-4987,-4198,1065,1424,123
995,-3480,1790,-6849,-887,1739,-550
996,4723,2079,-5791,-650,1208,1593
997,-1088,2844,4489,1536,-1064,1920
998,585,-1949,938,606,1904,1006
999,5380,5666,-6051,906,1026,1267
1000,2308,1613,7090,-1107,1135,521
1001,1973,7136,-3920,643,-1953,-1969
1002,687,-5076,5605,-648,275,352
1003,6215,7177,5151,-739,-1396,-1552
1004,2951,4715,-5974,-1016,1397,-798
1005,-2940,5559,3556,606,1912,216
1006,6376,-7706,5740,1700,-362,1898
1007,-1755,268,-4982,-953,-743,1554
1008,4685,401,1129,-319,-439,1367
1009,-2137,3175,-4546,-151,1609,436
1010,4552,-7129,-5328,807,-804,1892
1011,3492,2236,-699,-961,-1227,1393
1012,1370,4033,-2306,-435,1202,15
1013,-7750,1158,329,611,1029,529
1014,-7204,-7204,-6114,-1865,499,1891
1015,7209,6583,4952,1038,-978,-1795
1016,3130,2733,-528,1585,-811,586
1017,-90,-6890,-2591,-1602,-1682,-219
1018,-2938,-129,-4345,-575,1462,-706
1019,2404,-2645,-2073,-41,-3,-397
1020,4266,-6724,3713,-1654,1451,1220
1021,-1838,-1781,7641,-820,64,-1213
1022,1279,3672,-2887,249,-1640,-1916
1023,4578,-172,2976,106,-1714,-240
1024,2923,3240,6797,-930,412,-1842
1025,-1297,-4107,4597,-606,912,-621
1026,-7742,3066,2142,1269,-1539,1318
1027,-6569,-1491,-4768,797,992,-216
1028,465,5069,5160,-1015,-880,-1557
1029,2340,-4746,-4674,558,-1273,-1700
1030,-7486,-3596,6573,1935,702,-1430
1031,4384,-2860,-4475,1964,-864,-1889
1032,-1581,-5684,4925,-1443,-395,-1439
1033,6091,-5686,-5003,-1933,772,1548
1034,1693,6288,-1147,-1576,580,778
1035,-531,-7339,-5789,975,6,-1955
1036,-6464,3178,3540,610,-1684,766
1037,-5789,-6482,-5845,883,1383,1554
1038,-7763,-2244,3393,592,1743,1425
1039,-1439,2030,1301,232,316,1945
1040,792,-7447,2298,-920,120,-226
1041,-3604,-4713,3345,362,-1303,-1432
1042,-4285,504,-3935,935,-1115,-798
1043,2624,-2168,7746,-1764,-259,-1795
1044,-6300,-243,2807,293,1503,-1298
1045,1388,-3418,-3802,159,1620,-720
1046,-6401,-140,-4419,1640,1085,763
1047,2747,-4499,-1454,-565,1780,333
1048,-3349,3646,7941,348,646,173
1049,-4489,6685,5606,-1527,-1274,-53
1050,-2262,-296,-4210,-1813,-1982,-1206
1051,7920,-5010,-991,-269,1856,1328
1052,1683,-813,-823,232,-1729,-1106
1053,-4495,-7902,-348,-1797,1770,-1923
1054,3925,5475,5869,960,1694,1386
1055,-2596,6843,-3414,-705,-1117,1044
1056,-358,3764,-3205,419,-1675,792
1057,-6721,-4695,-3942,187,-1340,1801
1058,5709,-784,-1069,1580,-526,498
1059,-4830,223,3042,-1909,-448,1668
1060,2792,-2330,6054,1000,1107,1782
1061,1774,2398,-2108,1865,408,362
1062,-5469,5462,-4104,-378,744,-906
1063,6108,1038,2735,1688,-1342,1956
1064,4149,5632,894,-1714,-1097,1605
1065,-2762,2907,-7631,-484,1989,-2000
1066,5211,4787,2421,-1693,1982,157
1067,-1435,6629,2691,1488,-311,-242
1068,-5619,428,-1300,-1083,-1560,475
1069,-4747,-3152,-4356,1308,-57,306
1070,6819,3602,5625,-211,-305,1485
1071,-2904,-7178,-3183,683,-775,-692
1072,-3281,-7243,-6465,-1638,-506,-716
1073,737,4693,3114,-1920,-418,1790
1074,-6999,6377,-5358,-1135,-1702,555
1075,-2353,-6327,4518,1732,-862,1299
1076,3507,3433,-7783,1263,82,-732
1077,-6544,6616,-7321,-422,149,-1878
1078,2387,5461,-1275,-1826,385,-1669
1079,-7458,-7775,-5514,-1777,1299,1258
1080,1642,-2831,-5968,-1494,-1582,459
1081,2505,-1484,-704,1440,-1721,1768
1082,1257,4476,4229,-1758,-1720,-1770
1083,4569,742,5031,-43,-1403,-1413
1084,7230,-3603,6473,-586,1264,1925
1085,4967,4207,-4950,1309,676,466
1086,-546,-1528,-4937,695,-1031,439
1087,-1662,-4818,-3941,1345,-1404,1494
1088,1387,6844,5603,-1687,347,-733
1089,-6281,3279,1233,1584,1803,-856
1090,4664,5655,3626,1716,-1330,1947
1091,-2185,-2516,1321,-1780,-866,1044
1092,-5954,295,-5668,-1543,-1597,-1296
1093,-1076,-6734,-333,768,-1972,-1861
1094,-4265,7760,-705,280,-1073,-1374
1095,6572,4141,-164,1698,1967,-957
1096,7900,-5894,-5500,-736,-1589,1316
1097,7895,643,-2309,1472,-725,-647
1098,7020,-3415,-3384,-433,1020,968
1099,6656,3162,-1585,-1313,472,-705
1100,-7904,2378,6364,800,-73,-1845
1101,-3287,7960,1348,1057,-400,982
1102,7473,-2596,2400,-1037,300,-117
1103,1048,-7180,1689,-510,1303,1899
1104,-2026,850,-280,295,-205,1346
1105,1121,7653,-2606,-898,-23,840
1106,-4234,-1959,-888,-1442,801,1124
1107,171,6354,-5154,-758,1634,286
1108,-6609,-6112,5383,-666,1645,861
1109,-3868,-2487,-749,-1561,764,-1600
1110,-6568,-574,-2411,-1530,1784,1776
1111,6458,-2912,-4368,-1849,-1271,-1585
1112,-5096,-3115,7980,720,1896,-1921
1113,-5189,628,-4354,496,1068,-711
1114,-3170,-225,195,-139,-57,-182
1115,5114,-5271,-6003,171,470,1438
1116,-2111,-1024,-2305,-1670,434,-1869
1117,2062,2395,-4111,-1493,-1578,-698
1118,-3732,1280,5007,-1862,-1122,-782
1119,326,-4799,3820,-1254,-1016,-987
1120,796,-7894,869,765,1023,-1838
1121,4773,3952,733,1387,-1047,710
1122,7232,-7626,5997,-316,124,358
1123,-7768,257,522,-974,1277,768
1124,4494,-4451,-6348,1085,-1798,-1398
1125,6775,7793,1688,-1917,-1609,1133
1126,-1034,3755,6475,1639,-1249,-420
1127,1183,-5769,2582,102,1639,-222
1128,-5573,3657,-6815,-1873,37,222
1129,-7723,-6503,-2818,510,-738,-1494
1130,4280,-6550,4925,1821,1780,-313
1131,-5727,-4477,-3665,-952,-1686,1751
1132,-6289,-2732,5079,1769,-157,-596
1133,-5750,-3863,-1084,327,1155,-266
1134,5062,3314,-5360,-1136,1067,1939
1135,-5310,1352,-5980,-1117,1832,-1731
1136,2246,296,3013,1402,1832,1083
1137,4564,24,1643,-1327,23,1683
1138,-1804,3485,-3553,-185,1667,1743
1139,-467,-5190,7350,1805,685,-1162
1140,-3381,1424,-7950,1968,1336,-250
1141,-2221,4791,2087,509,656,104
1142,-3764,682,4303,192,1810,871
1143,-986,5252,-6929,-48,1235,992
1144,-2374,3173,487,339,705,573
1145,1884,6194,7820,-263,1889,1344
1146,2912,-627,-1980,-551,-1071,1350
1147,7653,2382,4271,345,1868,-1825
1148,2853,-7089,3516,-1038,-1839,-652
1149,1244,-925,44,1618,163,-556
1150,5944,5245,-933,1632,-735,70
1151,4356,-3536,-238,-809,-1606,-1108
1152,-6374,-1741,6950,-1521,1974,325
1153,3288,2415,4885,-1940,-1394,-451
1154,6769,6311,-3455,431,929,-1335
1155,1791,5340,888,-249,1917,691
1156,-6631,-3335,5528,-926,384,-1876
1157,1626,-1817,-7016,-1774,1619,489
1158,-7066,7258,7193,-68,-1788,391
1159,-4778,533,288,1739,1822,-1135
1160,-567,-5253,6237,1565,1294,-1317
1161,741,-3512,-5461,1126,442,-533
1162,7119,920,-6415,-1168,-617,481
1163,-5332,-4125,1505,1580,868,643
1164,-6725,1328,-7177,-448,238,1716
1165,1179,4949,5490,-485,365,1841
1166,934,-695,-5219,900,-123,-893
1167,6855,4828,-471,750,1758,-1095
1168,-1775,-840,5620,-911,-785,475
1169,-1275,-6740,-7633,-869,-873,-152
1170,3551,1730,-4915,-1780,1731,1617
1171,6128,-4869,-567,-1624,-9,-80
1172,5942,4371,1248,1126,138,-1448
1173,3903,-1588,5016,110,-1704,-1625
1174,-5743,-7009,-3142,-940,1523,1637
1175,-2470,-5376,7279,-1289,414,-1543
1176,2657,3291,-1118,-1563,-963,1999
1177,3803,-1590,-1809,-1549,-913,-167
1178,4265,5913,-4390,-1494,258,-457
1179,-6506,2343,-5020,-797,-1378,1435
1180,475,7379,-1780,1978,-170,143
1181,1808,2044,7437,-325,-92,505
1182,-1058,4638,4329,-1623,-284,508
1183,-5632,-1688,-3386,296,185,-927
1184,3582,2094,-2110,786,1320,1065
1185,-6463,3026,-1789,-1488,758,-1013
1186,-3830,-6983,6620,1090,721,1478
1187,-5659,-6909,-7405,-1035,-1645,-821
1188,-7319,3479,-190,1326,-1571,-1758
1189,7564,-845,-4341,-226,1907,1243
1190,6320,-6004,-549,288,1626,376
1191,-1132,5797,1492,-1576,412,1399
1192,-5682,6499,1184,-937,-239,-693
1193,-2409,-450,2608,-1931,655,-367
1194,-3054,-4257,-6372,1198,809,-933
1195,-5396,684,-3333,-888,-1800,539
1196,-6319,985,2299,-1719,59,243
1197,792,-5610,-1354,-1215,-1756,541
1198,-3432,4349,-4751,-1264,1079,69
1199,1868,-1505,-6097,68,-104,934
1200,-2027,4358,4620,-1660,1761,1120
1201,7405,-1243,5835,1362,1837,1350
1202,1018,7156,6117,1296,-555,486
1203,-1489,-3409,5199,1179,-468,-454
1204,-2581,5915,7543,-669,-569,155
1205,6913,-4717,74,34,491,-1168
1206,5503,4246,195,1732,329,848
1207,-4356,7862,5571,1789,995,1754
1208,-116,4949,1573,1350,77,1215
1209,6535,3077,50,-1187,1226,1048
1210,2429,-5132,2960,-1834,1530,-1997
1211,378,2887,-4081,935,-1246,-1850
1212,-2769,4491,-6166,1729,-1848,-1991
1213,-4901,629,5250,-840,-1539,-146
1214,-4412,-3475,-6147,170,-1172,441
1215,1873,-4363,4859,14,840,772
1216,-7205,-3873,-6536,307,-514,-1570
1217,-423,5487,3340,917,-1350,1320
1218,-525,-1344,-5427,-1213,139,893
1219,-4980,-2079,4678,1097,81,-1136
1220,6388,-5589,3902,1770,-591,1552
1221,7642,2474,-2638,1833,753,1730
1222,-4152,5975,5670,1420,-851,1591
1223,3811,-4794,2805,1276,-1199,-266
1224,1454,-2278,-4923,1859,-482,527
1225,-6357,-6311,4186,1998,1953,-419
1226,2943,-3446,-5262,31,812,1298
1227,1399,7116,-7805,-1745,-830,-374
1228,-716,-2848,-483,-666,1932,1764
1229,6423,3365,-5421,-1337,1395,1666
1230,6263,5943,901,1469,942,-898
1231,-2191,1453,-3917,819,1125,922
1232,1313,686,7808,200,1031,1716
1233,6452,1307,-1229,-1211,-439,225
1234,-4063,7954,804,1690,701,515
1235,5732,4433,-2627,-1980,-1160,-70
1236,-4561,3121,-3351,1087,-170,1241
1237,42,1760,-2598,1921,-832,928
1238,-2366,-7874,-374,1313,-456,998
1239,-746,-5111,-1876,-1094,-798,239
1240,603,4023,4988,-1111,344,-1188
1241,3529,7582,1968,644,-1401,-175
1242,771,267,4138,-769,-1346,-599
1243,6917,2891,5425,-1591,-1575,1967
1244,1898,6245,7366,1325,-1673,-1322
1245,6126,7475,6523,-588,-814,1448
1246,-831,7035,3853,1749,-895,1556
1247,-143,934,6100,-1926,571,-1648
1248,636,-1273,7265,1658,48,1410
1249,1839,-2343,-6169,-1878,-1017,-602
1250,-5594,-5982,-1492,1767,372,1573
1251,-7050,-1943,-1236,-225,467,810
1252,-616,-1753,1708,340,-182,1455
1253,-478,-7733,-6639,688,-1131,565
1254,-6773,1460,-2359,1902,-259,-535
1255,7170,-6247,-1696,-462,564,905
1256,911,-6256,757,-1750,558,-851
1257,-2597,-3260,857,444,995,-1610
1258,1193,3838,-1610,859,-1426,-1566
1259,-4696,5079,4877,-253,1675,-1833
1260,417,-2413,-2777,395,1908,1414
1261,-554,-327,6636,764,-684,1536
1262,-720,2306,-1895,-1138,-1840,-683
1263,949,2068,-6695,1642,831,1720
1264,7387,7166,5360,673,-1388,925
1265,-685,-6967,7183,-930,-45,-1446
1266,-5267,6493,4239,588,1128,-1172
1267,1627,195,896,1741,1001,1334
1268,1118,-4823,-683,1609,249,-1233
1269,4683,6942,1727,-685,-991,-859
1270,-2587,2994,7077,1014,226,1847
1271,-7524,-5204,-3505,1931,531,-512
1272,4341,6662,-1113,-508,-1583,1310
1273,-5954,-2143,1006,-1552,-1916,483
1274,-6102,293,-600,1164,1583,1284
1275,-7859,645,7705,-1448,-1356,29
1276,-7466,-2497,-2684,1236,-314,1447
1277,6724,-2882,-2597,-829,1957,-1898
1278,-269,3558,-3513,-1055,-1829,-786
1279,-7746,3920,3257,-702,263,750
1280,-3568,4734,5672,1598,42,-812
1281,4759,-7575,6937,-122,570,764
1282,-1366,-1839,4321,332,1475,-1377
1283,-3150,3470,6221,1965,1281,-515
1284,-2766,-3253,339,1689,1053,-1513
1285,-91,-6454,-1680,1417,1947,610
1286,1691,7454,4060,-1055,-536,80
1287,7095,-5349,-5389,-358,-1056,-1182
1288,-7170,7834,-5481,1087,-912,359
1289,4324,5357,-3530,-765,994,-365
1290,-7516,-6314,-1841,142,-1189,-1363
1291,-3494,-4992,714,1416,-1572,280
1292,1296,-4856,-5129,987,942,-698
1293,-4986,-744,-5541,-287,-227,-159
1294,5598,-3806,1755,-435,1982,1719
1295,-2981,2109,502,-327,-930,1742
1296,-1476,4945,-6148,911,-1213,794
1297,-1830,-4288,1616,-1716,-132,-269
1298,-7378,809,6006,-1710,-1349,492
1299,-3307,-1210,-3785,322,146,-504
1300,5367,5323,-6886,-198,-1561,1353
1301,-3290,2029,6348,1599,1580,-1960
1302,-6128,-4204,-174,-268,-2,1462
1303,4374,-4202,-6200,7,526,-446
1304,-7754,-2536,2174,851,1146,-450
1305,-5709,1596,-156,-1581,1107,-1093
1306,3370,-4708,-7658,-1526,1521,-1124
1307,-6661,2030,3756,618,-1635,-1798
1308,6249,-277,-952,-1234,-350,-429
1309,6496,-3251,1284,-1890,1898,-759
1310,7292,674,-4227,285,424,742
1311,3926,-531,7363,208,1534,-1284
1312,-4139,3849,-3852,-554,-1632,946
1313,4633,7198,3382,-1433,-1603,-1533
1314,549,5,-5309,-815,590,-1613
1315,-7169,4730,-756,-996,-1634,67
1316,-7097,2534,-5529,43,716,-777
1317,4243,-813,329,1260,1137,1811
1318,6014,4094,3519,965,1987,-765
1319,-7238,905,4081,-242,1657,948
1320,4886,-846,-2093,-1556,-1507,445
1321,1936,-2225,157,-579,373,624
1322,-3998,-6340,-4057,1743,-1465,1382
1323,7680,7495,-3681,-1896,840,1078
1324,6976,4971,-1005,22,-1312,1096
1325,6550,-5441,-1186,702,1607,1021
1326,5456,-2906,5216,1917,1278,-809
1327,-5879,-6888,4203,1037,-479,550
1328,7946,4740,2676,-440,-1071,-953
1329,3173,336,4947,461,1908,-1329
1330,-3800,-6321,5503,-1059,1732,221
1331,-5979,2022,-6711,-1298,-339,1420
1332,1559,-5561,-6889,-1270,620,776
1333,-2254,7701,-6989,-365,-1053,1508
1334,4690,-7470,-7617,500,1293,279
1335,-5104,7124,-6543,1136,1095,-561
1336,-3429,-1362,-3872,-1814,664,422
1337,-1268,6598,3838,-875,1379,-1332
1338,-6818,1903,-668,1049,-1703,1164
1339,-374,-1651,-797,1234,158,364
1340,5692,1507,-3680,107,-1872,-325
1341,1784,-7814,-7467,1692,-1068,-901
1342,464,-2764,-6687,1673,-1299,1487
1343,-6502,3852,7455,1425,-1124,-1481
1344,-4,6268,3503,-1224,-1430,-211
1345,5950,-6572,3946,-406,-875,-1061
1346,-5322,-3264,-1617,73,-633,1324
1347,5735,3022,6434,-1196,-1548,-910
1348,-3388,3752,-7722,1415,794,1512
1349,7470,-6829,-1183,-1236,-265,833
1350,-7284,2767,-4200,1841,503,-624
1351,-3694,-5798,-3747,163,-1734,267
1352,3812,-1042,1583,-27,-1661,1121
1353,-2693,1491,-6663,1367,1304,-1366
1354,5353,29,-7836,1618,-1084,-1188
1355,5343,-4089,2549,1633,499,371
1356,4547,2743,-7113,-78,757,-1802
1357,-3440,-2204,-7577,299,-861,-43
1358,-4547,6320,-1053,-1279,100,-767
1359,6189,5633,1233,303,1097,-1252
1360,-6985,-2516,-2967,-1452,-315,1770
1361,-5422,1829,-4408,-1785,-1649,-1977
1362,-3460,-5824,1414,464,568,-509
1363,3460,-173,702,-1481,1544,-964
1364,-6062,-7653,4198,-621,-1502,-777
1365,-5198,400,-437,-977,-833,-955
1366,-6704,7450,3722,-1742,-499,-1926
1367,3044,-5110,2522,-1890,1991,1724
1368,4149,103,-5648,1404,-604,-939
1369,-197,6520,1784,-1279,-1435,1600
1370,-6679,-5506,-3181,1373,-918,1119
1371,6766,1236,3619,-2,-1952,1963
1372,2129,-1526,2340,1166,1902,-1690
1373,-5626,-736,2321,-927,719,-18
1374,1708,-5131,1458,395,208,1349
1375,4070,-3412,6119,457,-284,-845
1376,7171,561,6838,1070,1227,-953
1377,-2100,-5166,-5893,-745,931,760
1378,1750,5555,-318,-987,1696,-1812
1379,-1972,4050,-7617,-490,919,-115
1380,-7661,-7650,-4219,-1008,853,-186
1381,2691,-429,3684,1138,-1591,-1652
1382,-7712,6142,6457,1047,-1189,-1232
1383,-377,5779,633,-1919,1569,-1298
1384,-5448,-5749,-4545,-606,-739,-1768
1385,-2197,-7985,2763,-475,661,1754
1386,5958,2586,5272,1066,205,1913
1387,-1186,-3105,7975,942,-616,-1022
1388,7984,-4231,-6459,-860,-982,1381
1389,7264,-4459,-7564,871,-609,-251
1390,-7082,5164,6525,91,1671,-1615
1391,-3901,-7947,-1608,368,-167,-258
1392,-2115,201,-2321,-1875,-1462,1320
1393,5115,-3681,3430,-1653,-409,1512
1394,-6088,4071,1802,1283,-1669,1071
1395,2790,5813,-4936,-1669,-1690,-536
1396,-5853,-6461,-6769,-834,-314,1664
1397,7435,1348,-6171,1208,-1225,1811
1398,3075,-1780,-545,573,-215,-331
1399,6014,-6564,2001,-681,-756,-1675
1400,1795,-2091,-3238,-1434,1694,1305
1401,7330,413,3026,115,252,1522
1402,2801,-3700,-2245,827,1281,741
1403,5677,1792,1923,548,-1846,1334
1404,3889,-3327,1791,306,-541,949
1405,-6545,2864,-4613,1576,703,1456
1406,-1645,2262,1171,-1900,-1547,-1453
1407,1498,3456,6655,745,-524,1863
1408,6430,-4243,7342,1154,1657,-159
1409,-1700,-4041,6507,1053,-1411,-1070
1410,-3470,3103,4730,-1027,-1244,248
1411,3004,-3501,6184,-245,1469,1572
1412,-4735,-373,-179,585,-801,-900
1413,-2393,7770,-3241,-242,1289,725
1414,-4627,1797,-2746,1713,-1993,1825
1415,621,-2864,2879,1989,446,554
1416,-6869,-2674,-7783,1196,1960,1416
1417,-5419,7353,-2106,171,-103,-1949
1418,-7683,-3641,7516,764,436,589
1419,-3635,2853,-834,1306,1017,-616
1420,4655,795,-2150,-510,1920,807
1421,3030,3244,-912,1188,-1748,-935
1422,7436,4927,-4687,296,-1669,-1074
1423,6567,7994,-4464,-398,-1116,-1845
1424,-7033,-19,-2450,1929,-466,812
1425,-6942,1335,4473,1970,1653,-1125
1426,-3700,-6951,-1387,1577,242,-43
1427,-2723,2575,-7352,706,1144,-779
1428,7103,1670,2031,558,107,-1624
1429,-6413,-5041,7939,-805,426,1666
1430,5624,6037,-1937,-699,-947,-535
1431,577,-7745,6323,962,1604,-1073
1432,6902,1584,-2764,562,-1894,1179
1433,-5817,6462,-255,2,-391,1577
1434,989,-6525,-3754,1583,1981,1310
1435,-1917,1564,-4634,685,1867,-1651
1436,1044,7068,314,-133,-1798,1042
1437,4207,5933,-4837,-1594,1937,130
1438,3333,-4289,6800,-784,-854,-646
1439,-6104,7496,3305,-1198,-326,1431
1440,6721,5019,-3537,897,5,647
1441,4301,-1519,1842,836,-1124,-532
1442,5438,-5765,-1789,-373,-362,847
1443,-1010,-7469,3385,-761,1811,621
1444,5859,6346,6413,1749,980,-321
1445,7486,3931,6467,464,995,-194
1446,2560,5614,2123,1932,1488,1969
1447,4839,7625,1985,454,682,731
1448,-6055,-6469,5259,619,-1306,-1798
1449,-4017,513,-1166,-1519,-1117,1644
1450,148,-5574,-1621,343,-1092,698
1451,5880,-3215,2138,-1592,-492,914
1452,-6840,2439,-7599,-1370,1764,-1248
1453,4833,4891,-7709,1403,468,1002
1454,522,-6003,-1322,-1193,300,643
1455,507,-7057,5342,1688,672,1826
1456,-5858,-1498,3235,-1109,1570,-1690
1457,5744,113,3359,-266,1330,-1574
1458,-1741,2127,3518,985,-1893,25
1459,3722,-658,-5590,-378,108,1560
1460,-1631,176,6954,1762,602,211
1461,3493,-163,2668,1366,110,-1434
1462,1404,-1640,-7813,-1161,551,-938
1463,3662,1294,-5963,-1089,1254,519
1464,3357,-1067,-3599,137,-910,1664
1465,-5727,-7957,5440,32,308,708
1466,-5665,-7586,6466,-1810,-443,819
1467,-1110,-3303,4906,-395,-1632,-1708
1468,-7137,-3167,1460,-1481,1011,444
1469,-2114,-3137,-654,-1531,-1907,-211
1470,-3123,-3542,3950,66,-1498,857
1471,-351,5338,-772,-1618,1734,1722
1472,7618,-2592,-5312,-935,-581,-1057
1473,-6132,-4837,5818,-497,-385,-181
1474,-2592,5690,5331,-1642,534,882
1475,-5390,7754,-4171,1748,1900,1713
1476,2482,2118,2753,-1371,1988,-852
1477,4737,-4786,-2987,-14,-1543,1184
1478,6075,-2463,-6755,1336,1326,-1383
1479,1335,5583,5899,1763,-1720,-467
1480,4010,6191,3134,-576,393,207
1481,5132,-3183,-3124,772,-580,-207
1482,4095,7662,5157,-1020,-1998,687
1483,-560,-2605,-6504,-991,-1828,266
1484,6620,3695,-1344,955,1437,1537
1485,-2358,-7386,1744,1679,-1537,-1414
1486,-7303,3647,-1152,-645,1825,338
1487,2750,2343,3579,1177,-291,-841
1488,-4869,-4342,550,-381,-1053,1225
1489,-763,-6729,-3917,-826,98,488
1490,-460,-3007,1231,-836,-1517,-373
1491,2647,4302,-176,-1251,-975,-962
1492,1577,489,7306,-944,-426,100
1493,-5439,-7722,-87,1656,443,676
1494,826,-903,4949,-1562,-1387,266
1495,5866,6558,-211,1771,180,-451
1496,-153,-4416,7980,1853,1300,1532
1497,-2952,6720,-658,-1490,315,-1549
1498,4731,-4778,-7291,1675,-1990,423
1499,-370,5330,5489,241,381,-206
1500,-5352,-5707,-5887,275,-565,644
1501,-6876,5814,-2852,-1609,-802,1481
1502,-71,4649,-1433,341,1697,-1091
1503,741,1064,-7888,-886,-1431,1317
1504,-5496,2096,3509,-1355,-308,-378
1505,2978,-5109,-5906,-351,213,-1583
1506,-5009,7991,-2343,-947,442,-384
1507,-6392,5501,953,1141,1803,1774
1508,-4627,3512,2241,1327,-1894,860
1509,1231,-4579,5937,691,-888,-826
1510,-4254,5025,4550,1577,1280,931
1511,-985,6142,7062,-770,-766,889
1512,-1331,1867,-6596,623,-840,705
1513,-780,576,-5148,-312,438,-1515
1514,6530,-2591,3485,521,182,195
1515,-6065,-3531,-4948,-757,1261,1791
1516,5911,3552,2980,-1119,1321,1770
1517,-6060,-3275,5105,820,1393,-1231
1518,-2353,-7234,-6199,-783,1659,1713
1519,3863,2726,5714,-478,702,1974
1520,-5971,-6042,7802,640,1112,1239
1521,7816,2187,-6254,-987,-93,384
1522,438,166,717,-838,1901,455
1523,-1416,-4051,1394,623,545,-1238
1524,-2541,5413,5157,-477,1295,-341
1525,4537,6000,-4948,-284,913,1743
1526,-110,-1420,-3304,994,-1286,1359
1527,4435,286,4403,1279,1468,-1665
1528,-112,-4417,627,-1695,1232,-834
1529,955,1784,-3304,-182,710,91
1530,4051,2924,2627,-195,-127,-1569
1531,2803,-2817,-1726,236,-1030,-671
1532,-1947,-4476,-2592,899,-230,-725
1533,-6669,-4669,6705,413,453,-197
1534,5041,5238,7964,1035,-752,1840
1535,5822,-4011,1989,-1324,416,-1983
1536,-2601,-3002,7798,-1854,1879,-1554
1537,-5481,-2067,-4355,971,1880,-1389
1538,4991,-3853,2444,1645,1091,1136
1539,-1422,4926,-2807,1465,276,403
1540,-5872,-2699,-241,-1628,1677,1305
1541,85,3079,-5759,1200,466,-1231
1542,-4180,-544,72,617,732,1721
1543,1822,4210,-6203,797,703,-1022
1544,-2946,3117,-5747,-105,-485,-909
1545,-3484,-3825,4203,-138,-61,1969
1546,-7151,-5026,-2605,-608,-908,-347
1547,-1630,6989,-5994,568,405,1823
1548,3254,-6642,-1900,1186,-809,1229
1549,-2542,-4276,-596,-1518,-1178,-1974
1550,348,1734,4912,1604,899,1891
1551,7283,-5025,812,-1208,897,251
1552,3216,-6384,-6901,-441,-88,1336
1553,-536,4639,-364,-767,-557,1666
1554,4676,-3561,-1827,1076,545,514
1555,3522,6853,-6866,-127,186,1289
1556,3178,3149,-269,-731,-244,1953
1557,4282,3550,-4234,-1050,-320,870
1558,4253,-3113,5488,928,-1357,-598
1559,1279,-4931,710,-772,-566,-450
1560,-7485,5463,7947,1513,-292,1448
1561,-2259,-589,-3456,-415,620,707
1562,-3212,-1482,-2031,921,1957,1504
1563,-3643,811,5358,-1439,-1544,-1407
1564,6335,4309,-7062,-1678,337,-91
1565,7308,4775,-3880,-1563,567,95
1566,-2571,-4752,-2218,-923,1042,-98
1567,-7960,2449,-3196,-1537,-1590,-181
1568,6419,1521,6692,-113,1468,-568
1569,4699,6037,959,1953,224,-509
1570,-6589,-4933,7985,1393,-206,1544
1571,-1879,-7290,6116,564,-238,585
1572,-5491,-2865,-4781,462,-1356,1715
1573,6844,1903,4321,913,-1199,-1707
1574,1651,-1907,1667,-1084,-724,-1589
1575,-3711,6298,-6776,-25,897,-1578
1576,-2081,-3812,3933,-498,-420,541
1577,7163,7602,-4738,-1454,-1897,-956
1578,5478,3239,7251,-1062,925,188
1579,-5056,3017,-5601,-533,-1084,-1406
1580,-1143,-6246,-717,130,152,1185
1581,3973,-5793,-2071,-1943,-1404,908
1582,-6486,-1423,-2515,1306,582,-1777
1583,-101,-7851,6083,-196,-1216,1916
1584,6376,2463,2198,1705,-284,-104
1585,6032,-708,-1012,728,-176,-401
1586,-7581,947,-4567,-577,-1584,-3
1587,2520,-5923,-7407,470,1308,261
1588,4374,-6966,7114,81,929,1655
1589,-7217,7976,-4808,-654,-1633,-1767
1590,4484,5446,-2142,-1010,-1362,1939
1591,-7005,-5482,-3895,-719,-189,874
1592,-6051,-7495,-6731,-127,1513,383
1593,4855,1737,5578,-1142,1442,-1358
1594,-4698,3616,2579,-789,1756,801
1595,-6574,6078,7493,1196,1376,-1742
1596,7083,2833,-4801,-420,-1120,-732
1597,4819,2718,-1848,-477,-652,-1868
1598,-7949,-2177,-5738,864,1571,1223
1599,-1363,7220,2679,-689,-933,1596
1600,-7295,-4240,6640,-1293,496,876
1601,2317,7486,3789,628,96,-810
1602,3941,-3643,4214,784,-1486,647
1603,-1155,4553,-7170,-761,-1181,1591
1604,-5378,5827,-639,-1083,706,857
1605,-6578,-3826,-3317,-1453,242,-838
1606,-5308,-1745,-7606,137,710,1578
1607,3115,7512,4827,262,-352,-100
1608,-1398,6570,341,-1303,1390,1061
1609,-3495,2412,3946,1569,1277,-819
1610,317,1136,4739,-733,695,1226
1611,-1189,-3747,1654,1389,622,1076
1612,3704,-5388,-2974,-1627,-477,-1039
1613,5405,2237,6696,410,-1641,644
1614,4579,6680,-1237,-275,1904,1943
1615,3811,2431,-3019,-57,408,-777
1616,-311,-4861,546,758,-977,-319
1617,-2880,5554,-2825,-942,-1593,-791
1618,7931,-5793,-6320,27,-1492,-1824
1619,415,-1730,-2580,1334,1812,512
1620,-7859,-1799,6896,782,242,1121
1621,-2057,4515,1469,-1531,-1685,-1028
1622,-7053,-4012,4979,1535,744,1247
1623,-5324,-7619,-7282,-677,56,518
1624,3640,4443,-449,-912,869,533
1625,4673,-2912,1579,1431,-54,1006
1626,-4032,-6344,2504,-609,-495,-1006
1627,1434,1625,3730,876,-245,-1523
1628,1723,1557,-3169,371,1735,-1675
1629,-4921,-5402,-6624,-20,650,1270
1630,1338,197,-6199,-702,-1455,-363
1631,-7093,-1394,6912,1665,1592,-1538
1632,5949,-3598,6543,1678,1048,-1482
1633,4325,6243,-3830,144,82,725
1634,-5965,1305,-6603,496,97,320
1635,5848,4223,-704,444,-1075,-509
1636,5741,-1980,6320,-586,1292,1288
1637,3180,-6426,1540,-492,-695,-1826
1638,1440,-581,5658,-271,1925,1295
1639,-6564,7941,-2808,739,1650,-1354
1640,-593,6003,-6435,-1841,698,464
1641,-7304,-3501,-3223,1305,488,1754
1642,2676,-7835,-3216,990,1102,1967
1643,5727,4164,2423,1935,1203,-1677
1644,5056,1977,-2816,1356,854,-529
1645,-1785,-6390,-3190,-320,1310,621
1646,-3933,1752,-4337,-532,804,373
1647,-4470,-2463,2359,165,1786,-1568
1648,1661,112,4406,600,756,-969
1649,-2834,7909,1625,-1419,445,-1140
1650,1095,-1489,7561,-786,-389,135
1651,6957,-453,-4344,1824,-1607,-395
1652,-6427,4115,154,-132,1567,-1871
1653,2763,-5360,-6149,470,-103,1089
1654,-5102,7901,1410,-592,-599,1503
1655,-2393,-2546,5567,378,430,616
1656,7253,4963,-846,-1464,-1901,1794
1657,-7284,4878,1121,-1719,-1247,-1819
1658,-1958,314,890,-597,-814,-991
1659,4769,-2140,-7438,-1164,91,-1303
1660,-2384,1278,-7350,1875,196,989
1661,622,-1799,3637,-1374,1677,912
1662,2933,188,-5175,1220,-251,-1614
1663,-722,289,-3130,320,-1445,1725
1664,-2769,6721,3956,1795,-1106,-437
1665,-5742,3857,105,-414,-168,1824
1666,6262,-3493,338,1755,901,269
1667,-4054,-1097,-6124,-458,606,668
1668,4581,-588,5467,-521,-1053,-935
1669,-3025,1662,5483,1333,1919,478
1670,6955,2352,5718,-525,1511,893
1671,-464,-7451,-26,1473,-847,1647
1672,-7183,6621,-4211,1346,-1065,393
1673,-4076,2054,-1469,-630,1279,-673
1674,-6922,3738,-7901,-1981,932,-424
1675,-7175,453,6908,-1750,-428,-1412
1676,2448,-408,-7468,-1197,-1935,-1595
1677,6195,3516,-1736,-1901,-1893,23
1678,5312,7190,-7465,1522,1089,400
1679,-2605,304,5366,-1044,239,-1904
1680,4170,-2180,4717,-1762,-1635,1595
1681,3376,-936,-3532,1219,1896,1926
1682,-4769,-3458,-2582,464,-498,-1298
1683,-873,-4215,-7305,-918,1048,672
1684,-3790,-3727,1689,631,-161,-1370
1685,-6763,4893,-6529,397,-201,288
1686,1458,-685,-1826,379,1603,836
1687,-6382,7834,-4456,688,1122,-1445
1688,-1713,-3212,-2347,-671,-1126,853
1689,-6341,-6308,-3153,-739,1143,1049
1690,2753,-7867,-945,1685,1155,-1545
1691,3803,-479,-759,-299,1587,471
1692,-554,-7304,-553,-331,442,-30
1693,1187,-5060,7844,134,702,753
1694,2617,-2560,5584,1087,1431,1804
1695,5945,-3729,-877,-974,-569,-1186
1696,-2936,7342,-4776,-1092,-1657,-177
1697,-870,-2652,507,1563,-949,900
1698,135,3083,-6684,-1525,391,665
1699,4929,2205,-7183,1777,1747,337
1700,3449,2505,4226,1325,605,-851
1701,2878,-780,-6379,1573,741,-1303
1702,-1648,-1161,-5505,-343,1868,307
1703,7907,4107,-4526,-191,-1827,-1983
1704,-4041,-4117,-7589,-1115,-317,-1628
1705,-1420,-96,-1443,185,1812,-1155
1706,-31,-732,-2757,394,-54,1433
1707,-235,-1228,-2182,1119,-1353,411
1708,-6974,-7951,7693,-265,-426,1168
1709,-3529,-839,5097,1582,-158,-856
1710,-5154,2691,-3169,-1220,-239,-894
1711,6262,1910,4143,-546,-1642,-1168
1712,-4724,-2874,-5264,-278,-626,1372
1713,1508,1307,-1609,614,-1593,-569
1714,-6686,1825,3077,768,-388,145
1715,-7163,-611,-1681,-1561,-763,1794
1716,-4197,1676,2663,713,1887,-1805
1717,4969,3493,-3287,-1109,-1615,-1649
1718,-297,-104,405,974,-1194,-149
1719,-3156,-6160,3553,-1737,338,1039
1720,5956,4806,-7292,908,1017,-539
1721,-1619,3573,-7528,-1032,-1760,1990
1722,1510,-5382,-239,-599,-1242,1167
1723,-4612,-366,-4270,-1512,-444,1728
1724,-5924,6966,-4013,1415,577,-1386
1725,-2343,-4745,5012,-325,-1370,-1148
1726,-4827,-7630,-5279,1864,1237,511
1727,-4208,-4367,-4502,948,-1900,-1336
1728,290,-4327,2975,-1724,-1358,-1416
1729,4702,7545,-6124,-25,552,773
1730,-520,-54,1326,1764,301,-857
1731,-7601,6316,-2617,-869,208,-1259
1732,1803,393,7337,-1903,-577,-1306
1733,-4371,4377,112,-1474,1371,1418
1734,4659,793,3730,1032,1101,-102
1735,-6055,2578,4373,71,-423,-465
1736,6891,7430,4097,479,-467,1562
1737,2247,1575,5469,1057,-1187,-600
1738,-4988,7576,7798,674,385,-501
1739,5693,1058,5204,220,873,1738
1740,1227,6639,4304,1528,1191,1059
1741,-2193,-7344,5188,1315,-1163,670
1742,2197,6588,6598,649,1142,1017
1743,6097,-2199,7329,1886,-879,64
1744,-3872,-5399,3358,-403,489,-1900
1745,2810,-4463,457,238,1915,-1708
1746,63,-960,-4942,68,-1972,1106
1747,4476,-4317,-3784,54,-11,-1311
1748,4601,-764,-2331,-619,-1579,-1870
1749,1865,5322,-7272,1588,326,85
1750,-7519,-982,2551,-280,-695,-1168
1751,1021,-586,-151,-1374,-928,1792
1752,7456,1118,1737,1162,906,283
1753,7107,1620,4179,-477,970,-1083
1754,-7730,-7515,-1091,396,1387,406
1755,-3396,7354,-2804,809,-1717,564
1756,6087,-6124,4974,-1505,1056,428
1757,-4494,7411,-4265,-229,1148,-1546
1758,-5368,649,3837,-1552,1810,-1200
1759,-261,-4205,1381,1760,-1254,1694
1760,2324,6021,1902,-1339,-429,-1923
1761,-5090,6471,-5087,1467,-547,1168
1762,212,-3590,-16,1262,-1745,-317
1763,634,-5579,379,-1620,-1545,392
1764,5683,3234,-3198,967,1908,1116
1765,-787,6891,-4196,651,1940,-1693
1766,3250,-4061,1845,-1091,-599,256
1767,2374,-4349,-4728,-1800,-1044,328
1768,-661,5203,157,1863,-892,-1547
1769,-5159,2155,-3156,1890,825,-1258
1770,2262,-3245,1788,-1375,-499,1656
1771,-2128,-763,-6616,-1744,1883,-1145
1772,-5456,4894,5561,-1436,-1468,-1070
1773,7399,-2164,4906,-1721,-1423,-1957
1774,1050,-554,6255,-1297,9,1133
1775,-2050,-6202,-3768,-1238,173,19
1776,-2623,742,1427,-955,775,-1043
1777,5933,1277,-4781,-1517,-1258,-1913
1778,3406,-680,-228,-1716,202,1434
1779,3032,615,-6610,-1829,-538,-1788
1780,-4485,-4154,-2914,-1192,-1486,-110
1781,1269,-517,-7236,1641,55,1164
1782,-401,-7706,-3945,-1699,-191,574
1783,4127,3165,-6772,-1217,-1646,475
1784,5920,-7417,6281,-1616,839,-728
1785,-4030,-2156,-745,-1086,761,288
1786,3320,-2646,7921,-17,-1156,1339
1787,7418,-3303,-3935,22,912,60
1788,-2489,7607,1795,-1877,-337,-375
1789,-1643,-623,-5676,1560,763,-69
1790,-6724,-1574,249,-970,848,1505
1791,-2770,6630,-3170,-1429,581,-265
1792,569,-7539,-4224,1932,609,-998
1793,5312,-1241,5901,-1856,1516,1477
1794,7022,3503,-971,-62,-1026,1644
1795,-4761,5610,3644,494,1195,-634
1796,-1785,-6268,-2615,1719,-624,-688
1797,-7440,7129,-3537,-384,637,946
1798,-1058,-6110,-444,-1248,1167,707
1799,5286,-6332,-6846,-1705,-1840,-1571
1800,-1847,-2688,-4973,1013,-939,-1560
1801,3282,-3865,-4551,-765,996,-1232
1802,3757,-7962,-7959,-81,-1335,-899
1803,6203,-7862,4664,1863,1561,-1145
1804,-5993,-477,4208,-1003,-671,-1055
1805,-6851,-6298,-2271,-83,1707,-985
1806,-6346,-6070,-3600,-632,981,1697
1807,6958,-2775,1492,-1112,41,-1914
1808,-1859,6143,1786,788,-1165,950
1809,-2946,3070,3725,-730,-442,505
1810,-5077,2401,-2032,1081,-1027,1975
1811,-7900,-168,3399,-1588,-1110,-545
1812,1469,4375,4231,663,164,1400
1813,3080,4601,-3383,654,-153,-838
1814,6829,-6816,320,1373,-1806,1645
1815,7878,-2448,5125,-937,635,-749
1816,7038,-4931,-7511,-414,1023,1432
1817,-479,-1624,1981,922,-1562,-214
1818,6860,6744,1095,-1281,1950,-1804
1819,-4295,-3961,-4843,1514,875,-693
1820,-3458,-153,2905,646,-669,259
1821,-6877,-817,5597,112,-194,-1992
1822,-2907,7293,855,151,-1032,-49
1823,-6473,7709,4381,215,1683,180
1824,-3354,5363,-5740,-1918,269,1137
1825,6896,6664,-667,447,-1312,-410
1826,3083,4441,-660,-1307,-1727,-1936
1827,4961,-5479,-7028,975,1039,-592
1828,-2329,7868,-7553,-1213,891,-1481
1829,4482,4656,6782,1041,-729,-259
1830,-6106,-5667,-2923,-874,-1472,1696
1831,784,-3389,708,765,-1132,-1378
1832,-5829,6586,-6890,659,922,1030
1833,-2981,-2326,6656,-1868,-1504,-969
1834,7546,-5744,-2257,1689,-1238,-447
1835,-2639,7317,-7234,1837,-1218,-982
1836,4381,-7813,2690,1085,409,1033
1837,3650,250,4674,-1530,-1747,-1393
1838,-1260,4371,-2027,-726,1332,-1102
1839,-5057,-1185,5494,1066,-986,-267
1840,-6764,362,168,16,-44,-448
1841,-7368,4028,7127,-488,455,322
1842,-7338,-806,5680,-963,-1284,961
1843,6499,-6269,7382,-552,1580,-541
1844,7379,1014,3303,-1490,152,425
1845,-6827,3371,2094,-804,-1674,-1396
1846,-2884,-173,-439,829,-1780,-1700
1847,6282,5192,7618,-723,-1316,-1355
1848,-4952,6497,7016,-575,-1098,-1897
1849,-5338,4402,5439,-791,1787,1531
1850,-1036,4510,6415,280,-1118,-1825
1851,-3091,4418,-2554,1104,795,591
1852,2211,1519,-5460,-602,-1113,-1495
1853,6174,6815,3943,1984,-1260,437
1854,-270,5495,-684,-1058,-1587,-946
1855,-7348,3518,-6693,1250,-639,-1367
1856,3963,-3992,5382,-377,-1522,-1992
1857,2117,-4785,4777,-684,454,339
1858,-416,-6203,3716,-938,1794,1991
1859,5173,1955,-1817,1251,330,1343
1860,745,-2819,-2771,374,-327,-1649
1861,1981,1298,2570,-1023,751,-542
1862,3488,5523,-7313,578,-1314,1724
1863,-4731,160,-7567,1994,-909,1892
1864,-1498,-1058,-6799,237,-1037,-1982
1865,6065,779,6502,1024,-773,-193
1866,868,-7957,204,-1134,-1991,655
1867,-5221,2637,1339,926,-764,-470
1868,-6550,-1212,2693,-177,-1312,230
1869,-7206,-5139,3093,-1166,761,-674
1870,6937,6131,-5490,-585,-1875,-648
1871,-7935,2652,6278,-525,1315,-418
1872,-3728,-2640,-6049,1498,-855,-1127
1873,7100,-6302,-7699,1114,1671,-246
1874,2855,-2214,2695,-712,94,-57
1875,1520,3354,599,1424,-140,-1071
1876,-381,-2552,-2100,1008,-824,-193
1877,-3317,515,307,-759,-827,-360
1878,-5688,4987,-2788,1313,-1752,482
1879,-5965,-3271,6755,-655,-1075,1180
1880,2037,3485,7870,1158,-359,1599
1881,1047,-2084,-1342,-183,-794,-729
1882,95,-1198,787,468,-1260,-788
1883,-3321,7219,3781,909,-255,-618
1884,-7301,1438,-5624,-1419,1192,-182
1885,88,-950,-590,-134,-1564,-33
1886,-6657,3908,5723,-1221,-747,-443
1887,5713,7222,1365,1184,-980,871
1888,-4604,7794,4185,-1436,776,-978
1889,-2003,-873,4229,-1460,-1004,-1991
1890,-3221,3945,-1780,1991,1109,-1975
1891,4443,5995,5284,-891,-1449,-934
1892,5278,7113,1262,618,-772,-1771
1893,3803,7460,6313,-579,1195,-607
1894,1302,7620,4848,675,802,-892
1895,-3498,5899,2508,-1749,-476,910
1896,-7562,-5340,2468,1138,1098,764
1897,-4021,4977,5094,-1608,747,1142
1898,3372,4032,2214,346,1226,372
1899,3035,1160,-672,-1641,12,-1610
1900,4408,-7057,-7704,461,-1550,-996
1901,3739,1819,5238,1202,-1212,-1696
1902,-1839,1967,-4256,1643,1597,-311
1903,3759,2790,5154,-1444,1529,148
1904,4638,3510,719,1464,-1791,-548
1905,-208,-1562,2030,1689,1741,57
1906,6671,-4607,-7776,-1825,607,-1843
1907,-2479,-2503,-3744,1822,1797,858
1908,2578,3859,6127,-1539,-130,1917
1909,-851,4538,6351,1900,1823,-1206
1910,4468,-4134,-4325,526,-1070,-983
1911,5309,-2566,2489,497,1529,-944
1912,-3719,5211,-4540,1063,666,-1319
1913,-5604,4185,1601,1664,31,123
1914,7596,-3845,-1287,811,118,380
1915,4617,4813,7381,1883,864,224
1916,3832,1504,-2045,-1946,357,1003
1917,-562,-4307,6632,-852,-1985,-600
1918,5732,1709,7395,888,-1039,908
1919,-1138,-7366,5076,-1284,986,881
1920,-5518,1802,1380,-758,-799,-179
1921,6765,3252,943,783,-508,379
1922,-207,-7656,5801,-1995,-1785,1877
1923,-4167,4184,5473,1279,1902,-1867
1924,-7604,5268,7262,-1782,-477,-832
1925,-4545,-4352,-2999,118,-1260,1482
1926,-4526,2786,-3458,-1040,-1299,1353
1927,-1084,-3050,-944,-234,1816,-1764
1928,5081,2747,-3679,-577,86,-257
1929,-6655,-5482,7040,261,-381,316
1930,2492,2656,5535,-1743,-8,-1780
1931,1471,5502,429,121,1365,371
1932,1118,-1923,6773,659,1906,416
1933,6907,3399,-3089,1091,-295,-1149
1934,-3893,5953,-4791,1934,1791,85
1935,7449,381,6146,-1027,1531,1383
1936,2835,-2745,3500,-1835,-997,853
1937,-7880,-394,-2714,-460,-585,-813
1938,6597,5206,6557,-837,328,1073
1939,-5936,1380,5731,1397,1976,-1456
1940,2389,-5575,3986,-19,-396,1554
1941,-5618,401,-3565,-226,-1928,483
1942,-5382,5179,-4753,-1362,-648,1260
1943,-3730,-6388,5878,-122,205,-855
1944,-3850,-5682,7472,1352,1492,-1685
1945,6462,-1896,-575,194,-1282,1787
1946,5822,-646,-6743,168,-628,1259
1947,-191,6969,-3130,-465,-1643,-183
1948,-1543,1716,6307,607,1157,-1941
1949,459,-1883,4726,927,287,796
1950,1634,-6653,-3317,-396,391,-1475
1951,7684,2890,-1437,-1411,1895,-1953
1952,-5609,4784,344,-446,-1057,763
1953,5322,-2889,-6041,1716,1272,1985
1954,7642,-65,-5888,-601,1384,-1395
1955,5335,-3444,7931,-1113,1492,83
1956,-796,7991,6372,1380,905,1737
1957,-6649,-1790,2411,-1976,-1293,-1281
1958,-3949,4552,-4729,-978,1740,-1519
1959,5885,7747,3491,1822,1660,-1424
1960,-1499,6498,7555,846,265,-1886
1961,111,-3304,6935,1964,-775,-694
1962,-4847,-3419,-5046,-829,-676,277
1963,-5465,-5733,220,871,-665,-1141
1964,6325,-2721,1687,-1142,-1716,-1483
1965,-2451,-2839,5748,1522,1036,643
1966,6867,-175,-600,-583,1243,333
1967,3227,2840,-7663,-1470,-1046,1408
1968,2578,3948,5420,1406,1453,-807
1969,7587,-2263,-5201,1560,-1039,59
1970,7455,2239,-6089,300,-279,-1328
1971,7243,-243,-3408,562,169,1459
1972,-2580,-1975,5473,-1654,-1346,277
1973,161,7011,-5026,1985,996,743
1974,3238,3202,-3157,-19,1284,-140
1975,-1054,-262,4680,-672,1148,868
1976,-2953,6274,5494,-1173,1014,157
1977,-3377,3556,4899,-1494,-1793,-1903
1978,-2123,3941,-1199,988,-199,-1863
1979,-7798,-4561,-1443,248,-386,-1065
1980,4020,5388,4462,-106,1980,-1287
1981,5056,-7128,302,252,1185,-585
1982,-2423,-2531,-6874,-1994,134,770
1983,7324,-7032,-5863,-115,-1898,-1543
1984,7970,124,-2449,-1333,1730,-161
1985,-330,-1489,286,-1575,-1463,-1474
1986,7502,6995,1779,340,-521,-1842
1987,-3284,-1478,-1184,1507,-121,-130
1988,-1567,4934,633,-683,1570,-592
1989,1882,766,3573,385,1977,970
1990,-6434,1462,-1681,-630,-739,-117
1991,-3043,-656,-7848,380,-334,1765
1992,-4883,6952,3220,1831,1840,-437
1993,-5908,-3595,-3341,-1829,-1056,-911
1994,-85,-6211,1490,-150,-357,1859
1995,4456,2377,-3009,-25,1829,1999
1996,-5976,-1270,-2979,-1376,-1093,-523
1997,-798,2969,-1498,-800,-1304,1119
1998,3157,-6240,-4578,-1987,948,-1675
1999,-742,-980,-3559,1957,922,-1633
2000,1742,-2993,-5184,-173,1416,1436
2001,-6655,-6962,-4391,1313,672,-1099
2002,-7847,7829,884,-1431,565,-1077
2003,-152,6180,-1416,714,50,-904
2004,-5935,900,-7214,1881,-1593,1590
2005,7485,-3383,3629,-1439,388,-1677
2006,-1213,-7258,-6875,-251,-1493,1317
2007,2731,-4347,-5365,1434,-411,696
2008,7595,7792,4739,25,1500,1703
2009,4590,-4467,-2665,1158,720,-1236
2010,-826,-4707,-1061,-452,-486,-1789
2011,1490,6295,6874,179,-882,238
2012,-6127,5017,1073,-532,-196,-1089
2013,-3569,-5896,-4978,-1387,-834,10
2014,-1282,4479,6840,-608,200,418
2015,6046,7545,5805,-225,527,187
2016,-2625,3176,-5903,417,-271,780
2017,5205,4181,1122,1939,936,-1013
2018,-3736,-2129,-7285,-179,422,-1300
2019,1153,-6416,-5875,-1436,-544,-1911
2020,-2715,-5637,-2317,-1830,1429,-1682
2021,-3614,-6687,1147,-691,65,1363
2022,-3241,-1765,784,1340,107,1647
2023,6850,4233,-6764,882,30,-1454
2024,-5632,-6898,1631,-1314,-424,-1180
2025,-7294,1120,-4083,1032,958,-40
2026,2654,6230,3757,-788,-1405,-1345
2027,1138,5247,656,850,-1766,-874
2028,-4418,7000,-4177,-1344,272,1927
2029,3304,-1537,-7455,1720,-227,-709
2030,3073,-1853,-6134,-1686,1239,-1641
2031,-1118,-2596,-1140,-740,-1446,992
2032,1352,921,-4543,218,-1157,-1512
2033,-7237,-3362,-1,1929,-1874,-1078
2034,3454,-4454,6776,126,-979,-1435
2035,-2974,-4280,6211,883,1240,-1066
2036,-1581,965,1563,1982,1367,1085
2037,-5879,-6267,2786,-1084,1846,1376
2038,6667,5937,-902,-844,-1704,1460
2039,-6166,590,-7252,840,-711,628
2040,-896,-3812,-7340,-702,-126,-1156
2041,-644,-6345,5936,853,-538,-1344
2042,-1522,2591,-163,-1167,-47,-1470
2043,-5130,-2980,-5423,-1646,-586,-1776
2044,-7495,-5742,2645,-1513,-1275,-1392
2045,5587,4509,-7913,546,447,1405
2046,-5452,2910,2898,1128,-934,226
2047,5987,1381,-702,-1828,-954,1559
2048,-5905,-681,1589,-1669,602,55
2049,1446,2191,-7486,1918,-1929,-1692
2050,611,-4304,-5242,1645,-507,-698
2051,-5729,-74,2469,-1055,837,1860
2052,-4076,6750,5501,-1243,1418,-1230
2053,-2595,-2756,3192,-1223,-367,-906
2054,3304,3252,3387,-1083,77,-1369
2055,7090,-606,-2818,-50,884,983
2056,6023,-7262,43,1043,1508,-339
2057,-1886,-7966,-3115,-1693,459,1678
2058,694,424,-3259,-1620,-267,-1869
2059,6238,-2882,-6995,-73,-1142,730
2060,7614,-7880,-2824,-898,-1219,1782
2061,1882,-2420,102,-1952,-326,554
2062,-2061,-6587,3497,-250,-1230,-49
2063,2590,-2167,7410,-368,223,-703
2064,2816,-4829,-2571,1691,-1739,-1633
2065,-3943,1411,-7246,-1849,1900,741
2066,2172,-1568,-223,-1353,-626,289
2067,606,-2144,-6039,52,-711,616
2068,-1680,5652,4804,-1340,-872,-1089
2069,-6842,-2540,-4764,1291,681,-1109
2070,-6223,5705,-6298,-1667,-95,-1835
2071,-6182,7741,1040,-939,-1131,1276
2072,-3440,-6714,-1364,377,1048,759
2073,-1602,2228,-3288,1549,1019,1832
2074,4707,-6004,1135,679,-1033,1021
2075,3666,-7270,-7169,1465,-1820,-1482
2076,434,1457,4987,729,719,-1987
2077,-3562,-4865,5082,1269,1650,437
2078,3364,3195,483,-1347,-230,-417
2079,5550,-503,-3347,-1078,-1995,191
2080,-7128,-3628,951,955,1974,-1007
2081,-2668,-3671,3430,-1102,-455,745
2082,-7053,5858,-2715,1517,1794,-1192
2083,-5331,4133,5600,1087,1354,-1288
2084,-6153,-149,65,944,1186,-1460
2085,2616,-1191,-6714,806,916,88
2086,4428,-1176,6592,358,971,-292
2087,-2045,-5363,5021,1767,1083,-1173
2088,7425,5455,283,661,-411,1157
2089,-6299,2582,-7843,-1070,1867,880
2090,4998,811,-3376,1167,295,-1557
2091,7946,-6088,-178,1952,-1220,326
2092,-383,6405,6795,755,569,-1520
2093,-265,6735,-2009,-960,-1320,544
2094,3003,6545,-910,-189,1219,310
2095,-4452,2317,-1436,-91,301,-126
2096,6373,6677,5974,83,1235,-456
2097,-7135,-6931,2079,-1576,1013,-973
2098,2378,4344,754,-1624,-118,319
2099,5712,3098,5481,-1602,629,1731
2100,2551,-4348,-7754,251,51,373
2101,-2028,4805,7073,-1279,993,-1982
2102,-6250,-5480,5134,-1058,-657,-163
2103,-6245,-2745,-4278,-294,-1330,1791
2104,4202,-6388,1743,1687,-1749,-116
2105,1124,3052,4756,-551,-1086,-544
2106,4572,-4702,-6634,-1481,258,478
2107,-2210,3737,1429,328,-1971,-108
2108,2416,937,-3599,-1554,1057,480
2109,-3230,6744,1866,987,-1094,1670
2110,1696,2929,468,903,1446,1753
2111,-6520,-4483,-6143,367,-660,-249
2112,-6101,-2545,4663,186,-103,-569
2113,-3636,-2178,-528,1977,1746,-1272
2114,-622,3484,-4116,1220,-1923,1800
2115,689,-3601,-7088,-816,-753,-631
2116,2942,4117,-2482,1857,-1818,1779
2117,-6229,-7132,1988,430,1390,1752
2118,64,-3050,-2265,1119,-1473,-1962
2119,3782,4743,-4058,-458,1422,-234
2120,-2706,4526,-4766,-1215,-599,-1493
2121,7170,7669,-5944,1442,765,-1721
2122,-6381,2907,3331,-1327,984,1181
2123,-2260,-4242,663,1651,-1221,-324
2124,5792,-3101,475,950,-1184,-1229
2125,-506,-5658,-5039,-1793,52,1525
2126,-1139,2070,5632,393,1081,1368
2127,-741,-7982,5679,299,146,1762
2128,2815,-6504,795,-145,-1759,170
2129,-4925,3837,-362,-1449,-1050,-1971
2130,5712,-400,3219,334,1148,1066
2131,-1672,6668,-6236,1929,1465,1162
2132,-3775,-650,3194,-694,-425,-1013
2133,3240,-5203,3023,-1999,-97,-1136
2134,-5931,7282,3921,1935,-945,-1938
2135,-1501,4385,7073,-1619,1734,-179
2136,-1551,-1322,-1783,-995,713,650
2137,3139,-6388,-1273,752,1838,1856
2138,586,-6165,5863,280,1369,-1948
2139,-3749,6917,4082,-611,-907,1111
2140,-2695,-3952,-2447,1369,39,-1826
2141,5058,-2637,-359,1,1944,1783
2142,-7990,-2877,2809,-496,136,-188
2143,1312,-7319,-4265,-753,-799,-1282
2144,-6512,-4417,-1231,-832,-434,-534
2145,3312,-6096,5478,1071,1522,-1923
2146,-4565,-5142,-4643,-959,-1289,521
2147,3650,-7895,2156,1604,722,1320
2148,-340,3305,1921,-1357,-158,-1485
2149,2342,-5390,6737,-1131,-1991,-1365
2150,5867,-997,7139,340,1727,435
2151,-751,6920,-899,-1166,1526,601
2152,1697,716,-2628,821,405,-1785
2153,-3241,-7601,-7370,261,446,-287
2154,3429,7430,6732,-261,-1257,805
2155,1915,-6193,6166,705,-1105,798
2156,-1422,7284,-7799,-98,-163,933
2157,-1891,4928,6091,1645,-416,-1351
2158,-5111,-5714,-5608,-1166,-718,-60
2159,1554,-5065,2660,1698,-33,-1502
2160,6119,6829,-4941,-1774,-169,-1713
2161,816,4567,-4921,1158,1310,-329
2162,2026,-307,7826,-767,-1545,-584
2163,-6615,6334,-1562,-960,-146,1128
2164,-3804,-3431,1566,-1406,1037,-1159
2165,-4654,451,7093,804,1392,-307
2166,5279,5602,4329,230,-1703,882
2167,-4536,5005,-838,-1890,-1508,-1447
2168,-298,-5733,-3358,1650,-1045,1830
2169,2850,2959,-3893,-1763,-1782,-365
2170,1909,-276,6982,248,47,-390
2171,-2057,-1690,4435,1867,462,1328
2172,306,-7059,-969,-273,-1356,19
2173,6717,-3400,612,1836,-1606,-1857
2174,-5952,36,-3598,-1389,-796,1064
2175,2811,-5680,-6940,-30,-1667,-1945
2176,-1334,82,2711,354,-1919,-1587
2177,4414,-1205,-3356,-1511,-464,-1909
2178,-2938,-6167,3759,-1467,-865,-557
2179,3620,-355,-1341,-921,10,921
2180,-1652,2467,7911,1904,484,-785
2181,4341,-6781,-6878,440,-1018,1934
2182,-5234,-5232,6774,-176,-1596,-1804
2183,-2436,-24,2331,-1348,-679,1066
2184,2795,7437,-7917,-561,-134,454
2185,-1401,-4405,6215,987,-1647,706
2186,1469,2286,-1678,518,1414,-1996
2187,7693,3705,-4015,1641,1375,-128
2188,7745,-1866,2617,-234,-1919,-1758
2189,-650,-7499,4232,232,-11,641
2190,5776,3990,-4762,1122,-1887,1903
2191,-4132,7143,4869,1968,-72,-1466
2192,7808,1872,2910,158,630,304
2193,2277,-2143,760,-426,1826,1735
2194,-334,7362,6563,444,198,-809
2195,-6645,2936,-996,835,-1669,-679
2196,149,7391,5501,-587,83,-1402
2197,-3279,-3440,-43,993,-1720,128
2198,6382,3406,574,-1400,-1150,-1113
2199,6689,5708,7194,-183,-211,-1883
2200,-2155,-4451,-4124,-1620,-1728,410
2201,-1877,71,809,-1305,-1094,1007
2202,-2612,-5922,627,-831,439,475
2203,7050,-4214,-5117,-616,62,1888
2204,-1402,6893,-7726,-1359,-796,981
2205,-3578,5847,-1061,-178,-1126,-1496
2206,-1527,3856,5124,-1701,-872,242
2207,7070,626,5585,1127,-44,1434
2208,6472,-6324,-5114,1022,-1155,-1970
2209,-7648,7134,1911,1131,597,1564
2210,-7299,-1105,-2328,858,-1227,-1804
2211,-6671,-6533,4952,-1463,-463,56
2212,-4948,-2984,-6289,890,30,-1968
2213,1758,-1642,5689,1894,199,-796
2214,-2608,291,-4504,-493,-1642,-1039
2215,3634,-5816,-4728,959,1301,-528
2216,2065,-1965,-1861,576,-1300,1469
2217,-2284,3771,4699,-448,1728,1483
2218,-2591,7766,-776,-89,406,1928
2219,2953,554,-5961,48,1913,102
2220,-5081,-1973,2588,1276,-1159,950
2221,-6741,-3438,-3595,-841,-483,-452
2222,-2218,2977,-666,-1580,-1028,-424
2223,6907,1623,-2584,70,-1789,-1345
2224,-4591,-6911,-6466,-1703,-1681,394
2225,-7295,-4149,-3601,1164,644,-1699
2226,4417,5656,-5299,-868,185,-1057
2227,554,-1471,3480,-1270,253,-944
2228,7350,5661,-7147,-710,-388,-575
2229,-6938,-5807,4633,519,-1163,63
2230,3575,6654,-1946,1271,1717,190
2231,-3100,6417,-5041,339,-189,-834
2232,7221,7637,3829,1833,812,1179
2233,2828,-5225,2901,-1495,188,-1314
2234,5168,3619,-6964,1209,-1695,-1724
2235,4200,-7008,7226,-1047,1663,-445
2236,-7357,4767,2859,1682,-5,914
2237,2914,5117,-5750,1033,885,222
2238,1110,6759,3871,-1942,921,-71
2239,-2141,4562,1561,-1589,1059,982
2240,3203,-7228,-4434,1157,211,1348
2241,5876,637,38,9,1579,-1354
2242,4835,6953,4065,-609,444,-1320
2243,4448,7304,7587,1134,-1230,-1329
2244,4007,3201,-1946,-1435,-786,-336
2245,4181,-1502,-4964,-578,-1724,1899
2246,1524,-6742,-5068,-523,-1181,-457
2247,2798,-2697,-183,1195,-518,608
2248,-7772,-5279,1321,-868,-223,-217
2249,5693,-5967,3204,-731,-679,-354
2250,2635,4692,147,-1632,-1613,510
2251,-2491,5590,6292,-760,1334,-1061
2252,-4596,676,-808,-821,1813,-815
2253,2645,-6610,1234,195,-1491,1174
2254,-3232,-154,1837,-73,300,-432
2255,3199,-6410,4790,1360,582,308
2256,-2237,6961,-6638,1586,-1559,802
2257,6850,1694,3713,326,-717,741
2258,-4387,-3636,-1041,1987,856,364
2259,6629,-6340,6741,-326,1463,-204
2260,-2934,1141,2349,-1647,-1544,-1613
2261,4621,-5507,-960,-460,1812,-1972
2262,-428,6924,3323,-1983,1504,-1223
2263,3150,-3488,7177,-886,896,-973
2264,-6411,-1502,1663,-581,-1764,-286
2265,1717,7853,304,187,-619,-1915
2266,-7582,-837,2225,-232,863,710
2267,-2860,7215,-6157,1811,1726,678
2268,2865,2427,-5367,-1883,-1881,-1409
2269,2483,2130,-5335,-496,1285,794
2270,-7756,549,-6596,1883,248,1157
2271,-680,7928,4928,-122,-623,861
2272,3374,-5808,-1579,19,140,1987
2273,7904,3292,-3059,700,-1053,1434
2274,-1762,-1479,2558,-119,-1179,-885
2275,460,-3758,-373,1526,-1993,103
2276,160,-6545,-6437,1104,-1271,-1961
2277,-5574,-2455,-1241,-823,-566,823
2278,-826,1834,-7685,1741,1263,-1667
2279,5364,5082,-2509,-1573,-487,-1513
2280,-3101,-7571,-5303,1151,1968,-1314
2281,7079,4287,-4749,1073,1536,1861
2282,-3396,-1902,-4330,1067,-1400,99
2283,6905,-7695,-1057,-1390,1058,594
2284,3919,-7855,-1009,-1781,-272,-1642
2285,7368,-2155,791,383,1094,-1307
2286,145,-1812,6941,-1470,1301,-1914
2287,-4626,5887,-5943,279,861,1587
2288,7956,-2156,4653,-957,-1733,-1295
2289,1631,-3039,-1100,956,-626,713
2290,5163,-4762,1516,1917,-242,-1500
2291,-549,64,2623,-1960,891,-541
2292,-4992,1955,4775,-761,149,-1445
2293,901,-4399,-3229,-1385,776,-1581
2294,-2678,-686,-3169,-1037,936,444
2295,1904,2234,1130,1430,-938,-122
2296,7364,7342,3927,-1434,331,-829
2297,-4069,1442,-399,-448,1345,-1308
2298,3841,6113,-3208,814,-1019,-1382
2299,2787,5702,2538,-1164,-1616,938
2300,-4105,-1021,4989,1457,1679,632
2301,-3888,-3504,5042,1899,-882,606
2302,-1027,1005,-6374,-436,-1787,1615
2303,-3516,3578,6099,1798,1051,610
2304,-5015,-5125,1520,1797,-5,953
2305,6910,-7543,-7215,21,35,879
2306,-265,-3750,-2903,-976,629,829
2307,-5450,4889,-6192,767,-1053,902
2308,7588,4030,-6442,297,823,-153
2309,-7021,1514,5087,962,1657,-840
2310,156,-696,-4131,1832,-406,-495
2311,6908,-231,-3852,-187,-1239,1495
2312,-1418,-6604,3086,427,644,-1546
2313,4733,-4921,-6227,168,-1178,-1442
2314,3494,2176,-3671,1453,1694,1877
2315,2828,-4327,-3783,670,103,1579
2316,6068,5885,-337,-1596,-1211,-1330
2317,1966,-5967,441,141,-348,571
2318,-3721,2654,1928,-1376,-1689,1096
2319,3429,3366,-4436,-1191,1867,-1362
2320,887,-4747,-1166,889,522,-1329
2321,2000,7676,545,1079,-1700,-1254
2322,-3918,-6048,1065,845,258,-1151
2323,6706,7126,-6843,96,780,1202
2324,698,7627,1061,1577,558,-617
2325,6735,-5641,-2020,-1899,776,612
2326,2901,-2578,-1388,-1842,-361,-111
2327,1464,6267,-3746,-1735,1378,-1564
2328,7188,2311,-7306,-1176,-885,-1292
2329,-5201,830,909,-336,-1369,-847
2330,-403,-6574,-3697,-790,276,194
2331,-3113,-1854,4607,-1887,-1050,-941
2332,-6385,1437,7218,1795,-1289,-1995
2333,7000,-3166,5466,-854,-269,610
2334,-5400,-643,-4606,-525,-831,358
2335,-1727,-2621,5086,1274,1785,-1354
2336,-5473,-1023,7187,-1383,304,937
2337,-6497,-4486,-4097,383,-220,1859
2338,5558,5400,-2060,-249,351,-1652
2339,-6755,6516,2544,-767,915,-73
2340,250,-4566,6879,-369,1185,877
2341,1698,7888,2825,-228,399,1289
2342,3966,7005,-7260,-1772,-925,-10
2343,-5188,-2258,-5836,-681,-1985,1829
2344,-1838,7127,-1169,1793,1930,-1982
2345,-1828,7651,7518,1390,1990,-308
2346,877,-6495,3211,-205,-762,1717
2347,-4318,-4905,-7253,-1577,-359,1160
2348,-4613,-3343,-530,-1228,-637,1911
2349,1985,1253,-6617,-777,696,-1954
2350,-5214,3442,-2235,-122,1391,1707
2351,5660,-1334,-2594,-1331,57,832
2352,-5737,2746,6798,-432,-1024,1940
2353,-5880,-4091,5933,1644,413,-989
2354,3038,-3178,4940,-1818,502,-447
2355,126,-6499,-5500,-1438,773,-140
2356,2787,-4724,-5840,-558,389,-1356
2357,-2770,-3386,-2754,707,635,726
2358,-5227,-5342,5340,-344,-582,-1182
2359,558,-7443,182,1078,-1248,73
2360,-2825,-1992,-3837,-1094,-1495,-988
2361,6775,5081,722,-1278,-583,921
2362,-5762,3177,-4051,925,-37,83
2363,-1433,-6174,6624,1537,-1825,-515
2364,6630,-5943,4439,-115,83,206
2365,-5785,6285,-2323,-628,219,294
2366,3276,7508,4489,-270,-286,-1445
2367,7053,-5433,-6315,824,-230,213
2368,-4410,7582,2216,-1073,1817,1619
2369,-6065,3652,-6780,1389,1203,-55
2370,3453,7569,-4002,-1529,-260,956
2371,4476,-892,-3338,1515,-1698,1573
2372,-3914,-3794,5037,1386,674,-499
2373,1857,3106,-5615,-1951,444,-219
2374,3765,2488,2254,-969,41,1407
2375,7295,4047,6223,1340,-684,1723
2376,-148,3701,1590,1984,1366,-745
2377,2961,3968,7468,-750,1607,-1752
2378,-2519,2499,1515,1893,1582,1090
2379,-788,-2291,5040,358,-1230,-1681
2380,-4213,6274,6661,-985,-1090,-957
2381,-5965,-7305,212,-393,-902,-1409
2382,-298,6805,600,258,-151,219
2383,4972,-320,1133,1275,807,-1421
2384,-7755,2588,-7348,871,-207,1536
2385,1316,6547,7790,793,535,526
2386,-6403,-6047,-1647,-1555,446,283
2387,-2308,-5850,5452,-1438,29,-1155
2388,6802,-7221,-2359,-798,-616,216
2389,6998,-7025,2582,-1828,-931,1088
2390,4368,-6985,-7612,-242,24,610
2391,3950,4368,354,-834,168,-1590
2392,-1179,-4862,-2524,-995,521,-1074
2393,3592,-3990,-2026,1105,1249,-837
2394,3335,-2123,3740,-49,1087,-1678
2395,-2868,5389,-7499,-846,862,658
2396,5017,6510,-7199,-142,-348,1542
2397,1779,-6712,1926,1266,-1313,-649
2398,1526,2454,-4918,1693,-1923,-1042
2399,3590,442,-2551,1224,107,1546
2400,931,1871,2119,959,1034,403
2401,-664,5269,-1151,249,-135,1131
2402,1633,659,3166,-905,-663,-475
2403,-2858,838,-649,-348,-620,-1511
2404,5418,-4904,5214,-1601,405,749
2405,-4851,-1733,1134,-239,532,280
2406,5229,2098,-492,-1358,-1730,776
2407,1194,6278,-5776,-1102,1702,1604
2408,-5908,5749,-4275,-513,1997,-107
2409,4616,2501,2807,-1615,-708,1222
2410,-188,-4455,-4214,-42,-403,587
2411,-673,-3726,1810,-1628,-497,-840
2412,-141,558,-2736,667,1961,-684
2413,5313,2591,-7074,841,-1503,-163
2414,4991,2789,4546,-1866,-1453,1336
2415,277,-3209,6694,1423,76,600
2416,1060,2002,-7651,-724,-713,271
2417,-7983,1498,814,160,-85,-338
2418,436,-2135,-514,-1696,-1992,428
2419,-2996,2336,-6987,605,1138,-782
2420,491,5042,7245,-632,484,485
2421,-3184,4733,1927,-556,369,18
2422,4327,-4320,-4596,-1265,355,-104
2423,3920,-3372,-1151,1006,-1588,-987
2424,6490,-3619,-4841,-1429,1710,-212
2425,-1474,-4299,5183,-626,-427,-203
2426,-5027,1242,6593,-1749,-1287,-267
2427,-6676,-4595,4827,-1887,-1618,-1726
2428,4972,-5347,5230,-1343,919,-1340
2429,6142,3782,7191,1068,59,414
2430,1632,6872,-7066,-1228,-694,-960
2431,-2839,7132,-191,-1407,1467,-1286
2432,5336,-6441,-4083,313,-498,-1020
2433,1638,3238,6493,539,-1002,-1509
2434,-6322,2259,5379,-1479,-98,3
2435,-4141,-525,-4889,-1224,-1472,1382
2436,-6146,4748,-4540,-478,1407,1764
2437,-5123,2316,-6997,-1965,1426,1790
2438,-7710,6358,6680,-984,1230,-1481
2439,7404,1458,-1210,819,312,-1471
2440,3829,3003,-1330,658,-1167,1646
2441,7653,6311,4083,-1016,-443,-9
2442,-6002,-855,-2906,1664,922,1028
2443,-413,5247,-6201,-992,-610,1493
2444,199,-5525,815,-540,765,81
2445,2301,-2697,-3330,1450,169,-668
2446,-3905,-4806,2508,-633,-172,-247
2447,3561,4945,-5127,-645,687,-436
2448,-4451,-3711,-3629,-1595,1475,912
2449,-606,-1833,1166,-1509,750,-627
2450,-1855,-1498,7249,-612,-1251,1935
2451,-4084,-2911,-2266,-1858,548,-1459
2452,4409,-6214,3515,-1106,-556,-994
2453,-3077,184,-2765,309,-436,1747
2454,-7149,-5265,7712,870,-1668,-698
2455,5330,-7656,3856,-262,-327,1692
2456,3576,-160,7452,-1852,-1362,-652
2457,2843,-4573,4261,-1842,1922,237
2458,4635,-1345,-5132,-1693,14,234
2459,-1299,-5907,-116,-683,-567,-1343
2460,6852,-4329,-7901,735,-1507,892
2461,-3968,-2259,858,-1018,-1865,-1389
2462,3996,2048,4596,121,-100,-288
2463,-773,-7481,-3675,371,1756,-607
2464,-4673,-5858,-278,-1312,-1342,-1299
2465,-7085,-3045,-7961,-651,1952,-1463
2466,2271,-5040,3725,345,-759,-670
2467,-7973,4213,-6376,-1834,21,855
2468,532,6225,818,-702,94,-378
2469,-2818,-892,-747,219,79,1674
2470,5476,3770,-3377,387,-1379,867
2471,3252,-7750,-5967,-1468,-1794,-1801
2472,6112,-7501,-6177,-1292,-1570,-16
2473,3661,-1368,-514,1183,1948,1592
2474,727,452,991,481,788,1716
2475,-2680,5399,-7990,-1600,-1685,830
2476,307,-3808,-4107,1932,-1252,353
2477,-2291,-206,-7608,-501,-1945,-557
2478,4044,-1949,801,-1295,-435,-464
2479,-3467,-68,967,-966,-192,606
2480,-818,30,1746,246,-832,-350
2481,-5686,-5688,-2298,-862,-174,950
2482,-3189,-1094,3267,-980,-1649,1413
2483,4117,-4262,2337,-310,1809,-375
2484,-6807,-1579,2429,-1325,709,455
2485,3454,1707,355,-1202,505,1023
2486,6404,6818,6962,-1349,66,-1107
2487,-1871,-4057,-7471,1338,916,524
2488,558,-5612,1320,1657,1571,425
2489,-4105,6333,7399,1578,-1403,779
2490,-625,-7146,453,-18,-788,1548
2491,1883,4249,-4485,-566,-439,444
2492,7093,3722,4473,645,-1919,-1748
2493,-3816,6525,-2417,-1818,-1067,-58
2494,580,-4058,6789,-1392,-153,1609
2495,-98,-1840,3950,562,-897,1013
2496,961,-6940,7478,826,-1444,271
2497,7624,-6729,-3589,-1443,-1499,588
2498,4091,-6817,2450,-1291,-1547,370
2499,6321,-7163,7602,-1380,-682,1388
2500,7856,5098,7868,-1845,1250,-170
2501,-4478,-7687,5614,1786,294,-16
2502,4998,-7238,-5481,-1262,984,-422
2503,4590,5799,7807,-1957,-1436,1526
2504,978,-4377,-1660,1155,1283,-1516
2505,-4071,5323,977,-332,-1551,760
2506,-6564,-1174,6892,-375,-1313,1813
2507,-3745,1274,-1718,1697,648,-449
2508,3951,-1039,1717,-641,172,1309
2509,4091,6382,-1120,-934,-1806,-1420
2510,-891,310,-7358,-465,687,-1230
2511,3269,5993,-6793,-485,1274,1010
2512,-6504,-187,6995,-1694,1422,-1814
2513,6832,-1598,1341,1073,-39,-918
2514,-5830,6704,-6609,-87,270,135
2515,-2181,-760,-6404,-164,1893,-1578
2516,2081,5369,4,1185,925,1651
2517,-2201,-195,4415,1219,504,1837
2518,-7775,5452,-4632,599,-1023,-1236
2519,-7234,-180,5421,-951,-1525,259
2520,4022,6894,7501,1195,-969,1111
2521,5428,-122,-6490,1051,-1979,257
2522,1527,6279,1450,514,175,-306
2523,-3398,1377,-3365,530,573,-1454
2524,-6591,-5355,5332,-129,1253,-1190
2525,-3987,3143,4085,-1852,-51,-359
2526,2022,1018,6095,-276,-1034,-485
2527,7080,252,2264,-1379,-862,-1042
2528,-7143,3235,7447,1985,-1463,-1506
2529,-5412,5526,3291,296,1861,-1620
2530,-744,730,-705,15,-1941,-289
2531,1196,1657,1782,792,302,1448
2532,7221,-7859,1782,435,-354,-1647
2533,-5912,4406,981,-1939,1875,1363
2534,-7017,3602,-7808,562,147,995
2535,-3652,756,1176,444,490,-287
2536,-1748,7114,1551,-551,1858,596
2537,2133,-6299,-4603,-353,-338,-539
2538,1580,4488,-7149,1878,1510,136
2539,-7535,-7567,-3129,159,-119,1342
2540,-4371,6222,-7718,-1134,226,-1516
2541,-3304,-4660,-2988,1994,-1802,413
2542,5887,1354,-7352,1558,-721,-1434
2543,5560,1726,-2044,-1517,85,1882
2544,4525,-5868,5944,-178,1793,1206
2545,7925,-2837,289,-1410,1757,212
2546,6573,2179,4057,-540,643,1905
2547,-4946,4214,1750,506,-1124,-1066
2548,40,3497,5476,-1694,-1326,-97
2549,7987,2919,-1181,1581,-1581,-217
2550,6387,7203,-5725,-1265,1333,-945
2551,-5443,2159,-2494,1642,-1959,-235
2552,-1916,5639,182,-476,1322,799
2553,-1984,2489,-4423,948,398,678
2554,-6039,-963,-6670,1390,1356,468
2555,444,-2264,2957,1586,-1504,-1226
2556,1859,-1918,-4309,-1302,-287,121
2557,3862,5283,774,285,-1501,-1981
2558,-4084,-4794,7552,-578,-779,-1855
2559,7640,693,-1844,-518,-1937,1319
2560,-6611,-7490,1138,1851,-1190,680
2561,5168,768,-5596,-1079,1563,-1677
2562,-4345,-7574,4627,-816,-1227,-1550
2563,-1551,3433,-7649,-885,-330,255
2564,357,-5706,-2988,-1818,1791,-1110
2565,1847,-5264,-8000,-1774,1043,-454
2566,4982,4530,6685,305,-314,-1989
2567,2441,3454,-295,-1919,1953,-742
2568,-6734,4932,7807,1350,-1882,1268
2569,3594,7412,7331,-1449,791,1641
2570,-6384,-5493,-809,-479,-165,1051
2571,5843,7166,-5748,60,1472,1414
2572,6679,4088,-2517,-1644,-1250,1002
2573,-6651,7850,-4764,-1706,-1434,-1304
2574,318,3646,4696,-1302,846,1234
2575,-3824,-6810,7605,222,-1170,1874
2576,5141,-3885,2847,-337,-723,-1019
2577,-6398,-2429,4794,-750,-1594,-1334
2578,5813,5295,2156,1492,380,-638
2579,1561,1546,304,-485,1187,184
2580,874,-1181,-4960,1355,734,817
2581,2136,-2673,-5598,-690,719,566
2582,-323,3292,648,45,-673,-1579
2583,-298,-761,7901,502,-819,1204
2584,-97,3650,4439,-1587,-610,-1634
2585,3345,545,6729,530,173,-1578
2586,-699,6230,-6749,764,841,-1953
2587,3724,6398,-1688,399,561,-1872
2588,-557,-7641,3498,1063,-486,-718
2589,5558,-4153,-4284,-1587,-1202,321
2590,-552,1848,1674,-1059,-1311,-766
2591,6646,3799,-86,282,-115,-1270
2592,3098,-5823,-101,997,864,968
2593,7089,1582,-6050,-1134,1351,528
2594,-1803,-404,1781,-685,1313,717
2595,492,-2208,-5540,-1630,-953,-337
2596,5633,-1629,-4027,-1461,1891,-468
2597,6287,-3695,7387,639,1001,-1599
2598,-7385,5142,-2238,-1667,-1252,-1052
2599,-3788,-4034,7311,1092,1244,450
2600,-4180,-32,6810,712,-111,1586
2601,-7958,-234,3916,650,-905,705
2602,-2272,4683,3805,1856,658,-202
2603,-5784,-5263,-1738,1827,1410,-1877
2604,-1748,4752,7108,1183,-23,1927
2605,813,7250,-2071,-1451,211,664
2606,-5112,4966,3503,-1244,373,1597
2607,6282,-4635,5767,-671,-184,-460
2608,-3435,7087,4913,-1988,-1353,-419
2609,-5440,-6279,107,1789,-822,-302
2610,-433,-2432,5137,-329,890,103
2611,-7769,1900,3336,-930,627,-601
2612,-4249,-5329,-2965,-463,-1006,1068
2613,6728,-223,6660,516,-672,-408
2614,-2359,-3530,466,-282,1729,-1255
2615,5106,1616,-644,-1386,-698,1508
2616,-1977,-106,-1733,1735,1971,205
2617,7898,-6310,1124,-260,177,-1619
2618,4026,-3796,-2085,-1138,581,-339
2619,-7343,-5883,5834,-490,-1159,1364
2620,-2201,6785,-2594,-157,-444,1941
2621,-7010,-4213,912,1008,319,-1608
2622,-2428,2011,5861,1999,-326,351
2623,7837,2062,-5784,1716,-662,1574
2624,5277,4380,7220,435,916,-1354
2625,-7545,7233,5158,1312,-362,516
2626,7842,4064,4345,-955,397,1062
2627,7916,6973,-6388,191,1044,1519
2628,7355,-1193,2340,-427,-1449,-841
2629,1760,-4327,-3248,1174,1950,1781
2630,259,-50,-7437,-1293,312,-1353
2631,-1632,3809,7570,-648,-1390,866
2632,-2939,5798,-5199,1221,1961,-1562
2633,6020,-1843,-3803,-432,-518,45
2634,5854,-3562,-2900,-122,-526,1130
2635,-1138,-62,6249,-1594,-575,1676
2636,-3491,6580,-6698,-598,829,-1332
2637,-4301,-7387,3909,1273,-1314,1120
2638,-3266,-1267,-7707,-1791,-74,-1924
2639,1211,1893,-7073,-17,-1231,925
2640,-4951,-5798,5033,-760,1787,1555
2641,-1845,5518,6198,-844,-844,1601
2642,-6277,-2096,-2432,1006,-1479,1463
2643,7008,3600,426,1360,-112,-920
2644,-6479,-1062,-7392,1121,-1657,282
2645,-6949,-4206,-3400,-805,-91,-1300
2646,-6855,-731,4223,-168,1958,-1619
2647,5468,-2746,-523,1010,1940,-1886
2648,4907,5267,6099,1447,1535,1347
2649,1206,269,6445,-1667,1558,-900
2650,6656,-7523,-7607,-163,-1341,463
2651,-5653,6952,-6767,-441,-1089,-1460
2652,-1706,-1977,340,-707,1202,-1760
2653,-7801,743,6352,1351,514,493
2654,7996,3292,-1381,-501,207,-1706
2655,196,2599,-6979,-1675,1206,-903
2656,6171,6841,6307,-1234,759,1529
2657,3073,-5185,7508,-1345,-892,1707
2658,5446,5218,7945,-1687,1374,1240
2659,7776,-7957,-6093,-433,-957,1687
2660,-6143,2335,6451,1812,968,-1542
2661,2177,3095,3786,1793,1807,323
2662,1415,4887,5949,-1391,1991,-616
2663,-2402,-821,6305,-208,-212,-657
2664,3916,-4003,-6871,724,326,197
2665,-424,-2315,-2229,-356,527,1543
2666,-4361,-7178,-6314,398,-812,-1732
2667,-3101,-4602,-7879,996,-1327,458
2668,-4738,-5222,-4369,656,1503,-1706
2669,2315,1454,-2092,646,-379,317
2670,-2498,1763,-6104,-1938,-320,-1524
2671,308,-6198,1189,1250,-1683,-778
2672,2477,-5551,-2850,-1060,-1786,-1746
2673,4735,-3072,2911,1956,796,-389
2674,5795,-5508,4867,1230,-745,-1835
2675,-7702,7610,5720,-1373,-1740,1163
2676,7690,-44,2121,-1534,387,810
2677,1959,1564,-7641,1382,1814,-1885
2678,7810,-7061,-6308,140,-1877,1361
2679,6752,-1784,6057,-530,-696,1371
2680,-4307,-1763,5760,1609,1506,-325
2681,7294,9,-1617,-1819,-1606,-835
2682,3121,76,3689,1235,667,34
2683,2243,-5385,4855,174,743,1717
2684,6099,-7378,-3658,-1002,684,858
2685,-1149,2875,2689,-537,-936,1521
2686,6277,709,2563,1846,-1259,746
2687,4040,1675,5717,-1019,517,1069
2688,3096,-5396,-5554,1861,-1646,-433
2689,7103,-3368,4284,-1548,1751,-1189
2690,5945,-6246,-363,1306,1935,-303
2691,-5985,3770,5893,-917,908,1608
2692,4412,-569,5074,-269,-671,-818
2693,-6719,-5120,-1807,474,-979,1177
2694,-1153,-7810,-2096,933,-1066,1310
2695,-7112,-7211,5608,1612,376,-362
2696,-7577,6515,3633,1397,1933,-1459
2697,-7746,-1723,4721,-836,744,-1052
2698,-2260,988,-1126,884,-73,-966
2699,-435,4341,-3997,-815,715,-1554
2700,7881,-6579,-2131,-1530,1944,4
2701,-3359,-1512,-1555,1791,813,1237
2702,3477,-5851,-1828,479,-1140,-1409
2703,-2875,7591,-3492,-1622,1990,-1232
2704,-6910,-720,7080,1191,-942,-892
2705,-2382,-1593,-3322,-697,118,-1184
2706,247,7862,-1239,-405,-318,-1527
2707,7530,3811,2421,-1897,-1839,1720
2708,-1614,-5000,-4671,1354,-294,-1395
2709,-3783,7452,638,-572,1055,1730
2710,1410,-5124,4559,-548,737,1571
2711,7739,-345,569,-555,-1606,-1856
2712,122,4230,-1165,-1147,-1318,886
2713,612,-3645,-7080,-790,-1589,1850
2714,3077,-2911,3926,-861,-1166,932
2715,-3515,-1668,4321,-1168,-389,-482
2716,5211,2721,5867,-483,-1497,-1268
2717,6836,-7603,-1677,-677,-365,1930
2718,-4846,-2135,-3368,1328,1489,154
2719,134,-7025,-1348,-11,-1335,-976
2720,3520,-5060,2776,873,-1591,981
2721,544,-7743,-7602,1201,-345,-504
2722,-616,3911,6597,233,550,-262
2723,7265,5853,4006,-217,-983,-1791
2724,3748,-3135,-6181,1779,-131,36
2725,-6644,627,6222,40,1467,1151
2726,4776,5464,-128,-1229,1030,1039
2727,3883,4830,4937,-1356,387,-1292
2728,-3898,4028,-7047,189,142,1085
2729,7364,2053,809,-1283,-944,-690
2730,5741,-5532,-6794,-742,-1117,736
2731,7242,-5160,2218,1185,547,420
2732,-3656,-7853,-309,505,-660,4
2733,-6787,7932,4320,864,-653,-1016
2734,-6913,-3853,4764,396,-951,509
2735,-3086,-3374,6143,1810,1415,1055
2736,5400,5640,-6290,-52,7,-386
2737,-4270,-7305,5264,-259,-1779,762
2738,-5751,7690,5653,-1289,-1688,-1638
2739,7027,-6000,-4940,-86,-1539,-1393
2740,-394,2285,1432,519,1171,1457
2741,-3247,7381,3884,1821,-1449,279
2742,2951,-5151,-1729,-1678,-1989,543
2743,-7391,6307,-2374,-89,1965,860
2744,7148,1093,-1123,96,-1071,-1319
2745,-7799,-6877,2125,388,-1153,607
2746,4030,-6304,2714,-4,-785,-364
2747,-2672,4286,-4202,81,-1363,1863
2748,-935,-2697,-6417,-295,86,305
2749,6174,-3608,-3784,739,1578,1717
2750,-4822,-2170,6599,-347,1995,-869
2751,-1258,-2815,-1772,-629,1629,-1745
2752,-6697,-1862,1034,-1250,-865,1887
2753,2656,-5682,4335,-1065,477,1063
2754,-1851,-1614,2800,235,-1058,101
2755,-321,-6786,-7907,1243,-1930,-1205
2756,-3050,3405,6297,1556,-1802,-283
2757,3221,3535,-4603,-823,1654,1894
2758,-5214,797,-5425,1622,1453,-1576
2759,6222,-3581,-1476,566,-1775,-845
2760,6005,-7555,-1298,1889,405,-1051
2761,7061,-4488,-7755,1655,890,754
2762,-1093,405,2158,1279,-1408,-1976
2763,4151,-1865,-7198,-430,1015,-129
2764,-2891,4663,7452,1605,1415,1638
2765,6266,2018,-4889,-1053,538,-307
2766,-2040,2836,-1387,-1898,618,616
2767,508,4348,696,-895,-1815,573
2768,1184,2547,-2083,1770,534,792
2769,7496,-6637,-5903,933,857,-1501
2770,-5524,7424,-3934,1138,1545,-928
2771,-5916,5794,210,1460,-1134,976
2772,-6093,-2103,5261,320,490,-1911
2773,-3512,5518,369,325,415,-1319
2774,6606,693,-7987,782,-42,-2
2775,-1095,-1874,6022,1358,1954,1962
2776,-5497,833,4729,769,1340,-62
2777,-4607,-5722,-3647,32,182,1116
2778,-4604,-3093,5828,741,345,-907
2779,-6980,-4382,3316,-1736,1049,1938
2780,-5906,-543,-2424,1034,-1360,1643
2781,3757,-7368,-3752,-1887,-1407,-538
2782,4141,-3759,-7234,-247,-654,699
2783,6193,4099,3495,-1562,1494,-1876
2784,-2506,3659,1327,1955,1305,-978
2785,7609,4714,-3261,1460,731,-48
2786,-230,4577,-2252,-978,878,-165
2787,1743,4256,-5803,1576,-1444,46
2788,-6345,-772,-1964,-1009,730,-141
2789,-7965,-7277,83,1621,942,-1471
2790,-6185,-5047,-5577,-1701,-107,1308
2791,-385,-4368,-4959,1889,336,-59
2792,580,-3104,-4493,-71,1987,1264
2793,2131,-3362,-329,-1013,-1773,-93
2794,5163,2970,4426,481,267,1455
2795,-5268,-833,4042,1067,-556,1636
2796,3791,-5183,235,-817,588,-1564
2797,6696,6038,-7463,121,-818,172
2798,-7544,172,-4856,431,146,89
2799,-6036,-2703,-7550,-355,-285,1156
2800,2482,5892,6825,-683,245,963
2801,-2977,-7685,-4785,1400,-1554,-16
2802,-6559,-7347,2457,-1489,276,-1480
2803,-4112,7339,-7302,-321,542,732
2804,-5608,-425,-7149,1610,-1921,130
2805,-4264,5419,3376,570,127,-1736
2806,-4270,1309,-2863,596,-181,1613
2807,7640,-7227,650,-80,-467,371
2808,-2485,7677,3304,1856,1187,1762
2809,-4530,7377,-4296,-1391,-1574,911
2810,4413,-4571,5588,748,398,1586
2811,-786,-6288,1329,-1638,779,1067
2812,-5427,3306,4617,-231,104,889
2813,2420,-1727,2287,1720,-548,288
2814,-4360,63,540,-373,310,-1417
2815,-3234,5385,585,-1040,-458,1512
2816,-7597,4726,-2327,1578,-942,-714
2817,-7328,6498,4425,157,226,-1311
2818,330,-5182,4418,540,978,-1300
2819,-2612,2732,-1093,278,-661,1482
2820,-5082,5528,-702,-883,-667,892
2821,-3552,-3550,6727,-1207,101,-45
2822,2171,7934,-7738,-1031,-995,-672
2823,-131,5226,7267,-750,1969,309
2824,2285,-5783,7192,-521,42,1612
2825,7254,-7777,6384,1690,-213,853
2826,-5192,1698,2581,1487,-141,-1123
2827,-157,6931,869,-554,-363,-1722
2828,7650,7637,-4683,1236,1574,-1229
2829,-6849,5535,5162,1846,1228,-1446
2830,4884,254,-6032,945,1310,-1357
2831,-2046,-7643,3332,-928,-742,-869
2832,1570,-452,6891,-1228,-188,126
2833,5673,-41,-6734,1198,-617,1540
2834,3641,-1083,-937,1143,1330,-978
2835,-3260,-5415,-5608,1026,-1546,-715
2836,-568,-7610,7044,1631,-351,899
2837,-4099,266,4364,153,1437,-326
2838,-5793,-2295,-6702,-412,710,-611
2839,-3403,-4570,-906,-198,-1464,-1972
2840,6187,-6165,-5973,-1093,330,-709
2841,-5160,-3728,-1765,963,1607,1362
2842,-6059,-1236,-6522,1895,-132,-38
2843,5334,3022,-3147,-1680,-1184,1797
2844,1644,2343,3767,-455,-1859,1207
2845,4465,-4181,-3412,1135,-1897,1665
2846,-1702,4903,-6689,120,-1071,1878
2847,-4289,-7721,-3605,1170,-107,894
2848,-5420,-5436,561,-581,-1657,-1240
2849,-5387,5313,3411,1399,-581,265
2850,-7707,6812,-5485,185,152,701
2851,-331,-821,2720,-677,-973,1728
2852,2889,4462,-7661,256,1349,1566
2853,4967,442,5361,-67,884,1785
2854,4991,-6661,5038,-322,-1359,-1719
2855,-4055,-2945,4752,-1575,-110,-1952
2856,-3159,-4531,182,-539,-993,-1361
2857,2274,-4039,4396,412,589,128
2858,-4874,4844,-5051,1184,-1408,1946
2859,-1277,-3604,4105,-1449,1299,-1063
2860,88,-5677,-4181,528,1953,1633
2861,1745,4872,7612,1018,-1025,-1198
2862,-2485,4861,1455,639,418,566
2863,1760,341,-4516,1003,-1128,-258
2864,3994,6602,-5476,273,151,-521
2865,-630,2794,-4441,-911,354,-465
2866,-4781,-706,7565,-118,1334,-1594
2867,-4767,-1558,1636,-352,-492,-919
2868,-462,-134,5714,219,567,1114
2869,3320,-1830,1805,-508,-838,1341
2870,2398,-2457,-4081,322,776,-1780
2871,-6515,-4562,-4539,1879,1911,-614
2872,7719,-4096,-6750,1896,1501,-556
2873,5188,-4551,-2928,186,401,-1963
2874,-3603,3403,4440,1913,598,-1415
2875,4589,-7106,-4649,-1771,-1649,696
2876,-3780,-3144,7910,726,828,1758
2877,-551,-6879,-1981,-613,-38,1357
2878,349,-3648,-8,-757,-535,-71
2879,-7358,-7370,-1765,-569,1758,-560
2880,-7422,-1798,1481,-1747,1825,1674
2881,4991,7743,-841,-1588,812,1506
2882,-3429,-4663,-7397,-1320,1931,-421
2883,-4728,-4164,4127,-1141,-1523,-50
2884,-1514,-7905,-5794,741,1495,1478
2885,-2986,-7617,-933,-1861,1560,634
2886,5073,-6424,-6472,-160,486,-365
2887,-6373,-4256,2869,-1956,367,740
2888,1179,1128,-7388,844,271,-851
2889,-1595,1430,-6080,-660,-210,-15
2890,-6613,4780,-3548,929,-1485,1524
2891,-4095,2500,3047,595,-1944,-121
2892,-2609,1908,-5219,-1122,-161,86
2893,3219,-3201,-7515,4,1040,1678
2894,6694,-2467,4130,-1070,378,1957
2895,-2233,4715,5902,1526,-700,-1785
2896,-2143,-2173,4566,-499,1294,64
2897,6181,-6233,-5022,-1997,1466,913
2898,6700,-925,4431,-1476,1458,420
2899,-7067,-7637,-1791,-930,-1642,-1950
2900,7642,-4778,-570,-467,1929,-468
2901,-5906,6673,-1007,257,-1782,-1495
2902,-6527,-4548,-1719,1637,-1614,1950
2903,-7758,-6336,-3137,-1067,-279,1026
2904,5776,3786,-3269,-415,1298,-943
2905,4137,697,-466,-1771,732,-1259
2906,-6493,6703,-1,382,541,-813
2907,4739,888,-4590,-1407,467,1017
2908,-7229,7075,6961,-1430,-952,798
2909,-588,-775,-2357,878,-841,232
2910,2291,-6603,6855,1187,-1692,-776
2911,-2727,5144,-797,255,-594,2
2912,2122,4832,-403,-789,1616,27
2913,-5712,-2830,-4760,-686,1318,-1011
2914,-7547,-633,2798,-1610,670,234
2915,2303,5559,305,83,-567,-365
2916,1998,5421,-5383,-943,707,-1536
2917,-7251,4952,2062,-569,150,-603
2918,-70,-6205,-7985,-1517,-102,-634
2919,-6378,-4271,-7269,-1328,-1123,1820
2920,5358,3847,2829,-851,344,1408
2921,-7181,-6190,-2381,-702,462,33
2922,-2584,-3137,-2146,1100,926,1246
2923,-2961,-446,-3664,-726,-1118,-637
2924,-3107,-7217,1044,-718,817,1866
2925,-3111,1929,2114,1530,1449,-1431
2926,2129,-3542,5776,-1623,-1069,1826
2927,-5953,7981,-6228,1124,1354,1427
2928,532,571,6802,-386,-567,-409
2929,5038,-4546,7344,-278,-664,-1529
2930,-6619,-4207,1669,-1086,-1711,1392
2931,-5660,6437,-3473,-1468,-1855,1650
2932,2538,2822,-1061,-1975,-1564,1501
2933,7765,1515,4397,1232,-1276,-1340
2934,7806,-7911,7831,-818,1375,406
2935,-3320,3974,1735,590,225,76
2936,5792,7564,-4144,-1914,-499,940
2937,-1751,-1269,2878,-1779,-1033,-6
2938,-1067,2392,-5226,-1711,1862,-1453
2939,-1861,6991,-6825,1785,-1569,-1089
2940,1363,-5750,5369,-1963,-774,-1081
2941,6606,-2451,-6567,432,25,-38
2942,-6736,-321,-3964,1325,351,-70
2943,-820,-3370,-4657,1391,-500,849
2944,4626,1022,-3096,1359,1604,326
2945,7010,-115,-1822,424,-778,-924
2946,-2199,3367,389,-1768,-374,-984
2947,899,7914,6330,-515,1628,1373
2948,-561,2426,1032,-750,-1672,1683
2949,6631,-6023,5011,-1226,1577,-277
2950,-4121,2346,2381,-1040,414,-1653
2951,-1967,-4506,-1751,1736,-1655,-250
2952,7371,2374,-1542,-856,-1831,-1246
2953,-7850,-7749,-1883,1641,-257,453
2954,-3169,5278,-1400,661,1502,367
2955,-6589,-3094,-4401,1442,1470,1695
2956,-1108,4183,3261,-712,-1234,332
2957,3680,577,-4238,932,1191,-625
2958,-205,-3519,2816,-1049,-481,-1969
2959,-6696,-1546,1184,1525,-441,286
2960,2394,2638,2985,1375,1726,1806
2961,-2540,-1407,1360,-1897,-1388,444
2962,6086,5817,-4098,143,-1335,165
2963,-1778,6985,-6109,827,-224,-1191
2964,3931,7851,-998,-1512,-344,1729
2965,4631,3333,-1402,269,1301,-1361
2966,1493,-3512,5842,504,-1617,-717
2967,2389,-5737,-1423,435,-288,-969
2968,-5906,5227,6471,-330,1974,-1838
2969,-2038,-1332,-2037,1439,1617,1125
2970,-5197,612,3855,1577,977,1893
2971,5073,-6886,-2549,525,-1658,-1036
2972,6939,-7775,-7549,-1489,-1214,-1037
2973,6423,-3048,-3807,58,102,732
2974,-794,6786,-3896,1823,-969,1045
2975,6697,6174,-6134,-1975,-550,1338
2976,-6248,-7721,-3915,-1471,706,-1451
2977,-5339,1363,1877,-1718,1663,-82
2978,2324,-7115,6931,1392,-721,1435
2979,2993,-3438,212,-1763,804,1208
2980,1809,395,-3095,61,1168,-497
2981,-1444,-5127,-5615,475,764,-1840
2982,4333,-4922,-5502,-1011,683,1840
2983,-7106,-1596,-5899,481,713,1808
2984,-7137,93,-7336,619,404,1578
2985,5854,3506,824,-114,1314,1891
2986,-5199,4526,2727,886,-630,1368
2987,3837,-3830,4109,163,1168,-1255
2988,-2620,-2180,4566,1033,1141,-1353
2989,-1413,2605,-6101,-1123,-1398,705
2990,3592,-3813,3401,-1098,1301,164
2991,6654,3760,-1533,20,1346,546
2992,7690,3205,5519,-1654,-606,-1414
2993,-3550,-857,5749,1700,-1026,1245
2994,6000,-538,-2297,1090,-1195,-758
2995,2294,7412,-6671,130,-525,-531
2996,-4238,6000,7578,-65,1162,751
2997,-2440,-2769,-4468,325,-270,-229
2998,2670,2540,3703,-1481,-1933,-313
2999,-474,4278,-4313,1400,212,922
3000,-1094,-3286,901,-614,13,-1848
3001,-5568,6269,7396,895,787,-1655
3002,1521,5257,3368,-697,677,310
3003,-7294,-3492,-1661,1035,6,-902
3004,-835,-2942,5245,-194,1841,1850
3005,789,-2314,1687,137,1224,1785
3006,-4992,-5239,6409,-483,1370,-181
3007,-5776,6687,4869,-497,-1248,-946
3008,4144,-7521,-2647,-1867,1004,1111
3009,3182,3659,3087,-317,1822,-1363
3010,-6903,6824,5549,-175,-1487,-748
3011,7768,6087,3657,-1103,544,1806
3012,-7411,-6221,2993,-1876,1600,1431
3013,-567,-7140,-7853,-1453,448,1873
3014,-3644,7173,-1855,921,1113,-1310
3015,7345,1782,3214,-359,582,1540
3016,4341,1688,-6901,1611,1236,-1922
3017,6393,6500,-378,-1140,1661,-1613
3018,3289,-1003,484,-64,-860,600
3019,-463,-6319,5995,1087,-1905,-432
3020,-6925,6823,6144,1818,-990,683
3021,-104,-2221,6544,-1362,204,-1746
3022,3194,-3197,-5112,-759,1814,735
3023,-4370,6073,-1429,-448,36,889
3024,800,-3057,-1109,1021,238,-1844
3025,4188,-6755,4652,-654,-382,-1617
3026,-2859,-4293,-2556,391,1262,-315
3027,-2596,7808,5230,1337,-1524,-802
3028,852,3386,6530,-1990,589,1561
3029,4559,6355,-12,-1722,761,-83
3030,-4627,810,7015,-1445,481,-1104
3031,2652,2277,-2655,-1991,1912,477
3032,-4843,7109,241,-554,-1114,814
3033,592,3197,7553,253,1488,1289
3034,5651,-5636,6249,943,770,-97
3035,5608,-527,585,-469,-1362,-301
3036,2056,7415,4038,-805,516,-914
3037,4878,-7209,-4251,1445,1243,1649
3038,-1566,-7560,5403,748,1167,-1739
3039,-1601,1589,2695,479,-192,-1855
3040,-2257,5390,3296,-960,-1249,-233
3041,4358,-7174,-6312,995,-742,386
3042,-7955,-3253,-7667,-787,-1032,-705
3043,7669,2321,-6831,727,-596,-205
3044,3812,-3122,-6699,202,-168,1597
3045,7350,2794,-6388,-1640,1271,1719
3046,-1144,-5816,-748,-46,-1363,-1235
3047,-365,7363,-692,-167,342,95
3048,-3493,2096,-429,-1879,1103,490
3049,-1322,-6566,2547,1162,-419,189
3050,2024,1721,7134,-1618,1228,1518
3051,-4909,-1145,-3249,163,1303,-836
3052,1387,3998,-854,-1933,-1073,-1360
3053,-6478,-4468,2079,1976,1325,869
3054,3616,-4755,5266,1125,-1897,452
3055,-2766,7436,-6286,-1753,391,1306
3056,-5520,-647,6892,1286,1136,480
3057,7756,-2569,2108,-920,1999,-239
3058,1456,-4008,5835,-888,24,313
3059,6519,1839,2877,-278,-674,687
3060,-4088,3933,-6859,915,347,-1093
3061,-4795,715,6362,-190,-673,-250
3062,-261,7999,-4935,-409,1578,-1511
3063,-5456,5286,-7592,1295,46,-382
3064,-4828,-3217,-6494,-1543,764,1918
3065,-6690,5828,-1051,527,558,-1270
3066,-3028,-6904,-6728,-11,-1908,324
3067,-3157,4649,-1261,-1720,-1756,-1138
3068,-5656,443,-7556,-33,-1999,1248
3069,-3918,-415,-1830,546,-732,-1370
3070,-1969,4733,-5912,268,76,-468
3071,5284,-6995,-2370,460,-1651,227
3072,-348,-3598,-7323,-668,1294,-709
3073,805,-4307,2277,-1377,-362,-1787
3074,-697,-1684,-6301,1724,538,-685
3075,-5239,-1614,-4644,872,-1713,560
3076,7503,3500,-7918,1565,-1086,-739
3077,1759,2156,5066,-1813,-78,-1718
3078,-6738,-5780,3501,-1013,-359,1463
3079,3676,6511,6954,-1524,818,-787
3080,-349,-5295,-7488,1907,-576,-1702
3081,-607,-7303,-5146,-534,-1247,-1796
3082,-4706,5872,-778,1583,-1053,1743
3083,-1412,5936,4407,957,278,1836
3084,-2956,-6564,-1591,1567,-750,-658
3085,-5532,-353,-782,1379,924,836
3086,2379,4804,2994,-165,-1849,-948
3087,5696,5216,6783,-1166,604,-771
3088,-4798,3069,1650,-1798,-1242,1411
3089,3144,-5240,4781,1546,823,-1734
3090,6513,-1700,2968,1288,113,975
3091,-3329,-5585,-1763,-949,1342,1453
3092,-3630,-3492,-3333,913,-1752,662
3093,-1205,-2980,-3062,-282,726,1159
3094,-2084,2449,-3867,-428,1038,-964
3095,1843,3138,6773,1985,-1154,224
3096,-5629,4502,-433,245,-775,1222
3097,-2245,-1228,-1460,519,-1781,534
3098,-1093,-2995,-58,1716,-1830,1266
3099,3831,6277,-3601,1943,1915,1562
3100,-2706,4507,-5297,-334,1837,518
3101,-5303,-784,4939,-95,919,-1621
3102,-7418,-2612,874,-337,1053,-1867
3103,-6411,4271,3477,-779,-1976,1026
3104,-5713,3596,-4244,-1543,325,543
3105,-4963,3947,6599,-914,675,-402
3106,3792,6881,-5929,1549,-1217,-1953
3107,-5419,3767,-1557,-1594,-47,-361
3108,7249,-969,6742,1423,-1738,-1451
3109,-6098,-7360,-3944,484,938,117
3110,6573,2430,-2992,708,-292,-1766
3111,-1952,-4988,2907,-1699,131,-1631
3112,2501,5872,-6265,1739,1899,1068
3113,-3808,-2894,1756,811,281,-519
3114,5180,7223,108,-1849,1210,1368
3115,4646,1303,6470,-1400,851,-566
3116,1991,-2967,6040,-1952,119,-1661
3117,-7158,-4239,-5359,-570,1701,962
3118,477,-7190,7612,-1499,57,-1327
3119,-1885,-5332,-1648,-1970,1198,521
3120,3157,-1441,6998,-1372,-1520,-1277
3121,2940,1589,-7970,-1467,-342,-873
3122,-5640,-6112,5776,743,-912,-704
3123,-4148,431,-5016,407,-1847,-1353
3124,-4898,-2855,-5329,-125,1358,-1732
3125,5895,3695,-5559,1153,965,-78
3126,3702,5927,7484,302,-900,492
3127,4368,7101,-695,-1161,-413,1159
3128,4040,-3381,-7376,44,587,-1149
3129,2188,2905,-5955,-973,-766,-1575
3130,-3333,1388,4705,-1581,-1547,708
3131,-7283,5501,-3580,-1690,827,-609
3132,5129,2054,-1642,958,-1171,-771
3133,4384,-6652,-7441,101,-1341,-1280
3134,-1977,5211,-1498,-485,-1575,780
3135,-6411,4606,5251,798,-1156,-872
3136,-6729,-5478,-6532,-557,359,207
3137,6462,2483,-5610,420,-759,1898
3138,-170,-2972,2267,622,1566,-641
3139,-1155,-3126,-5450,-563,-1515,285
3140,1020,-6051,-1752,129,-1695,-1423
3141,-3770,2492,-3382,107,1870,-1672
3142,-1862,-748,914,-59,976,-122
3143,-714,2673,1342,1944,-1892,1283
3144,7196,-5974,-54,1571,-130,-650
3145,1969,-3445,2174,-898,-978,-1915
3146,3049,-3378,4296,6,-1069,-1462
3147,3752,5465,-4028,144,865,-1873
3148,-4584,5984,7419,-186,-912,1271
3149,-7927,-7659,4450,294,-647,-1718
3150,-5980,-2089,2250,-1154,301,27
3151,3298,1838,636,-1926,-1641,-1477
3152,-7705,-3732,-5135,-684,-48,1388
3153,-6445,2566,-728,1931,-615,655
3154,3893,-4129,-7464,1153,1173,118
3155,-4930,-1902,-4801,1406,-702,1041
3156,6915,2247,-2531,-1773,325,-250
3157,-6371,2364,7857,-1814,-226,1024
3158,-941,-4868,-1822,1334,-668,-1760
3159,2840,1008,4466,-966,-953,-1455
3160,5687,7433,-581,-1969,1963,757
3161,6500,-7412,-968,1679,-1363,1593
3162,4434,4512,6771,-377,-1864,-1660
3163,-1600,-1495,7842,-318,-706,695
3164,-1087,-27,3428,953,1605,-585
3165,-2622,-4700,-1675,1452,1304,1111
3166,7092,4040,-2167,1445,-853,-675
3167,2623,-3708,7357,-1457,-253,-1449
3168,-265,-5825,-4306,-90,-1585,224
3169,2254,6196,1284,-1511,-1284,1955
3170,3658,5902,-6423,1348,1975,1970
3171,-2024,-4922,-3777,1844,-826,485
3172,7532,3804,6552,-493,712,-1380
3173,5712,6325,223,-44,-564,249
3174,2019,3791,2101,-1899,-262,81
3175,-3080,7048,-4005,-725,-479,1730
3176,-2828,3273,1592,-1472,-1143,-125
3177,5003,1208,-4024,348,-479,579
3178,-3539,-6306,-5130,-469,-246,1177
3179,-6181,6116,-2512,-814,-881,-1259
3180,7589,-4228,-2953,-326,-950,268
3181,4820,-3709,2023,-1609,1922,-1419
3182,-6760,4145,-6191,153,-1294,-1125
3183,207,-3483,-5491,489,383,-1765
3184,-3630,7513,2112,6,372,1107
3185,-1055,-4459,-5119,210,1374,-275
3186,-3831,2585,-3307,-1134,427,860
3187,-3103,-3736,-3658,-1967,-829,1673
3188,679,-2734,-922,-1197,-909,748
3189,-5799,-3027,-6610,-1569,-340,1700
3190,-6563,5440,3860,160,-1508,-1030
3191,634,6186,-804,-1701,1679,-1820
3192,920,75,7251,1640,146,1495
3193,-1128,5325,-6853,-1801,397,1256
3194,-474,7463,-5735,-212,-1077,828
3195,-7258,2702,-3706,-1977,-1248,-10
3196,3715,-7313,-7472,-633,-1899,1239
3197,5219,-3390,7893,-109,1046,-1699
3198,-5233,7269,2073,-1777,348,-605
3199,7899,4659,6566,1897,1049,620
3200,-4740,-742,-835,1442,-11,-1855
3201,-541,6039,-6445,1579,110,864
3202,1092,-4390,7275,-701,-1118,1142
3203,-5766,2837,-7691,-617,994,-990
3204,7333,3831,5659,-472,-967,1228
3205,2444,-1392,-5748,171,-18,-439
3206,-884,-5154,1324,-134,-116,191
3207,3312,-6881,6031,-443,-685,1860
3208,1929,-4733,-1261,-107,-564,-1716
3209,1580,-6792,-7039,-907,-1472,1160
3210,-4686,341,-1484,-1046,1749,-1539
3211,-1558,442,-7723,440,-1421,-218
3212,-5991,-2878,1869,-260,1274,1066
3213,1841,-235,2328,1360,462,-1988
3214,4597,3425,6764,1046,488,1793
3215,6636,3074,6268,923,88,1336
3216,-1292,-3897,4849,128,-6,-99
3217,-1076,-4852,-3954,-823,-1375,-752
3218,5588,-3248,4464,1806,680,62
3219,-4518,-2560,5761,-1919,1474,-1579
3220,297,-6575,-4148,603,328,1596
3221,-6032,4289,-7098,-254,-909,-1619
3222,7188,-2258,-1550,-1904,-536,-1757
3223,-4288,6422,-1294,-908,835,-26
3224,4849,-4978,6268,397,-868,-656
3225,2673,314,1625,-1471,-142,1447
3226,2406,1115,1708,526,1703,-1242
3227,594,221,6469,-22,-563,1133
3228,-6771,3734,926,-656,-1697,261
3229,-5505,1476,-4909,1862,-1511,-1051
3230,-453,-6960,-842,378,1393,329
3231,4059,3042,-3843,-1536,645,-928
3232,7196,3261,2716,1777,-1601,-360
3233,-3863,1715,6091,970,268,237
3234,2770,4195,4054,-1194,48,495
3235,6031,-387,5287,1747,-798,-873
3236,6108,4571,-2497,705,-1743,1478
3237,-3681,1697,6215,-280,305,1217
3238,7725,-2555,4078,862,-1955,1302
3239,6030,1432,3397,549,236,1054
3240,3602,5795,1389,372,580,-1367
3241,7989,1895,-5715,1003,440,-3
3242,-220,4705,342,-311,1276,-1087
3243,3541,-669,-6881,1130,-787,1269
3244,-3145,4282,5298,1050,-1402,-1903
3245,5576,3314,1722,-652,1878,-317
3246,-7913,-2456,-2779,404,108,671
3247,7499,1253,-1481,-1652,448,-1000
3248,5419,-6630,5007,641,956,1054
3249,6170,6317,-5479,1935,1446,714
3250,2775,-2834,-767,-1145,241,-55
3251,2652,7475,-7854,-1363,-101,-1153
3252,-1127,-6613,478,147,-1209,-1752
3253,3453,2024,-4386,807,-1152,-1873
3254,3069,-2722,509,200,1757,1480
3255,1119,-3709,-4364,985,319,1011
3256,780,6372,3383,-1675,-957,508
3257,-5898,-30,-7353,1383,1218,-1956
3258,-1315,-6697,2599,868,1130,-1238
3259,7147,1951,-940,-213,450,613
3260,-3354,6241,-4211,-1931,1256,-1995
3261,-3380,-1476,631,-271,-1367,-398
3262,-7425,3886,-4056,-1330,-912,1868
3263,1244,-4393,-3428,-1265,858,-531
3264,-5041,-1484,-4057,740,1577,-294
3265,-826,387,4886,981,1296,-1497
3266,6613,372,-1585,-702,-570,1218
3267,-7395,-5647,3316,-113,-977,435
3268,1729,-1345,3944,687,-1884,1412
3269,-4728,-6720,-2346,-1464,832,644
3270,-7613,2301,-1385,422,-236,-741
3271,4602,-3687,1381,-1632,-1349,-461
3272,-1487,-827,1720,-1713,1078,-1081
3273,-5965,-307,350,816,655,-1357
3274,-5929,-45,-5345,1833,-512,1246
3275,-2647,7195,-7649,1262,1911,615
3276,-2690,3256,338,-1903,1722,537
3277,6456,3122,-2170,-1199,1307,-614
3278,45,-1283,4661,1213,1545,-1380
3279,3307,-1573,-4106,593,1034,-795
3280,3032,7796,3746,152,1898,733
3281,261,6596,3583,-314,-1403,1829
3282,7209,-7891,2011,-103,-1173,1685
3283,-1834,-3206,960,1830,978,1157
3284,4181,2970,-2481,490,-1974,1966
3285,4555,-734,-1108,1426,162,1643
3286,-3847,3806,2634,-1975,1743,179
3287,-4256,-1357,5361,1841,-503,751
3288,-664,-5620,5942,187,-1813,-1998
3289,-7663,-7723,6062,-585,-1843,-1089
3290,6342,-5188,7052,853,1580,-1628
3291,-477,-5288,5401,695,1705,-112
3292,4985,-7477,-878,-362,1150,1531
3293,-7450,3312,5526,619,-11,1420
3294,-2442,-6803,-5483,-448,-696,455
3295,-1287,-7129,4886,-1395,-952,-1903
3296,-1592,-3526,-3241,-332,-29,752
3297,-1338,-7122,3981,1686,-1823,743
3298,4876,-3569,778,-1020,-178,1696
3299,3491,-6764,1751,353,959,751
3300,-588,2320,2981,-1194,953,282
3301,-2658,4646,3296,82,-438,1461
3302,7319,-2926,3886,-721,-1109,-698
3303,6488,-2508,6556,753,1535,1341
3304,3437,3052,1475,1369,-1589,-1394
3305,-5545,2208,6183,-287,-147,1371
3306,-7524,-6889,2008,845,1393,-821
3307,4605,-5613,-2828,-1989,538,411
3308,-3051,-275,-2225,980,-1549,-245
3309,1153,-4203,-5447,1881,-1407,-807
3310,-324,-1283,4714,-1436,-1137,-1852
3311,7584,4514,-5851,-586,553,889
3312,-96,4951,2847,-217,1297,-1041
3313,-3208,-2093,-6565,1986,1221,1225
3314,5703,-7319,3363,497,610,643
3315,7491,-3330,-6411,-1148,-1524,-1831
3316,-7972,6249,-6837,-553,1229,-1905
3317,-6849,2112,6767,-1161,-1755,-1594
3318,6492,7200,-2502,-1629,1665,567
3319,-1995,-6749,428,576,-1997,-605
3320,7013,158,-7514,-1481,-760,-805
3321,4409,1919,-4738,546,-1763,444
3322,-6323,-7171,2120,1990,-1700,-572
3323,2373,1790,1357,211,1241,135
3324,-6331,-2596,-7200,-595,-460,833
3325,5380,-1380,3459,-419,-1068,1455
3326,5021,-1113,-1839,474,-1341,-1648
3327,6531,7264,-5322,1271,-686,-569
3328,5330,4086,4206,367,-1277,58
3329,4823,1740,-2750,620,1092,448
3330,6853,-2614,4592,-835,-165,-1346
3331,2312,-4686,3146,1985,355,-328
3332,1984,1718,5753,1409,-491,982
3333,1827,-6647,-1711,266,-953,634
3334,7818,-5,308,26,1251,478
3335,-1397,5503,-5195,-1035,1339,-28
3336,7883,1037,3501,1796,1146,1166
3337,-2416,-6142,6665,-833,-1507,97
3338,-6323,1694,4865,1797,-591,-212
3339,-2942,-816,2548,-583,-955,-1912
3340,-5403,3158,7320,18,1786,980
3341,-5830,3149,5269,-1622,1857,-241
3342,1007,6905,1695,972,634,-384
3343,-5787,-7313,-4939,-1962,1684,1147
3344,2045,-4985,-2521,1033,-1257,1562
3345,7791,-6917,4892,-501,1139,1643
3346,-2402,-2108,3034,299,1859,-1776
3347,-7285,-248,4911,248,1752,1343
3348,-3571,-2896,3794,220,697,-1511
3349,2849,-3464,134,1696,1107,-30
3350,-5256,1461,1232,97,-1379,530
3351,1006,7620,-3173,-892,657,1098
3352,2381,-21,-3412,-1956,162,1230
3353,7811,7827,2576,-1409,406,1842
3354,184,2194,-538,-114,-148,-640
3355,5357,-713,-7961,-581,631,-233
3356,-4346,-140,4083,1419,683,-955
3357,7119,7897,-5747,1697,-1561,-570
3358,-5593,-3506,-910,-909,1070,-879
3359,-2842,-4576,6530,1637,-377,-223
3360,7741,3679,7612,-1529,-249,-1566
3361,2278,-2637,3767,-735,-831,-1874
3362,-7569,-3415,-32,-591,-376,1143
