Sample,Ax,Ay,Az,Gx,Gy,Gz
0,4310,-6196,-351,-153,-982,600
1,6389,-4874,-328,1571,-793,-683
2,291,3423,3410,327,1603,506
3,-549,471,5945,3,761,1021
4,6106,3504,-7246,1607,412,1293
5,-2836,-4089,-5018,159,-1605,1666
6,-6254,-668,707,894,-1790,819
7,-6562,-948,4569,113,-1380,-134
8,-5495,1584,5123,980,1677,-1649
9,6224,4470,3674,299,1518,-995
10,-4073,-2309,-5951,-1572,1932,1237
11,6480,-5053,-7627,-637,-549,1129
12,7552,6669,-6330,1692,1069,-367
13,4630,-2378,7075,-1420,-136,-391
14,-4537,6128,7229,1672,-699,-860
15,-4940,-5385,1813,655,-1545,-1434
16,-2602,-7141,1663,862,1917,-1660
17,3861,-7167,-790,278,1984,1648
18,-2096,-419,6129,881,1214,1645
19,-1138,4843,7117,1230,-383,396
20,125,-5948,819,850,1698,220
21,-5471,-665,-7597,249,861,1961
22,5726,-2221,-3887,1312,-1266,1491
23,-2933,4190,-6549,593,-1649,239
24,6057,-6757,7934,1398,1086,1239
25,1359,-5014,1896,942,-1651,858
26,4060,-1885,-3171,-583,775,629
27,-4066,7103,-3169,555,1557,-1041
28,-5314,6394,-3096,264,-572,-625
29,-287,-4725,7482,-1709,-1505,-1931
30,-1697,-5599,2358,316,767,869
31,2547,6225,533,1097,-348,1266
32,6234,-2756,357,-124,-579,96
33,-7276,-6242,248,733,-360,1870
34,-897,-7193,-7838,1066,-904,358
35,7785,2928,5408,-1656,1557,-337
36,6197,7581,-6553,1788,-857,980
37,3298,-3888,406,-1319,1349,-124
38,-6801,4101,1737,298,560,-813
39,-7457,637,4592,-510,-945,-452
40,-7265,2308,3858,1187,-288,-1316
41,6325,6245,-5306,-444,840,-370
42,-2463,1112,-353,-785,673,-1846
43,-4237,656,5004,-43,79,-1173
44,7251,5574,2092,-515,-1596,-350
45,-575,-3660,4789,-486,-1665,1823
46,7938,2524,1708,-1770,-1500,-230
47,-4605,7672,-6200,-380,-1683,-169
48,-3564,-5195,1545,1782,-855,1271
49,3258,-1618,-4024,-488,327,-1661
50,4778,6864,108,1259,980,1091
51,-3991,7089,6950,-621,-1233,-1067
52,3794,-1692,7102,663,1552,499
53,901,4222,-3674,-1927,-265,-1286
54,-4742,-7698,-1148,1591,-406,-263
55,1008,-922,3140,158,92,1543
56,-2845,-7697,-4493,1979,595,881
57,104,-4459,1602,681,-613,534
58,3855,-4326,4990,91,-1588,-198
59,-7123,1814,2924,-762,914,1839
60,5235,-4337,2477,43,773,1267
61,-5456,-734,-742,-1359,819,-1023
62,-1994,4785,528,-1940,-30,1726
63,5361,-6247,-4443,-16,944,1104
64,1173,822,7169,-1577,521,-304
65,-2877,2676,-3311,1723,-1120,-134
66,4143,-7858,-4620,1196,-400,-1022
67,7516,-3184,-6174,445,-163,-1838
68,7699,7923,-7449,-1787,-240,-715
69,2690,5490,1499,-1941,-1132,-1150
70,-7994,2743,-3816,721,-1255,1901
71,-2203,2079,5735,-621,304,-213
72,4436,-7671,1809,1204,-985,-738
73,1394,-4244,5156,465,1267,-701
74,1007,7419,-1042,1051,-107,1666
75,-3744,1061,4602,966,1310,-1991
76,2659,-7767,-2999,1360,1816,1232
77,-3225,7138,4460,-1913,1640,1969
78,6569,7193,-1935,1089,720,-242
79,3692,-946,-5913,1194,-1891,-773
80,6647,-5317,374,-537,506,262
81,-6780,6583,5285,355,-1685,-776
82,2745,-7233,-4308,1517,-402,888
83,-3286,6864,6,-781,-1566,-397
84,5210,-4824,1001,589,-644,727
85,7010,4690,4352,-1348,494,1088
86,-3387,9,7033,-859,-1660,-14
87,4919,-3984,-1946,-1714,675,811
88,3488,2317,-5624,504,-1400,-739
89,6513,3167,3779,270,-1078,-1367
90,-3894,-5048,5872,-1339,1174,-1624
91,-4853,-6099,-6629,-1857,-938,-501
92,7778,2330,3340,-1751,-1635,1284
93,590,-1741,-5547,-130,-1215,-1245
94,-3059,-2973,-5185,412,-758,83
95,5267,-6699,4078,1704,-1030,-1152
96,6029,-1798,7421,-413,1433,-1710
97,1283,985,2298,-46,-1302,289
98,-2283,-6534,730,1875,1195,-306
99,-2531,1623,-226,1078,885,1591
100,268,685,1102,-967,1519,-26
101,1860,-7076,2599,1681,300,-733
102,2754,-3346,4938,-782,1428,-1028
103,3428,1621,-4147,1871,-529,-795
104,-2813,-3265,1616,1251,-1015,-1054
105,2946,-5670,-7674,-659,-382,691
106,958,7607,5299,1683,1181,511
107,-2274,6653,5955,1877,-863,320
108,-566,2187,5302,504,-1567,-1719
109,3914,1191,-1938,489,-827,627
110,1243,2190,3732,-1997,-1040,565
111,1066,-4312,-1153,1812,248,-712
112,6650,5707,6413,1481,1806,-279
113,1361,6774,-2179,1838,208,-531
114,3278,-2185,6502,855,1795,1654
115,-3915,2194,3443,-1348,-1643,-1790
116,-7495,-1368,1420,-1033,-892,1227
117,2678,7985,-3015,-1392,1657,631
118,-5040,-3532,-4781,698,-776,864
119,3804,2985,-220,441,1392,1767
120,-6213,-1581,-4291,1764,-331,1856
121,399,-4316,-6986,761,1583,929
122,-4716,4097,-6925,-379,807,1036
123,-4627,6054,2584,1124,1961,248
124,3612,2200,-6888,-1705,-1122,1597
125,-2514,2213,6616,-847,-1781,-1297
126,-3970,6423,2589,-1385,-361,1504
127,7830,3153,-2492,-1995,233,-1314
128,-3792,3606,3820,-698,-213,677
129,2003,979,-2837,-1329,525,844
130,7242,-1084,-1771,1517,559,414
131,-1013,693,-823,1842,-1389,-1713
132,-615,1602,-4934,-1320,-552,37
133,7496,6490,-6204,-1650,356,-1885
134,6566,-4688,-3533,204,578,1599
135,3222,4216,2190,-626,-1478,-305
136,3247,-1745,-1255,-53,1005,-609
137,-5215,1347,6329,-1479,-41,542
138,5769,2582,-1083,1637,-1183,1437
139,-5953,6767,-4489,1692,359,-26
140,-1070,-2447,2842,771,292,-1024
141,5460,7413,-7651,1991,-1593,-421
142,-6005,2842,5022,-1319,304,953
143,-7219,1393,-5424,1262,241,-206
144,4703,-1392,-6912,34,-158,-194
145,-3605,-4593,1686,1291,1220,-493
146,212,6847,982,-951,752,-1912
147,-1034,7895,-3956,1008,567,640
148,-7489,-4407,6167,1919,-1078,-763
149,868,3055,-501,-1267,-33,-425
150,-2678,1018,-4314,1473,532,1874
151,-3920,-2000,5915,1979,-511,-800
152,7479,-7531,7760,1817,-416,1525
153,927,3551,-7554,-1150,-1715,256
154,-6596,1176,-6936,-102,1796,1102
155,4553,-2266,-4487,-95,1186,618
156,-909,6434,-6462,1447,531,-806
157,3865,-1879,-7383,-677,-361,-1930
158,842,5318,-6660,-126,-1299,-604
159,133,1533,-7956,-1647,1464,-21
160,3582,-7592,4028,-1094,-224,733
161,-7630,1547,5270,1249,-1122,307
162,4154,-5755,-7179,1162,-1762,1026
163,6215,-1648,7195,1758,229,1884
164,3628,7501,-3944,-1649,-954,-796
165,5968,-4356,162,1154,101,10
166,-4382,-1723,-531,-1249,-1484,-1185
167,1147,-184,7839,-1284,304,194
168,5561,2699,-420,-647,439,-1270
169,7667,277,4268,-660,918,1629
170,-7840,-1444,6314,-917,-1205,804
171,-3500,4911,-6181,1180,-1578,1779
172,6143,-7798,-7893,-1976,-1700,-1005
173,7396,-6498,-1345,899,486,-2
174,4956,-7652,-5208,1211,-1548,1239
175,-5690,6114,4228,744,-1274,344
176,2190,6528,-5306,1836,-1891,-39
177,2442,-3581,-3389,1405,360,1126
178,4939,6370,-3767,1561,-1385,388
179,7163,3490,4198,-1325,-1465,-1392
180,-4364,1269,4948,906,-599,395
181,-3768,-2272,7816,528,1706,311
182,3443,6703,5450,1630,-260,163
183,-6152,-7892,-3677,-136,1621,-1069
184,6215,-4196,-4134,-1837,-403,-1946
185,7144,-2903,7348,-512,-1220,1958
186,-4689,6015,-5049,1884,1702,-1948
187,3416,-3355,274,-1137,-204,-1869
188,2472,3945,-4801,1873,1750,1900
189,5167,5291,4669,-1176,-925,343
190,7221,6095,320,-1002,301,934
191,-5548,-1414,-7640,1853,1018,-1879
192,-610,-7084,2417,-981,-924,-900
193,2009,-286,-7346,1618,-1360,1607
194,5537,542,4342,568,1720,920
195,6586,3027,-4865,-1659,-725,1148
196,-3642,-141,5420,90,-1076,1191
197,-6323,-4901,2838,-1393,-254,1005
198,-7784,-2819,4670,-709,-1039,1652
199,6758,3893,140,697,1289,-1525
200,347,2486,5170,1561,1877,1610
201,-6377,-7513,-4877,-1358,-209,-1452
202,-4868,-2158,5186,-1089,242,-1857
203,2522,-3396,4175,450,-1149,1624
204,-4282,-4754,4436,-127,1561,-1952
205,-4254,-6472,-7673,-90,1765,-1199
206,-2373,1849,-1719,1064,161,1059
207,6463,2367,2739,1465,1466,1445
208,-5880,-124,-6780,-1915,-247,-1860
209,1816,3115,3817,-244,331,384
210,-3597,1217,-4780,199,1079,-1538
211,2096,3239,4737,-1638,-36,-999
212,3086,3984,-2067,-431,760,-79
213,2576,6084,6143,-703,54,296
214,4672,-6142,-1178,-1858,759,57
215,-4986,-1113,-4466,-870,1159,870
216,-582,3471,18,-1456,576,1959
217,-3158,-2685,2244,1003,-1213,-1607
218,-5433,6095,-577,1349,-518,1261
219,-7905,-1526,-35,1290,-1934,-969
220,-5133,-5411,3369,340,-573,802
221,5450,3290,2146,177,-1444,-390
222,-307,4253,-926,-1557,-1905,1237
223,-5271,-192,-3317,-1375,459,775
224,-519,-1279,-2590,-477,1528,-1150
225,-6442,7745,-4653,-1419,925,-75
226,4773,-882,-6411,-1905,1040,396
227,-2725,6293,1036,71,1648,-952
228,-7088,3861,2832,271,-114,-1464
229,7465,7514,2505,-826,-1035,1926
230,-3953,-2033,7572,737,1144,1586
231,-1561,3975,-3714,1994,-1959,1943
232,-1693,2489,-5662,-1801,-67,-78
233,2523,2260,-1698,1865,432,835
234,4809,2673,-1761,406,-189,-1308
235,-6994,-6693,2888,-114,861,-1045
236,7654,7811,21,-115,-419,-1147
237,-431,5283,1813,685,-618,-1119
238,-6280,-1379,2169,-730,1202,-568
239,7219,5413,4943,1531,-1109,-1872
240,-4918,-914,972,-1048,-1385,624
241,5415,-3845,6296,614,-143,139
242,6809,-6619,153,-1042,-1471,-1518
243,5588,1615,-1285,-690,1774,1695
244,-3002,-1251,-7480,642,-1801,-16
245,-4279,46,-7318,-1900,425,517
246,5791,1512,-5394,1278,963,-1338
247,-4967,-6452,-5132,1695,524,-973
248,6160,938,6920,50,-252,-905
249,6183,-141,1719,1176,-1665,-1030
250,4363,-2902,-1941,902,-299,-1809
251,-2860,6577,3187,-559,942,1056
252,-534,-2898,-5519,-818,-548,-1267
253,-5519,-3892,5403,852,502,-1571
254,-7609,-2152,1434,289,-1889,-815
255,-5980,-3989,1574,-1383,1687,-571
256,-5110,-7812,567,-1473,69,1159
257,-1031,7716,-7323,-1286,1966,-680
258,-1695,4015,5667,1852,-1256,-800
259,-6249,-5674,467,559,-1321,179
260,-6310,7737,5563,-1803,-1766,-1143
261,-3430,-4755,-1503,1772,39,1511
262,1347,-4467,6992,844,-145,920
263,338,3854,-416,-308,-106,-1952
264,630,4022,-2764,-701,1726,-1152
265,4385,-5172,7311,-783,1468,855
266,-2601,565,6830,1136,363,1547
267,-1255,-1982,2996,-205,-1155,-1634
268,-2099,-5300,6256,424,-1771,-504
269,-5732,-5616,-1121,-330,926,710
270,7329,-2928,-5611,-1586,206,-1086
271,-2447,4638,-1507,1799,-635,-818
272,6107,4904,-5542,1463,-206,-1253
273,1061,-6244,-7548,-1542,-1636,-1049
274,3150,5510,484,-666,-88,1361
275,1977,5346,-221,1222,-1124,1306
276,-5448,-790,-178,1841,287,1633
277,7674,-2301,1014,-57,-1563,1948
278,5297,7612,7025,929,-637,-1720
279,2844,5789,-126,-691,-1826,1082
280,-2511,-985,2885,-1798,-1041,1926
281,6908,58,-741,-425,-555,-1078
282,-6382,7768,5784,-1767,-1801,-78
283,245,-5906,825,-881,-845,1476
284,6009,4352,3881,1975,1566,1266
285,6774,6015,-5497,1145,-61,-1698
286,-2235,3265,-1519,1460,742,1222
287,7425,5348,-2012,-800,1194,407
288,951,-5287,2671,-740,-443,-834
289,3100,-7707,-5479,-626,-48,-370
290,-1694,-1046,3632,-1115,1634,1133
291,-1959,4327,-926,1349,-956,-1914
292,-6402,1915,-5350,-1232,-523,-1375
293,6443,-2840,703,-636,-1366,668
294,-6141,4405,475,-413,-186,1007
295,-7383,-6447,3664,-367,1452,-6
296,-1678,-6888,933,330,579,-395
297,7098,-4966,-4032,1536,-326,132
298,-4675,-3129,-7375,1490,1032,955
299,4914,-685,4737,1146,-945,-1527
300,7597,-5843,-4745,-1510,-528,102
301,-3987,-7921,430,2,94,191
302,-2925,-4470,-7050,867,427,355
303,2144,-47,5119,-288,936,1949
304,-5820,2977,72,1724,-1475,529
305,-4260,3171,-6296,-1075,879,244
306,1197,2965,1916,-1874,-1134,-1794
307,3216,7088,-5076,1164,1539,-684
308,1642,1519,-2443,-134,-1375,1870
309,2601,-5267,-1959,-1448,-551,-1182
310,1808,3298,-2447,1857,1731,-1947
311,2995,-6712,4202,-1930,-318,1237
312,3422,-7992,-6616,303,-274,-1415
313,-1677,4138,-6362,-1356,-751,1116
314,-2258,-3527,-3321,-1776,-843,-1369
315,-1696,-1443,886,213,1293,-441
316,4589,1572,5539,-1913,1847,1710
317,5168,1607,3174,1651,1365,-1033
318,476,5774,7554,-1146,-830,907
319,-2808,5390,-123,1156,992,-175
320,4464,-7549,-2483,895,255,674
321,-7155,-1845,268,103,-970,-1042
322,5063,-5508,-6888,353,1842,-1360
323,5341,-7936,2324,-968,-1937,1790
324,4088,4071,-5653,56,1295,1941
325,-6066,96,3301,-776,-1663,-1597
326,1221,6818,-3584,-1617,1146,1269
327,4996,2269,6046,-1868,-212,-1624
328,7119,4218,-6230,-542,370,-54
329,3604,-3236,6948,-1997,1034,-798
330,431,-6869,-2428,-1205,1213,-1432
331,-7856,-7581,3013,-659,1782,-1714
332,-214,-3894,642,-65,1781,235
333,1071,-259,6107,-1739,-57,-1187
334,-3659,-3612,649,-1490,1333,-1222
335,6902,-4233,-4953,-1273,-1256,1704
336,2568,5858,-3820,-1615,1535,1911
337,-6629,4587,-22,1780,953,-1724
338,6154,5580,-3372,1060,67,-1322
339,-5526,-2410,7921,359,669,284
340,-6596,2075,1875,-903,548,-1398
341,558,-4775,-5981,1304,-1348,-990
342,1867,-5320,-3988,-1089,-62,33
343,-7734,-5011,-1024,1633,-334,-616
344,948,-680,-6330,702,-1916,253
345,3771,74,-760,1814,-959,-1056
346,5130,-1517,-2824,1194,-28,1360
347,2874,556,-7574,-902,-1122,1797
348,3798,7357,6160,1798,-1186,-1210
349,-5339,5582,-780,-933,343,1505
350,-2830,923,7556,1241,776,324
351,-458,-4386,6083,1494,1625,-368
352,2428,1594,-5808,1027,1759,1753
353,2481,-248,-7441,-1568,-67,126
354,3617,-4318,-4893,1695,801,-1563
355,-3105,-2939,5327,62,-514,1146
356,1808,2519,4324,-18,-1884,649
357,-7543,-5690,-6999,-414,980,-876
358,-3740,-3578,-7463,-1749,26,758
359,5880,932,-2856,-1060,299,-1701
360,-925,1423,-3259,335,-840,815
361,6040,5617,3309,-1752,1422,-218
362,-3308,-1801,-4077,-986,521,539
363,1495,-3931,-1358,-1940,-1773,-1553
364,3352,-4747,-2404,-596,-242,994
365,-1217,3386,-403,509,-23,1104
366,-1013,-1443,1884,-514,1667,35
367,3083,-4245,-4127,1095,1139,-3
368,-6009,4395,-5814,57,1755,924
369,-1176,3614,-7729,-1411,-786,-849
370,2848,-4698,3367,1670,-1266,983
371,3486,598,-6363,-230,31,1465
372,6612,6850,-7525,-1010,1199,1046
373,3845,-4626,-2306,416,-410,-1089
374,-5216,1263,1802,-1316,118,606
375,-3892,1442,6642,431,1437,1381
376,2427,7687,-2077,346,-1973,-1211
377,1594,-7403,4967,-36,-340,-1396
378,-7114,3570,4068,1531,-1810,1951
379,5968,-5630,1770,-1851,327,-352
380,-6664,6616,-2714,275,1160,1727
381,457,6761,-3880,831,-45,1791
382,-4447,-2530,7254,1854,954,1234
383,-5042,5939,-1868,-1452,1569,-1365
384,4969,-1171,-6695,1194,-1707,627
385,4157,-6908,2729,1143,-1749,350
386,-7173,-3281,-88,-1922,1770,806
387,-3471,6166,-1548,-214,-248,464
388,2400,5686,2546,1878,252,-321
389,7493,1883,2291,-1412,1913,265
390,-4662,1555,422,198,-41,-678
391,-3800,7665,4724,1802,-1768,1300
392,-7503,-1279,5358,1712,-874,-807
393,1297,4732,5015,841,800,-1819
394,1044,7029,3597,1067,1437,1417
395,6562,3787,1214,700,566,910
396,3743,-6775,-5654,1568,1040,-765
397,1948,-213,-5609,1811,-1640,1873
398,3628,-2022,-4341,306,1720,1311
399,-7329,-5099,-7298,-78,777,-654
400,469,1209,6041,1020,1426,-1610
401,4611,-5901,3261,-786,1484,-666
402,-2678,-6494,-5544,-1374,1674,-1916
403,4082,2053,7346,-1401,-1316,-1054
404,-2186,-6673,-4199,1594,798,1211
405,-34,-3645,3330,1243,-469,537
406,-1805,-1272,3931,385,1512,-558
407,2815,2466,-2518,18,-586,-1371
408,1545,-2152,1260,1108,-1568,1994
409,6713,-4961,4387,1364,-1315,1993
410,4301,-6678,7347,863,-93,-1705
411,6483,797,-3918,1667,1509,465
412,-6582,-160,-6933,-1572,628,812
413,4603,-2513,4569,-1500,-189,-979
414,1248,5106,-4071,1542,453,-1936
415,6502,4251,4649,1380,1372,-773
416,7084,4597,3554,-413,-1208,-1475
417,-3055,-2374,-5760,283,-938,1726
418,-319,-6461,7427,-961,-998,69
419,-6251,3680,-5223,-1861,-232,110
420,-1189,-1212,3738,856,-1653,-152
421,6774,1968,-2241,1906,1667,-1643
422,-1012,-1709,2773,-393,-1291,1568
423,-68,4726,-4278,-907,787,380
424,3015,1926,-7054,1615,1276,1572
425,-4736,-1985,-7927,-1201,-767,995
426,6920,-1987,-2327,352,1855,-401
427,3063,7793,-1187,1698,-957,1505
428,-3021,4277,-3122,1828,1276,1190
429,4696,3930,-4714,-158,-119,467
430,-3254,-4040,-6133,734,757,1282
431,-1286,4754,-7716,1653,1377,-961
432,7867,1502,7645,1958,109,102
433,-2523,2055,7572,-518,551,-112
434,111,1047,-7080,-1299,1751,1887
435,-2499,-5144,968,911,1049,954
436,-7895,-3735,5619,-1226,-1839,-757
437,4472,7675,6653,-557,1204,-59
438,-1563,-2738,-4690,712,-1033,-848
439,-6279,451,-2650,-859,964,-446
440,1370,5779,4661,1087,48,-615
441,-6630,-6557,-4985,-1379,-1683,-886
442,3024,-5059,3071,138,-1799,-779
443,7348,-1686,-6713,-1575,1910,-1795
444,-5377,-6753,2153,-1259,-816,423
445,2526,5043,2955,-545,1931,-414
446,4877,-7515,-1136,-286,-1962,-830
447,1513,-304,4132,926,-242,1113
448,-355,5285,493,1201,1484,-1909
449,1840,4472,2667,239,1197,-479
450,5105,-7624,3276,-435,-1907,1649
451,5309,1505,416,1675,-406,-1583
452,-334,6901,7106,-1975,-1231,1675
453,4,-4983,4204,1665,357,332
454,4174,-5109,5119,-1212,226,-1334
455,-6873,745,1762,-1523,-1168,-1023
456,-4899,7853,2194,-497,-820,-1388
457,6620,-2858,6301,-1186,19,-965
458,-6733,-7840,6383,-1095,1559,-547
459,-3158,-2093,642,-482,-958,970
460,-5512,3011,-7121,-281,1923,467
461,-6298,966,-5865,1581,1947,-1775
462,3253,-7882,-180,-305,854,-1639
463,-5814,-5854,-5176,-1842,-135,-1157
464,-1617,-4333,319,-717,840,1063
465,5495,2527,2498,653,-1506,-311
466,-3379,-832,-7670,413,1998,-225
467,7234,-4951,-5035,1995,1226,-782
468,3784,3724,2112,285,293,1505
469,6836,-3659,-4429,1766,-1056,534
470,-4634,6719,-1939,-1733,10,-492
471,6029,-4543,376,-613,1063,-283
472,-7918,-5014,6510,1302,807,798
473,-2818,6712,-3980,-1082,-584,1930
474,5621,-3071,4412,1515,1509,-1369
475,2403,-503,-2381,572,1145,972
476,-3553,7328,5803,835,789,-1384
477,4479,-647,5898,947,1722,213
478,1081,1937,-4657,-719,1599,1230
479,25,-3875,-6090,893,18,415
480,-1037,-5533,-2636,-1978,-1486,-1281
481,-3628,1015,917,-1638,153,798
482,-6006,2749,491,774,29,1185
483,-7116,3076,-5884,441,-101,-209
484,-2941,3559,-5714,-1703,1316,-1059
485,-2811,-6531,5819,-540,1141,669
486,-5083,2733,4565,1649,-1047,537
487,-33,5499,-7650,341,911,777
488,-4824,7550,3859,-213,-970,-651
489,817,-7081,-7841,-13,-1007,257
490,-7268,-5938,1771,-1534,-961,-343
491,-6409,957,2968,-663,-1696,1087
492,-7587,3831,-1446,135,371,-1986
493,-3532,-5403,5222,312,1500,-1127
494,5439,-1805,342,130,-1597,-877
495,-3967,3001,-3268,1695,379,1091
496,6805,4482,-228,-1538,-1602,-1980
497,-5524,-3397,-6729,165,368,-69
498,6711,-3702,-971,363,70,186
499,-956,49,821,1257,302,571
500,-4595,4704,-7627,-1216,-54,-1935
501,4851,-418,7125,244,1278,-380
502,7952,-5270,3396,-1423,1035,113
503,5539,6603,-5711,1434,-414,-75
504,-4028,1655,4735,-1208,589,-1087
505,7340,5988,7675,1434,29,-83
506,-468,7137,-1775,-1033,-1094,1711
507,-228,6742,-7103,26,1590,-698
508,-5361,1262,1488,1845,1156,295
509,5032,943,7068,-1702,1493,-1791
510,-7608,3692,2599,956,477,1224
511,-2251,4609,3678,1600,-1910,-1632
512,-6335,-7683,-5031,188,1389,166
513,2740,-5162,-938,66,-1662,1529
514,6347,-6936,2523,538,-1960,1814
515,-3791,7473,-5162,-149,-516,-981
516,5624,4592,3402,-1116,1324,248
517,263,-5843,-4420,587,-787,-1771
518,4303,-2842,-2876,-928,-312,156
519,7133,-7893,7188,-1757,86,-1853
520,5085,-4003,-3899,-1095,837,-1566
521,3446,-7195,6649,375,1302,1785
522,-6206,4378,-7062,-1731,-1067,-662
523,5682,-5523,-2702,-133,-886,-254
524,5523,6151,-3886,-1930,-423,341
525,-7894,-6983,4808,256,-203,760
526,-7411,-2114,1874,1164,79,-1934
527,2830,-6858,-4234,-1844,-1283,315
528,7856,3425,-4077,583,-858,-1172
529,-5582,-3073,-4087,1066,183,1694
530,1735,-4463,-4422,-1512,897,1351
531,-315,-5613,2162,-637,-712,61
532,-7008,7159,-6550,425,-979,887
533,7824,-4670,1874,213,1842,-941
534,-2418,7056,3419,722,-461,1647
535,2847,-1517,-1395,5,-760,-93
536,-5611,-7645,2311,-410,1503,90
537,-3531,-3090,880,-257,-1467,-583
538,-2151,2563,7926,-926,-1963,494
539,-4599,-4458,3236,965,-1630,-268
540,3117,3395,-3214,1164,-1116,-81
541,7770,-4587,6189,1193,1524,823
542,4191,2239,-7703,-1057,42,489
543,7955,-3405,5726,-1025,-839,-1835
544,4057,-2219,5017,-1427,245,-1585
545,4096,-5405,-4723,1585,8,1540
546,-2162,6753,-605,-456,-533,1686
547,4805,7612,2927,624,-536,-1368
548,1131,7579,2892,-133,-1102,-1805
549,7712,564,-2973,434,948,1515
550,6167,6427,-2507,-518,-1857,-796
551,-7011,1924,2019,-779,-585,1263
552,503,1885,-2430,586,-776,906
553,-1822,-5883,-6519,1796,1662,1904
554,753,7164,-531,125,-1209,814
555,2638,-4409,-5051,1171,1150,-1090
556,-7568,-3244,7745,1296,-1785,-816
557,5699,1098,-4533,1196,-328,63
558,-149,-7440,-2058,753,-1141,1422
559,6538,5370,6736,-782,-1076,1065
560,7620,729,-5747,-838,-476,960
561,5695,6642,-1372,252,-1724,712
562,665,5423,1912,639,456,1138
563,-1435,7052,5837,-1097,40,-1713
564,1507,4571,2556,1500,1236,-334
565,-4898,-3026,-4016,1747,699,-378
566,7212,816,2267,-1571,-547,-1463
567,-235,-413,-4707,-239,954,1491
568,7429,6541,5479,-157,1985,-426
569,-4340,6760,1916,-745,1462,-322
570,-2437,-2615,-5777,372,1135,614
571,586,3432,7175,1432,-795,-463
572,2176,-6572,-5148,429,1318,-20
573,1431,-602,7698,-1271,1533,-1564
574,-3176,5754,-5709,1226,-1856,-1822
575,-5403,-6191,-834,394,-1048,-568
576,-7806,616,5972,1507,-970,-1735
577,3615,1706,3707,-896,465,-92
578,3974,7166,-2351,872,-959,-311
579,5698,7402,-5192,1686,392,-1790
580,1887,3838,-1824,1197,1535,1591
581,-7472,4890,874,-898,-615,116
582,3793,5526,-3760,272,-873,154
583,-4278,-5877,366,-181,1490,-1776
584,-5938,7164,-4753,-523,-223,-336
585,2880,249,-1143,-1763,222,1448
586,-2971,-6728,7170,-815,1213,238
587,-5522,4544,7968,383,833,-711
588,-3651,3319,-194,1720,-1576,-1576
589,-470,-2053,2657,-282,850,1475
590,-2348,-2217,-7749,217,-34,519
591,2232,2892,4013,1333,-532,421
592,5368,5364,-1928,1435,-701,-1906
593,-1777,3869,-3015,1655,-1052,-772
594,2779,7147,-6259,441,-1085,651
595,994,6274,3646,-1935,361,-1671
596,-3187,-5601,1279,794,-1050,11
597,4684,7354,-7104,112,-1801,-1335
598,1269,-675,3551,-1056,-1695,1285
599,-6467,-5143,5831,1345,-1813,1177
600,-4889,-7165,4939,1624,1318,962
601,5664,4188,-4253,1796,328,-1712
602,-4137,4007,5843,-483,-1344,1462
603,7984,-7639,-2146,-18,-1983,-1468
604,-1827,-3467,5927,-855,-566,110
605,-4169,-3988,1360,-1977,1590,-1109
606,2052,-6850,-7536,-824,-1123,85
607,-4465,1136,2567,1997,925,-1436
608,1656,-7575,6759,1071,690,606
609,544,-5447,-2384,0,-1818,-146
610,6239,2959,-5366,844,-673,1356
611,5131,236,6705,-1450,1125,-1835
612,-5784,4251,848,1771,366,817
613,5402,-6053,-48,-595,1566,444
614,-3045,-3452,-6267,212,-993,-759
615,-7645,3493,2685,-516,-180,-1233
616,3266,-3836,5664,-373,1617,1224
617,1373,-2283,3937,1295,1292,1682
618,1378,4579,-270,-777,-1001,-1997
619,-3956,-1546,-3132,286,-1886,-46
620,-3305,3767,1557,-192,6,1632
621,-3941,1249,-1865,-798,-1590,1852
622,-5033,-6369,1446,1452,-1882,-782
623,702,-1763,7414,-1786,-1413,-348
624,-2267,6876,-6360,1681,-223,531
625,-3874,4712,3582,-1764,-1376,-1158
626,-357,-2441,7932,-1143,-1144,-661
627,1060,4092,3753,-366,286,-1163
628,-5215,3505,-5013,-952,1372,1101
629,633,6443,-7220,1480,177,-115
630,-4533,-7841,4405,-1425,-1506,-802
631,5311,-7768,7311,749,-1956,502
632,635,3740,-560,1254,-492,1949
633,-3415,-2905,6024,-1511,-1545,732
634,6648,3391,-4732,1630,247,805
635,-678,-1523,-6580,-193,-261,-563
636,4675,910,-4883,-1403,-790,956
637,-5349,5028,2204,1691,1330,1433
638,-6958,7821,-3632,-1469,1892,-1017
639,-2881,2868,-7225,365,1060,-1707
640,5216,4429,2142,430,-1435,-1627
641,1757,6749,-7588,1050,940,-1043
642,1504,5095,5740,-1875,-992,1600
643,7464,4708,1555,402,1863,-1861
644,-404,1213,-1333,354,941,196
645,499,3304,2088,797,-407,326
646,6505,-6786,-5536,-729,544,497
647,3149,-237,7325,-1379,1374,992
648,1097,-7293,-5434,-35,-191,9
649,-734,5455,942,1753,-1865,-444
650,6461,5214,6137,-1456,-538,452
651,935,-2424,-2940,-1831,1406,-529
652,-6589,-687,1823,-5,1139,1923
653,-5272,1772,-1149,729,-1600,-700
654,2329,-905,-4037,483,1536,260
655,-2253,558,-3550,1763,-356,-814
656,1833,7340,-1800,-1455,1214,-1652
657,7467,1744,-7864,-301,-396,419
658,1818,-2180,5215,-673,-534,-1934
659,-3848,-412,7438,-491,578,-627
660,-2803,2616,1966,-599,-232,1638
661,-3666,5971,-4661,1602,-941,507
662,6785,-7640,6799,1469,-1069,1171
663,6161,4844,2854,-870,639,338
664,7064,-6638,5086,1440,1902,1402
665,2662,1769,-1508,1038,-1528,819
666,7204,-4983,-3706,-665,103,-212
667,-6534,-4310,3410,-1892,491,527
668,4276,2325,-6073,1549,1027,-1703
669,-776,-7869,62,-1952,1128,300
670,4146,7593,-2429,1407,-1714,-382
671,-7347,-5296,-5042,-572,214,-1938
672,3567,-4502,1310,1601,-585,-1331
673,103,-4157,-4133,478,1036,1231
674,-6141,-5552,214,1468,617,-771
675,1138,-7671,-7279,-1454,-1336,-1878
676,-5663,-7909,-7712,-1984,1274,-1977
677,-3519,-3197,-4042,1348,1057,810
678,-2412,-7102,5440,1010,1802,-1575
679,-5197,7367,-5574,1334,1099,1924
680,-3112,6606,5107,1421,872,1061
681,-6285,-7467,6536,-1171,-409,-1019
682,4789,-7060,6764,-915,-1306,-1276
683,2657,-2989,-7408,-1531,1888,1560
684,-1028,-6263,-1554,890,1231,-1841
685,-3893,-5901,3678,332,-546,-575
686,-6127,-3560,3449,-694,-1720,-1885
687,5393,5890,7378,824,-1858,-162
688,5996,-3231,2692,1043,-1182,-1528
689,7746,-3126,2120,-1541,-580,545
690,825,1863,-7152,1747,-956,-590
691,-3032,-5099,4145,692,1299,-735
692,3704,-7347,1433,-1405,-594,-802
693,-5278,-5335,-5788,1774,1487,1699
694,-6056,1428,-5431,600,1542,279
695,-758,3677,2029,-54,-738,1357
696,6899,1479,-5573,-317,854,978
697,-3835,-5927,5265,1245,-1411,-892
698,-5398,6329,3299,1760,1889,-1690
699,-3137,-3105,-2741,1117,501,-660
700,6619,7918,2025,-958,-755,300
701,-2012,33,7571,-939,1663,1568
702,1610,7237,7753,414,984,-722
703,3098,-3676,-1995,-40,-387,-1052
704,-7197,-7080,4320,1008,-1801,771
705,5367,4422,1786,-538,-1571,-1576
706,-4973,2719,1315,-1380,-966,180
707,-4046,7577,22,413,1707,1510
708,-1433,5029,5826,-1745,1588,1624
709,-2064,1746,-7859,-917,-1907,-1996
710,-6433,1521,-517,-63,-1792,-426
711,-6723,-5023,2221,1196,1453,-722
712,788,1080,-6386,1810,-690,-1898
713,-5012,-5105,-5242,-936,1580,-1452
714,913,-3352,-1132,-1009,-695,-1555
715,-2359,-7340,236,-874,1403,-1649
716,-3374,-7178,6127,1305,1257,-275
717,6433,-1756,-5342,-299,828,-1597
718,-7701,-734,7789,-170,-1225,1648
719,-5905,-7501,-304,-1986,1293,774
720,2239,1379,831,1788,869,-1639
721,5537,-4584,6822,-1145,-1349,-1203
722,1808,6236,6431,84,-104,1321
723,6058,6513,-6167,1473,941,1244
724,-5269,2565,5288,-183,840,-844
725,-514,-4424,1584,627,1053,-272
726,-5172,-61,-4691,-1999,462,-1817
727,4765,5160,-5021,456,1531,1795
728,-7667,6627,1141,611,2,-999
729,-849,-2808,4918,-1224,1284,1293
730,-4692,894,-18,-365,-410,-1932
731,6507,-1668,-6136,-468,883,-796
732,2373,7303,1330,1435,605,257
733,-5877,5835,5213,-1361,65,1653
734,-7045,-4528,5589,-1789,-1324,-1120
735,-7746,-2478,177,185,45,882
736,-4321,-1417,6186,730,803,243
737,-2318,2954,3196,1605,-215,757
738,4655,4269,-2029,238,699,-1828
739,4483,-700,483,-1870,1491,-288
740,-1647,2422,1509,-185,-1441,-1713
741,-1661,5904,2455,1379,-1317,-1586
742,-652,4275,-7546,-1926,-800,1559
743,-2280,-4423,5278,1748,-828,-1525
744,-7213,3786,-6344,-1283,952,1663
745,-1393,2392,-2224,434,1670,472
746,-1572,-3627,-5089,-1143,-1586,-102
747,-4225,-7459,4772,1620,-1841,-621
748,5108,3195,6349,793,1125,948
749,3342,4434,4441,-1456,1468,441
750,3743,-822,-7774,-209,1970,379
751,3337,6771,5591,-1864,1412,977
752,-3772,1705,6374,825,-610,-200
753,-2981,2769,-49,-1763,1070,-189
754,-3310,-2380,4327,-522,-1929,-1736
755,991,-7278,4852,-250,-389,595
756,3154,-4194,-6920,-1541,285,-1769
757,1748,6571,-5399,-1150,-527,-1640
758,7289,7796,6556,994,-453,-1833
759,3749,513,-235,-1731,1196,-1858
760,-5382,4037,-7000,-836,-1099,-258
761,3912,4637,3387,-1561,1192,1982
762,-3477,-5790,6727,271,633,59
763,-985,-2790,-4691,696,559,-1237
764,-4326,940,-7290,27,965,218
765,-590,-682,2702,-1171,260,-333
766,-4875,1416,-3623,-1795,313,-1954
767,-1611,4802,-3989,1147,-585,1079
768,1719,-2860,5908,1104,699,1352
769,-6019,-1393,-1638,1,1671,-99
770,2757,1552,-6249,-474,1867,794
771,4878,1990,-5104,-934,1292,-1387
772,-866,-3468,7466,1353,566,1239
773,6988,6233,-4452,-763,-1207,1118
774,-7170,3799,-1205,-1412,1096,841
775,435,2518,-4657,746,54,-532
776,-4615,1464,5259,-296,1975,-1518
777,-6620,-3484,-3210,761,-1067,1750
778,6343,-181,1625,-1290,951,-313
779,5547,7538,-957,1773,-1386,1073
780,-4926,-3468,4175,723,923,1618
781,-7974,4548,-2965,-1693,1097,917
782,-6787,-5391,814,103,1889,1675
783,3512,-4718,-1206,673,1593,1973
784,-3642,-5710,1161,1036,-351,1807
785,-1653,-1015,-4450,-643,921,-791
786,-1747,-4393,-490,538,-1328,-1091
787,-3881,-5496,4886,993,-641,-1292
788,-6177,4347,5536,1022,-1789,622
789,3460,3559,7827,-1220,527,1635
790,896,5721,-7137,-568,-1632,-787
791,-6244,1148,6484,-61,-280,-1649
792,5567,-823,-1934,1791,-667,-142
793,-4532,2101,-3873,262,-80,1369
794,919,2580,4821,-1266,-1582,-1987
795,-7712,4157,191,-1184,409,-305
796,1635,-7762,-1996,-1569,1247,928
797,5069,-2118,2182,-1640,-1662,-1588
798,-279,4223,5118,-419,1375,1467
799,-2985,6019,-2722,461,-561,1380
800,-198,3395,933,1525,-471,-1416
801,888,998,-233,1936,-61,1594
802,3319,-5084,-7819,-1645,911,-1380
803,3416,-1216,-6885,-898,-1610,-869
804,1662,-2658,-1130,-1318,-1562,152
805,-2111,5487,316,1324,-564,1693
806,3358,-20,581,-510,1524,1647
807,-2059,4140,-6280,-1473,-1098,124
808,-6389,-1106,-1884,-1104,-1352,1584
809,7945,7557,-2132,-403,-906,-1412
810,6250,-5719,-6794,1020,-1067,-1059
811,2254,529,2929,-1222,-1859,-848
812,425,7221,-3562,-1149,-1129,1314
813,-1845,-3617,6273,1713,-1787,1575
814,4510,5622,4750,325,1719,-1245
815,-2050,-4146,-5797,-1097,-1012,1142
816,1286,-6928,-1893,-1284,277,738
817,427,-258,4753,-521,1621,1880
818,2051,1513,3268,735,-1238,-1743
819,-4002,6770,5610,-632,-619,763
820,-1064,704,5654,1857,1107,1014
821,-3865,671,-5034,-1180,1300,189
822,3388,-597,6454,1800,-1469,-358
823,7901,3607,3812,502,-1138,-1205
824,450,6441,3222,-849,1137,-389
825,5016,-3503,7118,758,1404,883
826,1978,-2550,2730,-1665,-1282,995
827,7434,-7311,-6921,-177,1230,-20
828,-7980,2870,-1317,1796,-1488,1965
829,-5528,4183,1424,-1218,1392,-1320
830,-3137,3131,-7455,1554,78,-1369
831,688,7511,7072,916,1662,-1950
832,-137,7160,1154,29,-1439,-920
833,6939,4533,7936,1449,1808,1130
834,1013,6965,-5608,1483,-926,-206
835,-1398,-1278,-7806,-1901,1128,-1207
836,-454,1184,-4021,153,1082,698
837,-5428,1840,2861,39,1647,-1759
838,-6920,1394,-826,-1554,187,-1581
839,-3234,-5662,6808,-1493,-877,-1996
840,7718,-2515,1239,-1303,1914,14
841,-5440,-2173,-1899,1864,859,185
842,-1284,5551,-2831,1390,-1991,-1940
843,-6741,1640,5482,-219,1994,-222
844,-4187,-4239,7465,-1318,1307,-1759
845,-3684,-6115,205,1217,-36,-858
846,-661,-1251,3741,65,-903,21
847,2807,1303,-2811,230,1152,1819
848,-4148,2375,4106,-1643,-689,1616
849,-2537,3101,-123,393,-1953,1252
850,-3108,-7613,-1267,982,-1796,455
851,4951,5905,2017,-1638,-1287,1461
852,-837,-6964,-4012,-1243,1454,1736
853,1813,7159,-3869,1655,717,1253
854,6090,-7314,7356,866,-357,-313
855,1694,78,5724,-1490,1515,693
856,7018,2480,-5354,1780,-1262,189
857,-6350,-3034,7891,-745,-1450,-869
858,-1802,-4466,-4704,-1345,-1233,1088
859,6308,3443,-954,-367,586,-1736
860,-5991,-1977,-4405,-600,-547,23
861,-840,-819,4766,-52,-161,-51
862,-5781,-6285,-4206,-1993,220,-40
863,-5000,4884,-761,-341,-1066,392
864,3892,-1925,1539,-1411,1982,161
865,3085,2888,3923,-1171,-572,367
866,-7559,4376,7020,-1954,-17,-1469
867,3062,-6584,-3137,1743,-1923,-1351
868,5177,5316,7273,-1484,-884,-101
869,2488,-3295,6403,-21,987,-148
870,-2802,-3926,-2189,-51,1113,1831
871,2968,1227,-7190,-404,-1748,626
872,4797,5571,-3773,436,-1652,1340
873,6496,-3536,-2913,-993,564,-1369
874,6139,7054,-7107,1882,1811,427
875,-5384,2029,1764,-407,-946,-720
876,-3537,-2108,-3593,-1556,1148,-920
877,4689,-538,19,1673,-1154,-745
878,-2941,-4912,4093,-1390,1511,990
879,-6859,-3100,-215,-1352,-1437,-1990
880,3490,-5798,-5360,446,1445,1162
881,4029,-7559,5963,-451,463,573
882,-1711,877,7389,1827,-1185,412
883,3736,5749,112,-1603,-1981,263
884,-6399,-4063,33,398,689,-948
885,-351,4006,1208,245,-269,461
886,4598,2827,4557,-688,-1795,229
887,7509,-7308,-3194,-1228,366,-39
888,2773,-1293,6789,1673,1529,-526
889,-234,972,-336,1648,1925,1443
890,-5931,7724,47,637,783,-1788
891,-6197,3201,1767,-254,432,1575
892,1498,6512,5104,372,-743,1912
893,-5677,3242,-5141,976,-1260,839
894,3797,5139,-2581,-553,-574,1893
895,1143,1008,7013,1622,683,882
896,1307,4642,-7852,-1976,-995,-1323
897,5337,-5774,-347,-839,1032,381
898,3738,758,7413,-298,-1268,661
899,5807,-2746,2305,-1041,1434,631
900,-5082,7942,-2477,21,-234,1184
901,4382,-7579,-5541,-1092,1712,1737
902,-3650,-3906,3916,177,-1115,310
903,4855,-1668,-4272,1308,1511,-1596
904,2733,-5769,3310,-264,-1115,-1501
905,-730,-124,-4881,353,1869,-1727
906,674,-3186,-5133,-692,1276,81
907,-5380,971,1264,1472,-1157,-1206
908,-7538,-138,-5113,-1933,499,1448
909,-7082,7095,1850,1027,623,-1845
910,1039,3269,-4832,52,1333,744
911,-1025,-3122,6176,-1678,398,230
912,7869,-6822,-5688,-1842,396,578
913,-6885,-4100,-797,-344,1782,-210
914,2583,-849,6843,1421,-168,-1634
915,2660,4805,-2778,1100,-499,-900
916,1795,-142,3819,1612,338,156
917,5128,-5319,-4739,-1135,13,995
918,-5267,-1738,3588,-1612,784,1126
919,-4578,-5474,1985,-438,-638,608
920,457,-4143,-2992,1408,1058,-1410
921,-2538,-2400,-240,-1134,1037,964
922,7465,-3562,1424,1076,1347,-203
923,-762,4387,1655,823,854,-868
924,7263,-6909,6681,-1263,916,135
925,7094,3335,-5413,-362,11,-473
926,-6505,4195,6167,1676,261,105
927,3230,5753,-4231,296,110,1543
928,-5851,-319,-6545,87,1889,1291
929,-1504,3866,-228,1744,1053,1145
930,-5797,4445,-6544,1227,1038,-1566
931,2370,7086,-4961,1490,-255,1219
932,-7614,-4404,-1476,-72,1777,-819
933,5675,2561,2412,234,-539,1762
934,3856,2955,-6514,1206,765,-1165
935,6877,-5420,-1900,1107,-938,1126
936,320,-5577,3046,1032,1686,605
937,7978,605,-7599,-664,-1695,199
938,-1056,4998,5829,1806,213,-1350
939,626,6132,2489,531,-280,-572
940,-1408,-7977,3362,890,1741,-854
941,-926,5442,-765,-648,-1324,-1337
942,-6162,-914,-7136,-1388,99,1426
943,-1010,-2750,-5465,-611,1441,12
944,2137,-301,-1401,-813,-32,-738
945,5483,-2942,6543,-1977,108,-963
946,-2991,-1783,-2701,636,-1610,1143
947,-7446,2312,-2509,-1722,-1778,-177
948,5973,4422,-4318,1427,-657,149
949,-4311,1631,3811,1354,208,496
950,-5600,-951,-6279,832,898,-849
951,1859,3633,610,-147,-1428,1039
952,-6555,-7961,-4334,1787,388,598
953,2082,3675,-1912,-1350,716,-1528
954,5605,-4912,-3950,1387,-1459,-875
955,-849,-7382,-7328,-1768,-1509,-1914
956,3509,3473,-5709,1892,-1526,1372
957,1976,-4654,-76,851,-696,-264
958,-6100,-1333,-4435,519,1467,1640
959,4510,-7588,7291,-1913,-700,-668
960,-1874,-6190,-6412,193,-1221,-953
961,-7934,594,-115,-1799,1505,-1517
962,4385,-7267,-1024,1208,743,1311
963,6261,6732,-1086,-1589,547,1453
964,4068,4959,-3365,-1271,886,981
965,3112,5504,-2077,338,1256,-260
966,-216,-3716,-7593,-1692,-82,-1893
967,-7343,-1922,2449,1827,-611,-1018
968,-2736,1299,-3130,-1764,-1699,-1715
969,5838,4476,-5432,-976,-480,1868
970,-5555,6455,6236,-1765,679,-397
971,1697,-3719,5699,1518,597,-1146
972,-2820,1949,-6920,1041,-1375,-1297
973,-6043,4804,-7047,-1982,917,-1799
974,-5243,-1721,-6975,-1361,-1776,-255
975,887,-4329,-4478,1634,1566,-7
976,275,5684,-3630,-1991,-1889,1080
977,4380,-4158,-1086,870,-31,-341
978,5849,-7262,-1359,1105,-1830,-505
979,-7389,-5832,-3023,-1157,-1165,1614
980,4152,4892,-3321,1126,1147,-31
981,-7996,-6307,-7462,1245,-928,-404
982,2601,3316,-517,1294,1178,1490
983,-4307,6792,-6213,-1430,-1615,1269
984,-3985,1942,5940,-496,-1950,1322
985,4596,-793,3825,1816,-1895,135
986,-2051,6673,-1168,-332,1356,1213
987,2947,3042,3470,-1872,949,-370
988,4417,845,3966,575,418,-1103
989,7564,-754,1633,1707,-589,-1108
990,-7565,-7904,-4238,721,67,-1445
991,724,4667,-5352,-1713,755,1084
992,-7196,3721,-2796,-1289,1286,-790
993,-3233,625,4867,-248,1976,1229
994,-7811,-3004,1125,-1265,-1077,1172
995,-3879,-4281,-3429,-1314,1589,676
996,-6365,-4215,-3866,-1163,-1854,-1360
997,-1278,6984,-6441,-852,1868,1395
998,1636,-1787,1848,-686,-701,1507
999,-2485,-7512,-3987,462,828,-597
1000,-3223,6489,2199,346,-1120,-1073
1001,-5539,884,2980,1286,-1683,-581
1002,115,-2611,6761,-273,1227,-1
1003,7841,6075,183,-1018,1976,846
1004,-801,5484,33,1004,121,1201
1005,-1603,1701,-1344,1948,177,-898
1006,-911,-2153,-6759,-1791,1949,-987
1007,3810,-4793,-2567,1228,1236,1484
1008,-3241,1054,1839,-229,-903,-32
1009,-157,7819,-1221,1828,-1738,984
1010,-3136,3532,7757,-973,1492,1207
1011,-3320,2235,-539,-418,-1110,827
1012,-3825,-6418,-4891,1204,-203,-33
1013,-259,663,-2442,-1167,449,1036
1014,1584,736,-4877,-1834,1269,-1782
1015,649,-2733,-2617,1443,1712,-541
1016,-7807,-2044,329,1241,1278,449
1017,-4051,-5494,-4936,-1831,-1273,-1283
1018,-1133,902,2667,-1996,-1083,651
1019,4572,6743,-5140,581,1117,-1533
1020,-4010,6110,1102,1480,-216,1767
1021,-5097,-5125,-1719,1016,1382,-474
1022,-7344,7318,2958,364,607,412
1023,-837,-2457,67,1858,1116,-154
1024,5695,-2480,-710,-867,774,-486
1025,3696,-4638,-4113,-365,-1945,-406
1026,-3431,-2547,-7695,1042,-1346,-559
1027,-2182,-5525,-4634,1255,-69,-1292
1028,-1429,663,730,1529,266,84
1029,-7153,603,1282,998,1907,-1652
1030,6653,353,-305,-1478,576,166
1031,-5681,-4288,921,596,-1573,1786
1032,-1366,30,2814,-1707,965,-147
1033,1405,5649,-6506,1697,1203,586
1034,-519,-3791,5893,1258,831,-1687
1035,2127,-7486,-597,-1280,1334,-350
1036,1850,-2875,-4696,892,1909,-1134
1037,2104,3779,-7942,-1902,-951,1615
1038,-5915,-3073,-5377,-230,-885,940
1039,-3370,691,-3856,1875,-113,273
1040,6810,-325,5254,1262,1444,-112
1041,4050,-4445,-817,-1709,-1946,-1286
1042,-2357,7776,-6251,1130,736,-719
1043,-3239,6204,-974,1916,1642,1136
1044,-1835,4131,-3219,692,1370,-1833
1045,-6425,7066,1789,1674,-721,884
1046,-4896,-197,-7293,801,518,-338
1047,-2104,6675,-6880,64,-1889,-1476
1048,-6017,-5686,3298,1045,-516,-98
1049,363,6903,5375,861,407,-1099
1050,-6091,-5306,7844,-907,-1943,1655
1051,6741,4099,-3292,1971,794,-1003
1052,-7518,7508,6761,-664,-1929,1641
1053,1269,4322,-3558,1397,743,-1262
1054,-3314,-4481,1601,-1044,-1443,-176
1055,-666,-5869,-7122,-1720,-47,-942
1056,3987,5010,-5275,-1603,-749,-937
1057,-6864,-2864,1347,1869,-1580,-446
1058,4297,4518,310,651,1540,319
1059,-2459,-3923,1558,486,-1284,1790
1060,-4649,601,-4489,-1853,1754,-58
1061,7322,3826,1184,-538,921,-1533
1062,1691,-962,-5940,530,-1958,1635
1063,-5356,6866,-6355,-205,-88,1368
1064,-1103,-5949,-1852,-70,-1277,111
1065,7305,6908,5146,1827,895,-731
1066,7164,-6429,-1956,-1241,-1882,-139
1067,-1514,4758,-5412,1920,754,1827
1068,2241,3848,-5606,9,-1214,-932
1069,4151,-3980,-2331,1710,254,265
1070,-4193,6688,6189,-1021,1254,1696
1071,1902,-331,-3880,-1461,-960,259
1072,3885,6621,7703,1144,1747,1095
1073,-7609,2323,4643,-171,1976,1217
1074,-2639,4827,3049,-755,-1549,1551
1075,933,2055,-7829,1737,1597,-1979
1076,-7869,2451,6915,-1154,85,1233
1077,147,5149,6850,-1900,1764,-1546
1078,-4981,4190,-1104,-922,774,1531
1079,-6523,-6273,-2138,1215,925,1533
1080,-4044,4160,6516,-1548,-1003,1723
1081,-2654,2645,-247,1916,1052,1349
1082,-4339,-5700,612,-1199,-793,1374
1083,-3230,6891,3909,-452,1636,-1862
1084,3905,-7051,-2669,-68,-1560,87
1085,-5614,-3028,-3982,1473,-1889,268
1086,-4858,-7561,-1802,-315,1735,-19
1087,3864,-2851,2893,1330,242,-991
1088,3848,5350,4232,1380,203,468
1089,2314,-3867,7509,789,-380,1878
1090,-1994,-2848,-5196,261,-166,-1358
1091,-6191,5622,5482,-1066,-1081,-677
1092,-6265,3598,3203,-847,1441,1699
1093,-6863,-2482,-1850,1695,-1996,-1903
1094,567,-4570,-7794,-1871,268,1103
1095,-4259,3813,5988,1861,829,-1431
1096,215,-4649,3231,-1628,1314,-1553
1097,4945,-5312,1303,400,1116,40
1098,-714,-3351,-4299,994,-1066,-317
1099,268,692,3446,-816,-56,-353
1100,-2019,3174,-5975,438,-123,-329
1101,3253,-2415,-1734,-235,200,1698
1102,5093,6347,-3003,1647,1175,1720
1103,-5994,-1113,-172,1319,1658,1500
1104,-6932,345,1790,-1075,-1603,-800
1105,663,-1112,-7477,-1454,791,-593
1106,7664,4917,-3401,-1365,-601,-544
1107,-660,-1369,-5299,948,-529,1414
1108,-4056,6271,-3578,996,1416,957
1109,-6849,-1893,2657,-4,-659,-418
1110,382,1212,4533,595,1937,529
1111,999,-3917,537,-404,1300,-1062
1112,2848,-6737,-1318,-168,-737,-1871
1113,-1552,6154,1684,-887,1954,-1463
1114,3933,-6687,3743,408,-1109,-888
1115,538,-1845,-4249,-7,855,439
1116,6321,-3611,6012,-1657,-1590,1465
1117,-6528,4395,378,557,103,-1554
1118,5528,2280,-5458,-441,-1760,-381
1119,3410,-1450,-5332,-860,1009,-871
1120,-1133,-1518,3734,-1746,-156,1114
1121,-753,-3802,3857,-66,-1730,-33
1122,3912,6868,-2678,1999,1812,-1928
1123,-1145,1033,-3559,-1278,-975,126
1124,-3593,-4018,2113,1032,1368,-619
1125,7197,-5219,5664,1867,-1116,184
1126,-6786,429,-7534,633,501,1806
1127,199,-2417,3292,1725,-392,-765
1128,7335,449,-7969,-109,738,104
1129,-4419,-7790,-3995,710,1373,-1426
1130,-4472,2561,7606,1545,-1705,740
1131,-7114,-1858,6327,261,575,1970
1132,4965,5031,-5919,-627,336,1801
1133,4257,2234,-38,1521,-826,651
1134,-7773,5018,-767,-1059,1068,-620
1135,-7367,7797,3303,680,1593,-1733
1136,-920,-4877,3529,551,61,-1785
1137,-2316,6565,-4977,-584,-1575,-1293
1138,-5245,1207,3655,1340,1110,1976
1139,-406,-4300,-2743,1289,-884,1104
1140,-4808,6362,6572,284,506,760
1141,-4800,1522,-5050,373,-611,-834
1142,-4972,5883,-7882,1703,1707,1877
1143,1909,2725,-1484,-1753,398,-966
1144,-3308,-2873,-6348,559,-1804,1074
1145,-6426,-6261,-3580,1890,53,1891
1146,4888,2560,-3212,-1042,-356,268
1147,4161,6402,-7382,661,-1668,-112
1148,-2096,-3138,-7228,1417,-21,929
1149,6830,-861,3759,-210,-1947,378
1150,-6187,2819,6663,-104,-387,802
1151,29,-1124,6305,571,-1996,-763
1152,3700,1811,3434,-152,-845,1524
1153,-3582,-2993,1651,-536,1476,1223
1154,-5263,-6682,-4236,1223,-1735,1448
1155,-1100,2814,-4325,-333,1945,-1387
1156,-4110,-1134,-3612,1308,973,-373
1157,2648,-5373,4929,-1117,-1362,-510
1158,-2851,4664,1455,1470,587,164
1159,-1624,-4412,-4526,-1842,-462,1691
1160,73,7748,5512,543,1873,-1420
1161,764,733,-3350,1510,664,884
1162,5099,3865,7621,170,-725,691
1163,-1838,5512,4068,-1857,1973,-821
1164,-3711,-3106,-3478,-566,-1482,-1218
1165,5314,1226,5771,-1007,-745,-1546
1166,-5274,6378,-6688,-602,1486,-112
1167,6340,-4806,-6179,639,-1635,1352
1168,3746,-3878,-2871,-343,1843,-1912
1169,-3214,593,-384,864,833,367
1170,-2847,-7574,-1595,1126,-769,1449
1171,2491,-921,7488,-1952,862,914
1172,238,-6206,7370,-945,865,1220
1173,-3061,4977,2359,-938,-834,155
1174,-691,932,4800,-402,-625,-790
1175,4946,-4403,-2168,-324,-748,-1603
1176,2683,7948,-6951,1314,-1337,-449
1177,2495,664,2113,502,26,-1880
1178,1506,1064,-6647,-1882,-870,-1836
1179,149,-5557,-1944,-1813,76,1866
1180,-2130,7801,-6713,-760,-1611,-1198
1181,-4139,-2918,6897,-178,-854,645
1182,7452,4102,1976,-995,-816,1710
1183,-2399,-6915,-6979,-1389,228,-537
1184,5942,-7321,-2394,1270,1753,-969
1185,4130,-5245,-3491,-1983,1801,-485
1186,-1114,-2354,5643,1928,1490,1796
1187,-5337,205,-7804,-295,-1587,-1663
1188,-6690,5819,269,220,-1139,220
1189,-1347,4743,-3302,1359,527,-1271
1190,5757,2586,1161,1012,1314,1237
1191,-849,3178,6867,879,849,-656
1192,223,-3494,1828,-526,935,498
1193,-3795,-2911,-271,-562,-743,-1044
1194,-4402,2364,-1373,-724,-1545,-1503
1195,465,-4592,7931,230,-206,-1891
1196,-5141,7461,-6192,-426,-622,227
1197,564,509,-6976,38,1902,1734
1198,-6896,-3593,5012,-613,-74,1433
1199,-4864,-3981,-7951,-263,-409,-835
1200,7598,-7734,1483,290,857,857
1201,5788,1751,-7195,1358,-1068,-556
1202,1326,656,7720,-789,862,-1363
1203,-7478,3194,-1389,-218,1450,902
1204,-1166,5347,-554,1478,740,1776
1205,-3587,-7897,7334,1905,-90,1245
1206,-7751,-2890,3065,443,-424,0
1207,1699,-6696,90,1726,-1821,1546
1208,2410,-5194,3965,1509,-1422,1374
1209,-5560,-1559,-2774,867,486,1381
1210,-1239,1246,-6713,1473,1567,694
1211,-1417,-3428,-7458,-1912,-272,1212
1212,1649,6580,-6116,-410,627,-80
1213,6556,5214,7030,-1282,623,926
1214,-731,796,5083,1838,-696,-1171
1215,-2904,7823,129,1542,-40,1835
1216,-6437,-4626,-3747,1135,-191,-700
1217,-7731,6240,-1502,1069,343,1551
1218,4112,-3223,-7367,-1834,-1666,-1848
1219,2276,-4864,-3851,-1481,1666,305
1220,5655,1982,-7469,-265,-1408,-145
1221,-2539,7188,758,478,187,-1036
1222,-3924,1220,-6839,611,736,1056
1223,-1941,-1728,3429,-1833,-611,-184
1224,-7302,2800,7552,1602,-770,-1983
1225,-996,-5662,5144,-1181,971,-1813
1226,-7192,2901,-3731,-730,266,-951
1227,5856,4071,5622,-1595,-873,-1049
1228,-4476,-2348,7215,1427,-1332,-956
1229,3770,15,-1400,-258,1101,192
1230,-6398,6617,-28,463,841,-818
1231,6550,-6995,2692,1841,624,-805
1232,-6935,2967,3530,-1312,-685,-1159
1233,-1869,4273,-3449,-936,-1836,417
1234,-4816,7435,-2036,1417,-395,1767
1235,3512,2841,6854,1468,1676,217
1236,4660,-3253,6924,-1773,-644,700
1237,4054,2528,5960,-1864,334,-200
1238,-1651,6497,2299,-1769,134,1921
1239,-153,6947,6492,-627,1901,-1037
1240,-1477,6948,-4412,-1593,-927,-1231
1241,3998,-7561,-500,1411,-143,196
1242,4689,4184,-7736,485,-1955,-375
1243,-2488,-1398,2023,1276,-1031,-982
1244,6162,-4415,568,-1255,-335,-938
1245,-3229,4176,-6113,-880,789,-717
1246,2277,-681,-4004,-278,442,-1720
1247,4665,-7902,-1353,875,990,-49
1248,763,-6547,-6166,-975,-746,950
1249,4953,-5151,-7779,1335,109,1987
1250,-2211,-4366,5170,-67,-738,-1410
1251,6882,-3272,-7208,-1666,-235,1391
1252,-4495,-5373,388,16,-920,550
1253,6976,6834,-6934,-1741,-1226,1546
1254,-896,-1609,-5233,-1562,1900,-1188
1255,1043,647,-3321,-297,-1212,895
1256,-5253,7350,-324,-726,62,75
1257,-6524,-7041,5093,-1567,1065,-385
1258,-3204,484,6865,407,-874,25
1259,2959,-5345,-4927,-1005,-1640,-1298
1260,-3057,-1282,-4035,-1145,-1432,1023
1261,-2689,7540,-3032,-1327,1114,1712
1262,7721,4298,5198,-106,1880,-983
1263,-5068,-4381,-4985,154,-1270,-421
1264,2160,-3321,-3445,576,-630,638
1265,7970,-6516,-4339,493,1483,-1409
1266,-2224,-1857,3491,-1520,-608,-1418
1267,4072,-4273,-210,-87,-1652,596
1268,-1325,-3766,-5645,1333,-1482,-1845
1269,-2352,3838,-28,1817,1735,1074
1270,-4518,1013,-1817,-1184,974,70
1271,6635,3827,-2824,-1717,1203,-929
1272,8,4327,-3794,299,973,976
1273,4136,7987,-643,-1000,163,571
1274,1244,3431,7620,-281,447,-1330
1275,-3604,4144,5213,875,505,-454
1276,5756,-6104,-3,720,-1672,149
1277,1588,-3369,5597,1526,-1804,518
1278,2009,-2713,4029,939,-910,-955
1279,-5329,826,-4541,-644,1399,-555
1280,4780,-152,-1364,-708,1414,490
1281,5899,7950,2709,-1032,1204,810
1282,-2012,-5274,4825,-1288,-725,-1456
1283,-3702,2583,1955,900,-1286,686
1284,-3710,-3170,-7492,-280,1352,-455
1285,7262,4592,-2896,-326,1083,1114
1286,4950,5539,-235,-512,-924,869
1287,-7448,6147,-6547,-1016,-1101,-1537
1288,-1236,5276,-3156,-382,926,-1198
1289,-7296,5642,-1016,-586,687,1424
1290,-6570,-2808,-6158,225,-1344,1683
1291,-7327,-1853,-1190,-875,-780,1205
1292,-3756,3531,4505,237,-1613,1613
1293,-4571,2602,-3234,1071,1628,-951
1294,6181,1863,3959,-1275,-1457,1069
1295,-6808,2343,-5095,-1329,616,1826
1296,1931,-6835,6797,1279,-1302,-278
1297,5021,6696,-663,-1533,-318,-320
1298,7028,-2495,4644,1126,-1311,447
1299,-2539,6977,674,853,1741,269
1300,534,-3988,-4403,-1045,-141,66
1301,-576,-4111,-5677,-1139,561,1767
1302,-3291,1846,521,-1240,1892,-1343
1303,-2713,5067,-2653,-482,1122,1750
1304,5790,-7308,-1083,-1029,851,-1053
1305,-6726,6385,4592,564,126,92
1306,887,-1064,-5137,1801,-344,38
1307,2503,-5608,5313,57,819,-1374
1308,4794,-503,1493,806,219,-1230
1309,-2193,7237,-6884,-969,1232,1105
1310,608,-4226,7413,-1361,-1688,337
1311,5714,-3790,3320,1660,-1580,-227
1312,386,6393,7989,1168,148,1944
1313,-655,-2908,2820,1019,-514,973
1314,6013,6247,-2966,1147,-899,-1782
1315,3105,-4209,3721,-175,752,-1908
1316,-1002,5094,5423,1328,-1409,406
1317,-2283,-6324,6047,-1461,1968,376
1318,7472,-2487,-1998,-1173,679,1487
1319,-95,-1808,-3810,-1522,683,523
1320,-7476,1616,-1118,790,-333,378
1321,-7747,-4506,-2370,1044,-1046,1174
1322,-35,-938,3356,1309,1863,727
1323,7281,-5126,-7238,-4,-252,-532
1324,-6794,2621,3468,-499,565,-1575
1325,3773,3534,-5604,-1166,765,1863
1326,6052,-6725,-3544,-768,-477,346
1327,-4603,606,1354,1329,-1007,331
1328,5531,674,2287,1657,1059,1859
1329,2625,-640,3890,1192,577,-1251
1330,5469,-2066,-6299,1073,-428,1468
1331,3767,5708,-1401,-1991,-19,-106
1332,-7649,1868,6973,1446,340,-891
1333,-3026,-6770,7506,-149,297,-663
1334,-134,-2165,3994,1239,1462,538
1335,5632,-4569,-4639,-128,1998,-996
1336,-3027,-6984,7889,-997,-272,-466
1337,3514,-4842,-5843,-1035,-1351,-264
1338,-2000,-1687,-2451,1404,1055,-1899
1339,-1990,2701,-4394,-1893,1165,-251
1340,-1207,-493,5091,1384,-711,-664
1341,6562,-5761,1098,-647,-1633,-1723
1342,5429,-798,-2698,-367,-461,-707
1343,4542,-5677,-2676,-181,-1382,1724
1344,-5371,-2196,1164,-1251,-968,1648
1345,-3890,4998,3671,-1678,1045,142
1346,2803,6298,-1444,-399,1863,1981
1347,6525,-3531,-646,980,-76,-405
1348,-5359,-567,1177,1050,557,1516
1349,5418,-2567,2737,-492,-187,-572
1350,4284,-7072,-3577,1524,1460,-457
1351,4132,-6608,-602,-1986,-431,-1030
1352,-3709,5281,1895,-5,-618,327
1353,7638,6017,5257,-898,-1030,-201
1354,-349,-2803,7273,-507,-563,-251
1355,-1961,-3433,-3164,-203,-1230,355
1356,-3907,-4772,6910,-1598,107,1163
1357,2223,-7019,-7867,-85,1679,-571
1358,-2471,818,-1100,-586,-1182,136
1359,-3894,5780,-7940,-658,-1579,1434
1360,1976,3169,1433,44,410,1981
1361,7460,3127,-6187,626,589,-1302
1362,-1065,-7990,221,-1467,-1080,215
1363,-7338,6269,4712,-1742,-1229,1103
1364,968,6291,3750,570,-615,302
1365,3770,-2888,1613,-607,933,56
1366,-272,4418,6230,-138,-350,-555
1367,-5449,-4900,380,-1180,1366,-979
1368,-160,-6349,-4961,741,-1290,1452
1369,-6515,3805,7699,-7,1106,-1170
1370,1325,-4174,6240,-1211,785,-1768
1371,-5431,-4255,-2777,1955,-1493,-383
1372,113,2829,-2198,853,485,663
1373,3283,-6350,-7200,1962,-685,1156
1374,-3823,-7955,-3886,-1082,143,-1669
1375,-2352,-5863,-5974,-1561,741,709
1376,4410,2356,-610,862,-1739,1987
1377,-6734,-7500,-6807,1432,-1728,-1163
1378,-1828,-354,4832,-550,240,224
1379,-4472,-2852,4900,135,658,-1704
1380,-1732,2223,2979,-1700,-839,-903
1381,-7135,-6535,-1641,-1559,-693,-807
1382,-7122,-6228,5492,-935,981,1616
1383,-3251,5272,5871,-1224,-634,1402
1384,-86,2204,1918,-1178,-417,-1741
1385,-4674,932,4629,510,1941,1264
1386,1910,4216,-4160,-1349,502,-1213
1387,5475,3297,-2086,-959,-485,108
1388,-6322,3616,-1501,424,-542,1079
1389,-5742,7776,3304,1206,1706,-69
1390,-4348,3540,-5665,-1530,-1727,1509
1391,-175,-204,-3678,-832,-245,1607
1392,-5997,4969,4870,-546,-1305,-926
1393,6473,3339,-2394,-349,848,508
1394,-13,-106,-6932,1771,-1426,-86
1395,271,-1099,-658,-572,673,-327
1396,-4125,5467,-1457,983,584,1006
1397,-1100,-1439,-4757,-1384,219,214
1398,1683,6991,4820,-43,-1813,-926
1399,7141,-5238,1334,505,-928,1650
1400,-2815,2056,4767,-1968,-1995,1352
1401,-4468,2359,292,483,-891,1022
1402,-3393,4210,-901,1147,-1875,1545
1403,1561,-7907,5579,1714,-1980,545
1404,-7951,1862,5321,-493,1145,-896
1405,-4890,4685,-5348,1651,-1116,1581
1406,855,-3095,3368,-1161,-670,-187
1407,623,5138,5978,-490,1156,-394
1408,-7822,1709,3530,820,301,63
1409,2801,2728,-7110,-1450,-356,-401
1410,6275,4952,-7400,-1638,-790,-1753
1411,6090,708,-2072,-1164,959,-606
1412,-419,6250,6810,-545,1794,186
1413,-3757,-4233,2874,226,1921,-1290
1414,-608,6730,1931,-990,-801,-387
1415,266,4186,4060,531,817,283
1416,-2826,-1750,5560,-318,-1503,1022
1417,-4806,-4874,6265,-926,1451,67
1418,-7040,4264,-464,-844,-1148,-537
1419,5911,7767,-5542,467,1493,-1419
1420,3757,7082,949,-1297,-539,225
1421,-1731,-7815,-1415,759,1162,1556
1422,2085,-4142,7714,1001,-1694,-1195
1423,724,-1922,6477,-1290,-897,1641
1424,1470,3863,-89,502,875,-513
1425,2107,-2201,6088,-256,565,150
1426,7073,7693,-5124,186,1301,-1463
1427,7627,437,-2342,-1330,-1950,300
1428,-1982,-4561,-6934,-1297,1714,1029
1429,2531,-6852,864,1297,31,-297
1430,89,331,2635,955,-845,1793
1431,7899,-2679,-5202,17,-240,-728
1432,-3725,-5424,2573,1720,269,-1547
1433,1218,2001,-876,972,730,-1227
1434,-2199,6370,6693,-1822,1112,1700
1435,-5993,-52,-7609,-218,1479,-475
1436,-2961,-2453,-6608,-773,-453,-628
1437,3567,1170,-3367,1789,109,1662
1438,-1110,-3328,888,1123,-955,272
1439,-6798,-6412,-3195,160,488,-1868
1440,7966,5408,1136,-1883,1464,-113
1441,178,-4582,5831,137,6,-1087
1442,-3919,-4633,3818,-1661,-1447,-1169
1443,7689,-4321,5233,-948,152,1736
1444,-2062,-5215,-2185,-281,-697,1444
1445,4880,-734,5492,-541,-598,1806
1446,-1579,3809,3100,1328,-565,123
1447,7494,6717,1360,729,274,-1144
1448,-6889,5559,297,766,1980,688
1449,-3867,4581,-1074,-1825,894,1578
1450,6197,-2920,-4433,-1688,-605,1888
1451,7794,1751,-75,141,1803,358
1452,530,-3812,6382,1275,-1051,-1904
1453,-7646,-1313,5606,1799,1232,-910
1454,-3676,4133,6540,1291,-1434,-1399
1455,1117,-31,7077,-517,-1113,-359
1456,541,6727,-2435,549,1188,-890
1457,2052,-3720,1039,1661,243,209
1458,-7171,717,7098,-1668,-605,966
1459,-7114,-3178,-1061,1328,867,-1399
1460,7510,-4095,-4395,-1160,-1148,-1609
1461,6352,1939,-7711,1495,1208,345
1462,-4721,3919,-4591,-510,-790,-755
1463,-475,-2626,1860,-249,-1291,-1958
1464,-7695,2144,6604,890,262,1159
1465,-1205,-649,-2913,785,-1159,-1561
1466,-2693,6418,-7964,1216,-744,1505
1467,5948,3474,3600,54,-677,1363
1468,-7104,4153,-2107,-506,907,231
1469,7870,-2687,-3586,-246,1874,1980
1470,5141,1095,-717,1480,-1042,1116
1471,-6330,4404,666,289,331,-394
1472,3473,-1975,4573,-1048,778,-1771
1473,-852,-6722,4262,-267,-13,-1348
1474,6750,-7574,7001,-1858,32,-1683
1475,712,-3960,6555,980,1521,-297
1476,-291,1362,4224,1457,1284,-1812
1477,1348,-801,832,-143,-332,-456
1478,626,3271,5037,-1424,-1487,640
1479,1935,1293,-427,1584,1632,671
1480,218,-1874,6692,897,-99,-1510
1481,-620,6530,6366,1579,-1970,482
1482,4926,-3204,7271,730,-1377,-1087
1483,1604,2125,-4940,1979,-1020,-446
1484,-6896,-1167,1160,1494,1933,-1516
1485,3203,-5370,-3317,-1346,-1025,-1627
1486,877,5610,-1814,-1045,576,1030
1487,5710,2259,3207,1586,-169,469
1488,774,-4010,-2042,-516,1199,-1932
1489,-3690,3036,-6364,458,-1504,-1325
1490,2502,-7602,-7123,-439,886,-1463
1491,-4029,-973,-4874,-1835,1665,1663
1492,4203,5332,3288,-1306,-1931,-498
1493,5538,-4395,731,731,106,-882
1494,-3544,4283,-2895,638,1507,1853
1495,-4861,3526,4006,796,-943,1716
1496,-2330,-6816,-4075,1292,885,917
1497,-4620,-3202,1653,303,1801,-970
1498,-7222,4198,1652,-225,-945,-1581
1499,-4159,-7178,4025,233,-247,942
1500,-1559,-5408,-5477,-1960,-403,-526
1501,5063,-3267,2996,521,-897,1565
1502,2600,1222,-533,-644,-982,641
1503,1716,-3872,-4780,1318,1464,644
1504,-920,7707,1144,1930,-637,1054
1505,5448,6984,-949,231,883,-1890
1506,2985,-2021,4182,-1827,-1814,1717
1507,4980,4628,-5258,-1027,812,-34
1508,3205,5577,2595,-802,-1533,-731
1509,-6495,-5367,4061,284,-1214,-500
1510,-1911,-7320,-5311,602,-566,-791
1511,-4168,-4716,6045,-845,-1616,1604
1512,-6647,-7597,-1977,45,1518,1590
1513,1944,670,-7640,-1547,-870,833
1514,7828,-6695,-5789,51,758,946
1515,-134,-1235,6830,1250,-1096,-378
1516,2240,5848,-3216,-579,638,313
1517,-5695,-1661,-7894,159,542,350
1518,2874,-532,476,-193,1628,-1492
1519,4886,4698,4273,-1241,1428,-1019
1520,7326,-1660,-696,525,1191,-625
1521,5213,3275,231,-334,-232,1585
1522,7977,-4288,-2537,-1786,1901,1833
1523,-5299,-427,-2184,-1086,825,-139
1524,-5010,2625,1045,-164,-153,-687
1525,-1410,5538,4025,-95,705,-970
1526,4125,-714,6393,-1591,1879,-1380
1527,41,-4140,6113,-1784,534,1806
1528,-1726,-2394,-1314,1790,1913,-1459
1529,-4192,4910,-6297,-1804,1284,909
1530,-1286,-2549,-2426,-1904,-1999,-1410
1531,-2674,-6769,6887,717,762,911
1532,-7801,148,-7191,1114,1960,1197
1533,4745,4691,-770,-683,1914,-29
1534,4562,-5512,-5527,1553,1980,1912
1535,7329,7341,-2765,1296,194,-1055
1536,5171,4399,-1954,-409,-371,1082
1537,450,-6876,-676,-1893,694,829
1538,-1813,-5369,3771,155,1349,1941
1539,3295,750,6018,-1032,-1534,-58
1540,-1662,7784,7454,-162,1608,-419
1541,-1275,813,2158,-1315,-1640,642
1542,-1092,3469,-4521,-549,1605,1280
1543,-1319,3063,2007,96,-1871,1061
1544,-6228,7674,6431,735,1369,375
1545,931,-6065,6224,1866,1527,350
1546,-1315,5918,5799,-329,-1884,1743
1547,4500,468,6836,-1504,835,747
1548,6158,-1722,-1324,-742,-1719,-767
1549,3929,-5800,3484,-937,1725,-165
1550,3258,-1292,5268,1413,715,-1092
1551,841,-2207,-7942,-1238,-529,578
1552,-407,-1450,7674,1649,-391,1258
1553,4124,6391,3029,-310,-1099,997
1554,969,1611,3550,-1871,-66,1474
1555,-6576,-2178,1125,-686,-848,-569
1556,-3979,-1358,740,-637,-1585,-1500
1557,-6912,6848,-67,-58,845,113
1558,4837,7409,-1098,-921,980,-1127
1559,2271,1533,-1321,1230,88,1660
1560,5930,83,5865,1978,-1356,-256
1561,725,2007,-672,573,-1091,-1935
1562,1033,3060,4140,1478,-1056,1385
1563,3408,-1701,-7177,-1635,-1233,-1524
1564,1695,-2231,323,-1184,-1407,-479
1565,6699,450,5807,1419,638,1412
1566,-6143,7148,6934,1513,217,-1164
1567,3431,-2468,5483,-1358,-1163,218
1568,-7954,2484,2446,-1136,1902,306
1569,3576,5678,-3349,-1345,-518,1070
1570,4598,-4620,6971,-1609,-533,1486
1571,-7769,-39,3771,-1990,1560,-1362
1572,-56,-687,675,290,-1031,692
1573,3666,-1654,-7523,-454,-1939,721
1574,3843,3444,-6626,758,-1794,911
1575,6816,4816,611,-1969,836,-298
1576,-6962,772,-4018,-157,-226,741
1577,6390,3916,1039,-1219,1310,66
1578,3885,6605,-3174,1050,-1766,1587
1579,1518,-1896,-6110,-543,433,-935
1580,-3710,7825,3044,1225,-822,1943
1581,-2773,-5424,5869,-1513,1763,-463
1582,-7421,3185,5648,230,1238,-1103
1583,7600,-6672,5913,1977,872,1096
1584,1232,-755,4528,-698,1519,-1557
1585,-302,-6162,-2117,-1772,-663,116
1586,-2799,-3285,2904,1515,449,-1935
1587,166,5608,-7797,1816,-929,1394
1588,4582,-6414,-1003,184,1938,-589
1589,734,-5419,4984,-1430,1607,-185
1590,2194,-4457,-6163,-1565,-535,-1400
1591,-797,-1747,-317,1880,1623,-293
1592,3313,6412,-1221,-1124,-894,-82
1593,-7675,884,-7850,-1770,746,-388
1594,623,1440,4691,-1449,-1279,1881
1595,7708,1822,3872,-1591,96,-1327
1596,-171,-1923,-5897,1263,1881,-818
1597,-7641,-3058,6124,-150,-134,-1267
1598,7407,-4721,-7934,1224,-499,429
1599,807,1938,2510,1666,-1162,-280
1600,-3002,3356,-3427,1577,-662,748
1601,-827,-916,1560,530,-783,1626
1602,6425,-99,5616,1235,443,-1143
1603,-4244,-1248,1366,-417,-306,1040
1604,-4544,1279,-6087,614,-385,1927
1605,4935,-694,6698,1559,670,-1782
1606,-4442,-2520,5292,-892,660,-1925
1607,-4024,-4358,-1723,-111,145,1844
1608,-7843,6017,-4021,-317,1784,-441
1609,423,-3987,-5557,-641,652,1059
1610,-5108,-6210,6143,1905,-753,-1357
1611,-6297,3096,1495,-6,-1090,685
1612,-3014,1940,1827,-575,105,1562
1613,2336,748,6927,-465,-39,345
1614,3819,-1653,5325,649,723,548
1615,5222,833,5681,-1334,-971,-1479
1616,3988,6871,7821,227,1764,961
1617,1816,5733,-2851,-350,1139,-1953
1618,-253,-4091,-3940,-1230,-1907,70
1619,1328,-3519,-5239,-1983,-1568,1497
1620,-6949,-3527,-4223,-436,1174,-1333
1621,5911,-2690,-6410,1883,-1575,1866
1622,4059,-1642,-2010,-546,1003,-267
1623,2606,-4238,200,872,-1272,-598
1624,7936,5790,344,860,1000,-80
1625,-6079,-6765,1316,-1871,244,736
1626,-4841,1913,674,487,1545,-243
1627,6813,1129,-2218,869,641,-1926
1628,7319,-7929,1028,636,-575,54
1629,-4626,-4696,6722,-1092,-1006,600
1630,29,-6888,-2552,944,1096,675
1631,-6599,-4950,2700,-1156,-1942,904
1632,-4200,3689,1916,278,458,834
1633,5678,3778,-3409,22,10,1809
1634,5304,-1952,-2272,-44,498,-1222
1635,-4370,5161,-2218,1793,-1596,-1661
1636,-5000,5271,6108,1355,1947,395
1637,4446,7193,7598,-117,691,662
1638,1062,-4313,-3559,-240,-457,-532
1639,5349,874,282,-1424,1259,1303
1640,1804,-1920,3309,1073,710,-1470
1641,2241,-2347,-611,1028,-421,1632
1642,3040,2505,5320,-1922,-1617,1734
1643,6202,5185,6244,1973,1949,-1365
1644,2058,-4888,3572,-1793,644,1383
1645,1103,5155,2305,819,1156,-11
1646,-2550,4485,-4254,834,-546,-1758
1647,5209,-1189,-7058,88,538,-1501
1648,-303,-3295,-7494,1101,-1258,-7
1649,2253,4123,6826,606,306,-790
1650,-4719,3773,4477,550,1872,-326
1651,-7991,-3779,2786,-505,1041,1183
1652,-2625,5115,7718,-1628,-55,-538
1653,-3210,-156,-3172,301,704,-821
1654,-3546,1958,-3488,142,-1974,898
1655,-2720,999,-589,1754,252,1901
1656,-3733,-4620,5461,-1850,-546,-1244
1657,5318,-3908,-6298,676,-546,1660
1658,6553,-7611,-7768,-1288,-328,-1014
1659,1998,6363,4719,1420,-1177,1911
1660,-6323,5378,4898,-937,1070,1946
1661,5748,-1025,6207,-28,-1460,-368
1662,-1327,411,-4062,1952,-1372,806
1663,-7805,3444,-7966,1513,-1094,-308
1664,7324,4761,5675,1652,1956,-185
1665,6934,-819,6037,-383,553,-193
1666,-3388,3315,-6183,-888,1810,1434
1667,5193,-4068,5369,-526,-1912,390
1668,-356,5234,4824,531,1493,487
1669,-3743,3809,2263,1288,1536,899
1670,6040,4879,-2419,156,-854,-531
1671,-4260,1300,-1626,-793,-1524,-1045
1672,-4422,-7342,-1701,243,444,521
1673,-6324,5880,6545,-394,1184,-554
1674,2192,-7370,1941,-948,-916,1419
1675,-2582,-5733,4159,140,-1421,-1350
1676,-7687,-4191,-5048,1143,305,695
1677,-4246,-7409,7207,952,-684,-1835
1678,5031,4560,-3800,330,1494,1107
1679,3453,3431,1443,-269,-538,-139
1680,266,5467,-2167,1657,-829,-1266
1681,-2096,-7575,1166,-619,75,-895
1682,-6981,1884,6987,1239,1834,193
1683,1301,-3795,4695,200,193,1857
1684,4813,7620,-6582,1746,-1603,-1249
1685,7417,6986,-6454,-1494,792,153
1686,-2120,1893,2495,-2000,912,742
1687,1067,-6619,6459,532,-475,-1158
1688,-1797,-4436,4943,1298,388,629
1689,-4414,-1456,1568,115,-1619,1823
1690,2391,-1832,-6299,1532,-1267,-1186
1691,-5989,4796,-6622,-1420,298,139
1692,-2635,-6786,5791,929,1411,413
1693,3693,1799,-2307,-1369,-545,-120
1694,5264,-5243,-270,1068,-441,-92
1695,-2810,4375,-6741,-974,-960,-1895
1696,5517,-4987,6236,-1874,-1125,-1302
1697,-6270,5789,93,978,-100,915
1698,-1006,1911,-5287,1811,1807,1968
1699,-3772,-2186,-378,1315,1965,-708
1700,-3134,-7565,-1398,-1299,949,-1134
1701,3087,940,7933,1849,-1803,-1068
1702,3332,-7540,4320,-1682,-948,-682
1703,-6763,207,-2716,-980,-364,383
1704,-7565,-7904,-7564,-777,1003,-557
1705,-4727,-4986,3291,-487,-1235,-1682
1706,6918,-3807,1996,-851,-1646,1522
1707,-6173,955,4474,1782,285,327
1708,-810,-41,4778,-1483,-451,1547
1709,-3816,-1384,-2135,-1147,1723,1783
1710,7399,6030,-5980,-1156,1169,926
1711,2656,-5751,3798,144,377,1073
1712,944,6177,-7048,-1367,-1235,1084
1713,92,3896,3203,-908,988,-458
1714,-1945,1596,894,-150,19,855
1715,-667,3834,-4525,1007,13,1220
1716,-231,241,329,-134,-798,1411
1717,7970,-4302,-1353,-1056,1364,737
1718,7172,5116,5194,1101,-854,-1225
1719,-7367,-6428,-4118,1103,-558,-1379
1720,2660,6993,5363,-1547,-1172,-1197
1721,46,4608,-273,-30,-1460,-14
1722,5353,-4285,5558,-614,-252,237
1723,-3685,350,6765,1421,1384,566
1724,-4616,7757,-6515,498,1302,-1657
1725,4586,-5120,-7302,-1473,-1427,1583
1726,-3733,-529,7788,1998,3,869
1727,-600,-6386,6341,-1072,832,-594
1728,388,-4809,3461,898,-382,1714
1729,-4583,3492,-1896,-595,1377,-349
1730,-6339,-7395,-7140,-1240,259,1660
1731,-7342,-7802,1648,859,1410,-1250
1732,1403,487,-3041,451,287,11
1733,5067,-2308,3780,282,240,30
1734,-855,-6119,7498,-364,1619,1456
1735,-7719,7878,3583,-1206,1400,-1733
1736,-2547,-6392,4442,1897,-190,-1998
1737,-2196,424,-7564,-245,-813,226
1738,7373,-5019,-6142,-783,449,335
1739,-6828,934,-3476,-1604,-1160,-652
1740,-6850,-5765,-7925,411,-1924,1205
1741,1230,-6951,-5475,645,-673,1376
1742,4664,-501,-2467,-951,-1139,790
1743,2018,-3466,-7131,939,-609,108
1744,-4318,-6869,-4421,-884,-1042,-607
1745,7595,-6623,-6509,-876,-1592,1572
1746,-3165,1185,-2377,1105,1656,-840
1747,-662,-2770,-5817,196,-1190,-1825
1748,5073,6143,6036,20,-15,-907
1749,2566,3061,1974,1660,-658,1406
1750,6703,5929,-7689,1717,-221,1713
1751,3231,4738,6000,1933,-633,67
1752,-5458,-2038,-4023,1718,1201,1870
1753,2546,448,7345,-378,-302,-1622
1754,5092,-899,1153,-1443,-441,-1677
1755,-2724,291,-1160,-1518,1538,1327
1756,-6173,3009,-7394,207,-233,-220
1757,5991,1098,-1500,-700,-1286,925
1758,3195,7469,-1441,1975,-129,1776
1759,5414,1649,-677,-684,-1284,670
1760,1267,-1018,-5277,585,1984,1886
1761,3958,6983,7383,497,1270,310
1762,-6333,-312,-3648,1167,-318,-211
1763,-2640,2589,-4103,-962,-1204,-1812
1764,3647,1603,713,-865,190,1090
1765,2773,-5389,1482,-657,1822,1413
1766,7425,1900,6481,-1494,-755,-271
1767,-1579,1286,-393,986,-463,-967
1768,2078,2323,6223,-603,-973,-1406
1769,-3758,-1589,2662,348,176,1431
1770,-963,-3961,-3987,-1735,-185,-729
1771,-1058,577,-5653,-1605,472,-700
1772,59,-7785,-266,-537,245,-1463
1773,-5329,5863,3929,722,885,-592
1774,-5685,7987,-6351,-157,-752,-327
1775,287,-7270,-4869,-1403,-1295,-1676
1776,-2247,-7978,-7938,1522,1735,1505
1777,-7532,1045,7805,1900,1179,-769
1778,-5714,3967,-4596,-693,-727,-1564
1779,-5729,6447,-3223,180,826,-270
1780,7236,-3693,-4821,1345,-741,-100
1781,3151,7993,5995,-673,-1307,-619
1782,5642,-1555,4497,-1456,-82,612
1783,-2568,-3863,1369,1688,-524,990
1784,-7583,6,7825,-1611,696,138
1785,-4615,-6180,-1823,-1197,1896,-1026
1786,1074,-2780,-4298,994,1660,1199
1787,-2473,5353,4683,-751,-1953,1391
1788,3751,7557,7732,-202,107,-889
1789,-78,-557,-3083,-1136,-1759,-1069
1790,-7895,1126,-4689,1645,933,1715
1791,5429,6165,-4218,-1744,-167,502
1792,-1401,-4767,-5935,33,1255,1913
1793,3701,-2573,-1248,-1127,-1057,95
1794,6130,-3741,3446,1054,824,-676
1795,3808,-7377,-88,479,822,-765
1796,7174,-3579,-6251,1084,702,227
1797,2788,6949,-7340,-1164,1150,-1157
1798,-1692,-2352,-4568,-250,-1156,-1815
1799,514,-2762,7791,1675,-591,1652
1800,-1104,4812,-3246,-538,28,1027
1801,-5374,-5425,7170,1430,-1060,584
1802,2795,1994,-4209,192,-1971,-1076
1803,7924,5391,1012,-1375,-715,-1492
1804,289,-4761,2221,1584,1892,554
1805,-3123,3667,-7253,150,33,-1777
1806,-1418,6157,1131,494,-1644,-1019
1807,5806,923,890,-747,213,-1155
1808,-3705,5417,1731,-1061,-1196,-1983
1809,-6856,-1570,5835,-217,-782,-831
1810,-2050,1541,-3108,1419,1336,1983
1811,-1161,-1869,3231,1695,1305,-525
1812,6009,5376,-6153,-451,1318,118
1813,-1998,4873,-6089,1260,-776,1009
1814,-6198,-4399,-6691,607,-726,699
1815,-102,-2515,-7570,-1771,1701,888
1816,6600,5398,-4412,544,969,-510
1817,1271,-4332,-305,-677,-1177,726
1818,7826,5295,4291,-911,1416,-1510
1819,-1959,2217,-6023,-1447,1693,1815
1820,2870,4078,90,1315,131,994
1821,-5372,1451,-3586,558,1900,1416
1822,-6096,-5259,-7890,-1630,-622,1029
1823,3270,4081,-163,-1691,1321,-1785
1824,5624,-479,-7192,752,-360,1189
1825,-3880,58,2640,-283,1694,-445
1826,2894,-6640,6431,1093,1991,-123
1827,2286,108,-5635,-35,-960,1695
1828,1585,-2745,502,-1245,-1257,1530
1829,-5041,1642,-87,-1695,246,428
1830,-4793,6574,-1604,-313,-1103,576
1831,-5544,1515,-3726,-151,1854,1532
1832,-692,-5034,-4991,-1473,758,1125
1833,-1535,303,-7059,-621,-1160,664
1834,-7784,4000,-5604,-744,290,-1904
1835,663,-6567,-4216,64,-954,-183
1836,-2884,7332,6010,317,-1801,-123
1837,550,-5731,197,-1539,-816,-779
1838,4309,-7347,968,-1416,-1171,-1685
1839,-5940,-949,-2323,-1306,-1384,1045
1840,-6255,5675,-6447,-1689,-138,902
1841,7952,-5176,-386,428,-54,53
1842,7895,-7552,-4225,-1483,-267,-1002
1843,-5193,-2134,-1174,1774,-1298,574
1844,-7477,7241,-5683,171,-639,-138
1845,3720,-2469,-7727,-1791,-352,-1240
1846,-2029,-5289,2019,-765,-226,-89
1847,-1070,472,2765,-670,1560,1840
1848,6535,-5003,4772,768,1628,952
1849,1670,-2574,-1456,950,947,-1282
1850,3856,-1533,-3501,555,-1762,-1038
1851,-3307,-688,3310,-540,1578,46
1852,-6538,4048,-2197,-1723,-1723,-1336
1853,-6663,-7645,-4628,-636,1111,1773
1854,-2692,2195,-2062,-153,-1934,903
1855,-7456,-2150,-5717,-1312,1666,1115
1856,-1657,5707,-3160,-1201,520,1802
1857,5471,231,-3341,-525,1278,941
1858,4542,-1727,-759,-990,112,-1130
1859,4869,6499,-1542,-1255,-372,-940
1860,2334,-1369,3724,1352,1297,1082
1861,-2991,-5331,-611,1553,-24,1939
1862,-6579,5900,6063,-1150,1850,1513
1863,3348,-6105,-1238,-1748,-1620,928
1864,-3744,3423,-92,-149,-36,-1273
1865,-3482,118,-7475,-464,1819,914
1866,-5284,-4622,-1199,1750,355,300
1867,2749,3410,2011,-89,-533,970
1868,6761,7622,4443,-1111,-848,1474
1869,4115,-4153,6951,-1510,-739,1075
1870,-3801,3350,4205,935,852,-1813
1871,3557,1676,-4146,-674,999,-575
1872,-2956,5458,-6833,-808,80,1400
1873,-2662,-2509,-4107,1147,-39,-882
1874,7319,-6592,4941,19,1455,-959
1875,-5293,1883,7873,652,-1085,-1254
1876,987,-1880,-6533,-777,455,-144
1877,-507,7508,6371,1584,-1035,-839
1878,3990,3562,4113,1002,753,-173
1879,-750,455,4992,1319,-305,-1781
1880,-6588,6921,1676,-538,-699,-731
1881,-7370,2801,-3224,820,-889,770
1882,5040,-693,6590,924,4,1305
1883,3920,-5892,541,-1550,1738,1300
1884,-246,-2553,-7534,-810,1250,-1457
1885,-2297,-448,4380,926,584,1922
1886,3302,5529,7888,1630,396,409
1887,6969,5073,-1814,-164,185,1115
1888,2449,-3907,-3115,414,118,-217
1889,-6872,2878,-2531,-1457,1059,-473
1890,-2983,5328,-2221,1507,-606,-741
1891,-436,-5171,-1025,1527,-396,1949
1892,-5298,-2752,561,-1431,-969,30
1893,3256,7646,-5031,-1306,-1984,-142
1894,6679,-4462,-4779,286,-971,133
1895,-2573,-7737,-1746,-1830,-1892,1716
1896,4757,-2828,4735,97,813,-1313
1897,7361,3914,-6704,549,25,528
1898,4209,5078,-4754,1265,1472,1261
1899,-1856,-6112,1676,-1800,-953,-1098
1900,7199,-4476,-7768,-1681,-1604,1787
1901,1423,-7789,-6555,1657,-1670,-889
1902,5327,-6544,-428,-1947,-711,1347
1903,-453,3134,4176,-150,31,1087
1904,2564,-462,-7433,1978,50,-445
1905,-5381,-7057,3529,1659,-528,1099
1906,-2163,-6216,-4354,118,1308,427
1907,971,-6970,-2684,379,482,1851
1908,7232,1133,-5258,1713,1494,-197
1909,-3792,-4505,3001,-409,-1242,1257
1910,6969,1739,-7254,-1598,1250,1424
1911,2265,-2037,5086,-635,-665,1210
1912,7657,1661,4570,-804,-75,-1074
1913,7643,257,1913,1335,-293,-1108
1914,-2093,-7964,7038,-192,-1755,-372
1915,321,-4099,5840,-1072,-831,447
1916,6571,4283,-2231,-1771,1526,780
1917,-5299,522,6654,218,1124,1516
1918,-7738,-6305,7681,1662,-599,1234
1919,-5399,-943,-478,1273,775,1647
1920,-7707,7946,7528,1750,1238,1317
1921,7363,4506,2856,-941,1487,139
1922,-7633,-3013,1568,-176,1867,226
1923,-7107,-222,-5966,-1613,-1912,-1660
1924,-4820,-2352,5174,-52,-1508,-1592
1925,3958,-6115,7536,509,376,-501
1926,4111,6546,-832,1602,670,1263
1927,-3468,6338,4727,-797,1463,1008
1928,-1455,-1495,1692,-769,-1489,1812
1929,2420,-727,-3320,-1820,1309,570
1930,-7569,4798,4934,-1479,-163,1321
1931,7682,-4668,-6577,-243,1068,471
1932,-6184,1799,868,772,-690,-1919
1933,6680,2913,-4593,-152,383,730
1934,-5057,7581,-5215,1352,749,-821
1935,6975,-1211,2451,1801,-1091,-887
1936,-3831,1232,-6210,1212,-1515,-791
1937,7800,7148,-4280,134,-166,1973
1938,-7163,7074,1963,1601,-1840,-1401
1939,6273,7482,241,-563,-391,1724
1940,-6767,-2208,7392,127,380,1255
1941,3812,-6352,-1650,663,636,1043
1942,6155,7307,1740,75,1725,-1951
1943,6432,-1227,582,-89,863,1091
1944,591,-2832,-5098,-1686,675,735
1945,-309,-5429,2763,1016,-971,1758
1946,7782,-47,5313,1492,-1453,-1069
1947,-6898,5470,-1691,1271,-1357,-750
1948,-7030,-3452,6095,909,-349,-1014
1949,-2601,-7978,-2860,1986,-1300,1261
1950,-6400,-6717,7324,-998,820,1506
1951,5071,1028,123,1040,-181,-1472
1952,1426,1437,-6894,367,-843,-896
1953,4569,7326,-4689,-715,-599,-1029
1954,-3346,-5316,-6533,1061,-1045,644
1955,1754,3209,-7230,1580,686,-1281
1956,2256,-4956,6943,277,627,-245
1957,-1078,6693,-2765,-271,-452,1526
1958,4030,4783,-5115,-1406,-1360,502
1959,-5766,-3367,-2644,113,-1561,-1622
1960,2001,4608,-1423,1713,432,-1702
1961,-6628,-5385,5397,1910,-201,1633
1962,-7886,-6902,937,1190,-950,1980
1963,2294,-2669,1384,-1852,1483,234
1964,-7033,-3015,-38,1251,-58,457
1965,-647,-1572,-4043,51,1062,-676
1966,-483,880,5483,-173,-757,-1358
1967,4320,6221,721,1434,1305,12
1968,-7666,7781,635,1744,-498,537
1969,-4404,6686,7812,-458,1378,1887
1970,-5918,-249,-7931,-1657,1948,1769
1971,2294,7645,5934,-1300,794,177
1972,2663,1309,5939,-1941,-1993,1824
1973,-5922,-7921,-5758,-587,-542,1853
1974,6573,6503,2509,-774,-147,150
1975,817,-7888,1945,-1967,-1662,779
1976,3515,5734,-1248,-560,1156,1611
1977,-5703,7661,-5763,1521,955,1829
1978,-6164,-4272,-4106,1996,800,-1670
1979,-5132,7617,6813,-1673,-573,778
1980,6990,-4033,-6634,1375,851,103
1981,6989,-3417,6717,-792,-375,-209
1982,-1043,-968,4224,-476,-376,1115
1983,4811,-6384,1869,-815,961,1374
1984,-447,1890,5719,-1863,1628,-280
1985,3680,736,5814,-190,948,207
1986,629,4554,4914,825,310,-1395
1987,-4940,-1741,1169,-1942,727,1372
1988,7171,4761,-3498,715,-9,897
1989,830,-2400,296,607,826,-1537
1990,-4085,7157,-526,-481,-465,1744
1991,-5530,-7763,-6143,-891,-1880,-1690
1992,-7630,-30,-1853,-714,-1635,-1684
1993,4175,-1312,6354,1253,-1167,724
1994,7049,-5375,4523,-1444,-676,1634
1995,7318,-6159,5302,325,1355,-184
1996,-1486,3913,-7607,-1436,-1955,1421
1997,1799,-3095,5614,-1347,-1890,-334
1998,3514,-5185,-6963,-1998,-578,923
1999,5639,5931,-6575,1142,-1475,-1635
2000,5231,1033,2710,82,1989,-380
2001,735,1962,-1401,1507,1388,1051
2002,-3442,-7877,5878,-1689,-1867,-474
2003,375,-7638,1437,167,-1912,661
2004,-6456,6059,753,-52,-990,1218
2005,5836,-1967,7027,-332,-1891,1720
2006,-1859,4948,-3459,-1603,1916,-65
2007,-7280,960,-495,1525,-1107,-1187
2008,1653,2199,5257,-669,-1742,1846
2009,2789,-1888,6190,1384,-1147,-1899
2010,-2836,-7107,-324,807,-1527,1352
2011,-5237,7044,-5680,-1746,383,1929
2012,-3198,4758,2007,-1370,1135,-695
2013,3455,4465,-1874,874,-1946,268
2014,-1612,-6481,605,-896,-1068,22
2015,2646,-7546,-2810,1754,-1616,291
2016,6675,-4380,-4711,1890,1074,-58
2017,-2808,3686,-1738,-541,1313,909
2018,7873,5983,-1779,-280,-1738,-681
2019,2854,4695,675,-292,589,-603
2020,-6443,-1803,2763,1548,-859,1048
2021,-1555,5428,3993,-231,-1254,610
2022,-3040,70,-6805,1620,421,-1441
2023,3399,-6009,4502,1782,121,-1802
2024,-5994,3832,-380,1848,922,622
2025,7863,7856,6852,-1803,693,172
2026,4430,853,-3851,-1000,1657,-1014
2027,-6932,-7134,7801,-1960,-883,299
2028,-2723,-2232,7561,1529,1077,1673
2029,-5043,1614,-5764,1152,1826,1574
2030,-1861,-6968,1286,1811,546,1801
2031,-6106,227,3850,713,-1102,367
2032,2501,-5195,4206,-5,-1161,-1362
2033,-1015,1830,7728,-1068,-420,1778
2034,-6634,3422,4406,359,787,-186
2035,2762,1965,5722,1162,-1356,-804
2036,891,-3041,-2167,-1519,-223,976
2037,-5380,4690,-4442,-238,-1333,442
2038,-971,6874,-5913,1566,912,642
2039,-1144,4535,-3955,-1463,1553,1194
2040,-5618,-126,-3291,973,-1520,-246
2041,-2377,-6359,5128,1421,1263,365
2042,-6339,6773,1461,-1664,936,1110
2043,-6165,477,-7915,1491,17,1353
2044,-4796,-6535,-2535,648,-582,472
2045,4113,2106,4003,-630,635,1653
2046,4664,1630,-7202,-1111,-932,816
2047,6885,-2105,-6209,1057,1701,-194
2048,6963,-6086,-3815,-1005,1302,-224
2049,4054,2777,-2029,-65,-560,-167
2050,6775,-6586,-5012,-148,-1729,677
2051,5535,-7258,-5594,819,-53,-384
2052,1225,-6907,-6394,-1576,1074,700
2053,3468,6833,-2677,1202,-1464,87
2054,-2871,5276,-1515,-1142,793,-344
2055,6067,7769,977,1095,341,-1799
2056,-5577,-5980,1006,1204,1325,-956
2057,-7414,-2219,1646,1624,1645,730
2058,2988,6921,-4265,-367,-494,-1820
2059,-562,-6479,-6231,-1750,-95,-1699
2060,4003,5582,-15,-1121,-549,-193
2061,-5920,-6030,3330,-964,-1022,141
2062,-3923,-710,-4628,-314,1869,-976
2063,-4761,3282,201,1296,-183,557
2064,6647,-4216,436,860,-1992,566
2065,7453,-7715,-1951,1696,-870,849
2066,807,-6567,-4995,857,1445,-1385
2067,-6045,399,5244,606,-1616,-1534
2068,4008,1532,-5438,143,633,-805
2069,-1225,-5513,-2237,1342,248,1791
2070,-41,5591,-7674,1651,1589,53
2071,6296,-7148,2509,-1458,1438,-563
2072,3362,-7033,4503,1270,510,34
2073,-7819,2942,-6695,-1654,-643,851
2074,-6881,5743,1673,-1971,-727,1440
2075,-6502,4011,-4738,-968,-1238,-1915
2076,-2572,4374,-1994,371,-433,546
2077,-4203,-7374,-7874,-1678,-933,1221
2078,-1443,-1228,6954,-1104,1690,-978
2079,-3441,5467,339,1502,-1068,818
2080,-3554,3941,1605,-1551,1523,-896
2081,-922,3516,-6104,-113,1332,293
2082,-576,4019,-6097,-1392,979,-669
2083,-104,-2923,4101,1189,1765,-320
2084,-5906,7508,5979,-373,75,-1132
2085,4768,-4948,1088,766,-1948,1876
2086,7713,5689,1946,288,-601,-343
2087,-6967,4528,3114,222,214,711
2088,6921,-4434,-2831,155,539,337
2089,3982,-944,5157,1260,892,1311
2090,4719,-6411,-7777,34,445,453
2091,7028,7603,-2721,-1180,812,913
2092,3977,-2134,-5986,1950,1471,-943
2093,-3277,-3525,-3362,1856,725,-912
2094,-106,1238,6970,385,555,-632
2095,1413,773,-4659,1373,-1971,-287
2096,-4834,-5082,-4476,1454,1973,587
2097,-96,-4844,-765,1222,-1745,-856
2098,-6675,132,5331,1295,463,1905
2099,5585,3107,7198,-772,-1019,235
2100,6019,5833,-5165,-143,-1390,805
2101,-4234,7246,-2058,-1176,-1436,1771
2102,4625,1406,7821,-1767,-1907,193
2103,-3146,-3499,-1662,-1950,1570,-1049
2104,3967,5515,-710,-1100,-1199,-1185
2105,-5376,-232,-3530,478,1343,366
2106,-2029,-7802,1330,1557,-76,-1509
2107,-2641,-5938,-4510,-295,105,-1740
2108,-7269,240,-1507,-1424,1727,-27
2109,-3393,-7029,-782,967,-337,13
2110,-7331,7045,-872,1669,-1631,-1087
2111,6916,-4424,7675,1065,513,265
2112,1709,-6254,3641,-908,532,-1724
2113,-6159,5711,2661,-1150,-1597,240
2114,-3033,2946,2100,946,-609,1143
2115,-7955,2256,1446,1399,1321,1098
2116,-4532,4846,5717,744,-1967,433
2117,5588,1592,-2512,437,1630,119
2118,-6434,-2135,5029,-527,-637,-254
2119,4972,-7621,-3462,24,1550,1197
2120,-3766,3784,-2705,451,-369,-1062
2121,4860,7310,-6425,-734,-1394,1993
2122,-1605,3289,-457,1627,1481,1546
2123,-1321,-1822,-4411,771,456,-1058
2124,-3732,1410,5219,1704,990,1959
2125,-6075,-4372,-1486,9,-232,-1506
2126,-2717,4812,1470,1370,1387,1026
2127,891,2265,-5609,1656,-134,-48
2128,3582,2951,-7939,1331,-316,-272
2129,3813,-6664,7962,1783,-1206,-1570
2130,999,6796,4443,-1481,885,1782
2131,-5930,7751,-5318,1771,-1262,530
2132,1438,-50,2,187,-1746,219
2133,4680,-5774,-1116,1946,1679,-1333
2134,928,987,-2153,1979,992,-1866
2135,-2811,1844,2407,832,-1694,1387
2136,-3089,-6421,-4166,-1266,-1226,-1621
2137,3248,-4709,-4942,-1388,-1258,1966
2138,-4189,6420,4868,757,1487,-1385
2139,-6386,4873,2044,1949,493,1486
2140,7650,-7921,-2319,206,-780,49
2141,4948,264,-3595,763,-659,71
2142,2449,4243,7803,1231,-357,-610
2143,-2184,-5681,-6437,86,3,-666
2144,5239,-4796,3368,-421,1585,501
2145,7031,5585,-3667,960,460,857
2146,-3424,-2786,-6647,-1333,242,861
2147,1199,-1428,4781,-988,-1919,-78
2148,-208,4602,-3633,-421,-793,634
2149,540,4172,-1876,-389,1394,-1968
2150,-677,-3188,3768,-965,355,-1164
2151,-1345,-2911,-984,1573,1059,1669
2152,6405,7073,-4284,1971,1677,-461
2153,2153,2464,-6327,-1346,981,63
2154,-1068,3877,-7594,154,-206,5
2155,3018,-4032,-2826,1777,861,-200
2156,5635,4017,-6452,-348,-712,-1316
2157,-6431,496,-1413,813,754,-104
2158,-6919,-4791,-6939,639,772,-1503
2159,-6670,-6728,735,1809,-1105,-1857
2160,3325,-834,-6784,740,-1226,-479
2161,4809,-6965,5348,-1725,-397,1012
2162,1538,-1600,-3145,-1038,-1524,-1794
2163,7501,5373,7080,643,-91,731
2164,2837,5086,7905,-1422,-1865,-1466
2165,1819,7305,7567,-1542,-696,337
2166,1338,5501,2252,1710,-448,-1638
2167,361,-2509,-3407,841,194,572
2168,-5962,1089,-3365,-744,-827,-130
2169,6806,-4245,-3542,799,-391,1142
2170,800,34,-278,27,-442,64
2171,6240,-152,7401,-107,-1927,-369
2172,-2118,7145,-7491,582,-1431,-1820
2173,-7227,-6220,6490,-1188,1908,1638
2174,-3389,-1589,-2983,-332,705,-104
2175,2208,-1872,-3,151,1377,-333
2176,-1499,3769,537,1968,-1618,-557
2177,4708,-7548,7879,-1637,-286,1167
2178,-6591,-758,1368,914,1579,362
2179,4502,2601,199,422,1085,742
2180,1492,-6043,5297,528,1286,397
2181,2120,-2940,4006,-906,-1338,-421
2182,-155,-4284,-6604,398,-611,-689
2183,2617,-2764,-3344,11,-1045,-1023
2184,5568,3044,2730,244,544,301
2185,3620,-1036,-6115,975,1273,1824
2186,-1724,6666,5659,-1113,1506,-156
2187,-626,5710,6423,1892,-112,-647
2188,-1894,4018,-4169,-1837,1926,-338
2189,7997,-3606,933,336,-1237,-456
2190,-7718,-2273,-313,-1958,-867,-564
2191,2847,4923,-4616,1417,-1460,364
2192,4130,4906,2558,829,-1385,217
2193,7713,7407,-2868,1089,-624,1960
2194,2434,-3463,-7391,139,666,1244
2195,3941,-7093,-825,-1361,-1930,-1971
2196,-2856,3573,4288,-1536,817,164
2197,1639,-1973,-4300,792,204,-1579
2198,-1137,-1014,436,822,115,-1373
2199,7619,5111,-256,447,1886,1918
2200,7244,-7265,230,1765,521,-499
2201,-688,-1775,6086,905,-39,1009
2202,1307,2351,-2036,91,648,-330
2203,4873,2767,-1241,-1716,-1668,1393
2204,-6458,1492,5531,254,854,652
2205,4359,2247,-2880,1105,867,-85
2206,4800,-3687,-1003,-944,-432,1400
2207,-626,-3533,6144,406,834,-1484
2208,2206,6457,7101,900,-881,-1591
2209,-6905,5882,592,1795,-1507,-1745
2210,-2514,5228,7132,-1554,-1856,-593
2211,1834,5021,-6197,-413,620,-1276
2212,3726,187,1604,447,-1273,541
2213,1268,-1454,1839,-1529,1046,1856
2214,-5867,4370,4978,257,-934,-1486
2215,-6344,1490,5655,-1412,-997,615
2216,-1933,-6021,-573,755,-1665,248
2217,-682,-7010,1618,-868,-1455,-1779
2218,5217,-6664,-2457,-487,844,-958
2219,7670,-7762,7016,-1925,729,743
2220,-7722,2525,3347,-1887,-1628,161
2221,-563,7396,-3378,-970,-1672,-172
2222,96,4079,38,1788,-1017,-1061
2223,4985,2114,-171,-586,-290,1729
2224,2249,-3378,-3233,-185,-886,421
2225,5168,423,5590,461,1999,-7
2226,2510,1298,2372,-310,851,-1125
2227,-106,21,-426,-1743,701,1889
2228,4656,1199,-4636,1089,878,-129
2229,-1169,3732,5946,-555,1244,-1327
2230,5998,-1742,7460,1423,181,-715
2231,4058,1547,1628,768,-643,782
2232,-5998,-6263,-3466,-318,-1008,1853
2233,-2635,7673,-6973,-1470,-1078,-571
2234,1792,4006,-513,1263,156,464
2235,5197,-289,-7671,620,1351,560
2236,1856,-3444,-2211,-1512,-1314,-371
2237,-2067,-6843,-846,1467,-1487,1401
2238,-2605,-786,3431,303,-1045,-1469
2239,6627,-2898,-6155,826,1977,-1011
2240,774,5836,-2558,-1479,227,1460
2241,-2617,-6108,2832,37,1247,1622
2242,-5252,-3174,779,-1225,1200,-116
2243,-2511,7845,2111,1824,-1649,1580
2244,4514,771,3073,223,1019,1858
2245,4509,-5381,2654,143,1496,-1749
2246,-1845,-7801,-4603,-1616,1957,369
2247,-604,-1358,1332,-1586,-1279,-1260
2248,4714,805,1578,1292,-1096,-264
2249,4716,-7482,-2353,1033,-1630,1995
2250,-4650,513,4348,80,-1466,-1493
2251,-5742,2004,3799,760,1491,474
2252,-2013,957,-4071,1377,-1246,1415
2253,5472,-3826,-1235,233,-1131,-988
2254,5344,4997,-3307,-71,607,-1149
2255,2119,5354,3736,1099,-1193,717
2256,-5281,7024,-5950,-1753,1354,-126
2257,-1719,1224,-4809,1363,-1853,1636
2258,5786,-1684,5782,-1338,1968,-1462
2259,4045,-1573,-3079,-789,261,-1439
2260,5655,-5813,-6325,-477,41,-1028
2261,-78,1850,-2973,-1013,1766,-1688
2262,5268,-447,3822,-1393,-415,1344
2263,3692,-539,-2788,-715,722,-716
2264,6478,1308,1419,-1544,1009,398
2265,-1803,6021,-934,191,-1216,1007
2266,7776,-2250,1153,330,1081,812
2267,4575,-7642,2363,43,1401,-970
2268,7191,-3042,7583,232,-682,-1885
2269,-7078,7210,-5435,-294,-119,-1960
2270,-7579,4341,7341,-919,-1407,-381
2271,-7275,-5519,7643,1553,-742,269
2272,2056,1786,-3044,1034,-402,-1496
2273,-3784,-6074,4051,1762,1099,1740
2274,-948,-2023,-5243,-1746,482,-929
2275,-2105,7498,1610,508,125,-1795
2276,-659,1613,-3327,-546,576,-1419
2277,1709,7781,-660,-692,483,-1819
2278,3672,-6211,5325,-366,-1520,-1998
2279,1187,6768,3580,-301,1422,243
2280,-3589,-6848,22,-1819,889,51
2281,-1420,6743,5035,-16,1106,1806
2282,2164,2879,-4558,980,-329,1258
2283,-5913,-2117,-3619,813,39,1906
2284,-1469,-2357,-769,1099,1126,1070
2285,3068,-3758,-7857,-1324,71,1842
2286,6235,-670,-6713,-1812,1687,-1254
2287,-316,2132,4862,1511,995,494
2288,-4613,7013,1417,-1918,132,-1680
2289,112,2568,-5337,1758,111,-1505
2290,5464,7912,-1238,-241,-311,1093
2291,4051,-1770,3668,-1467,188,-1035
2292,-2099,-348,1078,106,1951,1635
2293,6222,-7278,-2504,314,-1185,-1532
2294,2499,5607,-878,444,569,1704
2295,-5789,1038,1838,1168,665,-337
2296,-1598,-1490,-752,1499,992,850
2297,-6196,-3340,533,-1234,1639,1297
2298,-1499,4297,6667,500,887,1016
2299,3459,6799,6537,897,-1817,-1199
2300,-7467,4307,1327,1194,1424,-353
2301,7026,3096,-516,601,-694,1097
2302,-456,-1531,5011,843,-84,-1036
2303,685,2198,7448,-389,1247,-870
2304,-391,4579,-4451,-1713,896,516
2305,4187,4081,7065,-338,1518,-1677
2306,-633,7940,-6685,-107,1364,1188
2307,768,-7957,2302,496,-853,1020
2308,1542,5316,-7249,-1029,447,-554
2309,445,3028,7218,44,-924,867
2310,-4983,-7437,776,878,1332,-1117
2311,3636,4153,-2290,-49,-1668,872
2312,1853,5357,700,1474,-334,-932
2313,6454,3629,895,745,1233,-901
2314,-3816,223,-7692,-1326,-1285,50
2315,4485,-6849,-6830,1116,-859,102
2316,3800,6728,1454,1246,835,706
2317,-7351,5076,-2519,-1037,-266,-1199
2318,5298,2633,1876,-45,-40,-66
2319,-710,6938,7070,368,-3,609
2320,4408,6412,3178,804,162,1915
2321,242,806,5458,1846,-1119,-1002
2322,-6186,5712,-6798,140,-391,1798
2323,-5101,4977,-3838,-1349,58,-1059
2324,5029,-7005,-7942,-531,1677,-1495
2325,3782,-7114,-2979,585,-540,-944
2326,5940,-2527,5499,-991,-1451,-1558
2327,-2115,212,-1430,361,-1968,887
2328,3654,5405,-6900,-1615,895,550
2329,4518,6758,5095,373,872,1095
2330,5756,-4992,3776,905,1093,-1823
2331,-4596,5702,5322,1460,-1509,-330
2332,-7811,-7766,6955,-1816,990,-609
2333,-6841,-1917,-5094,1978,-251,1029
2334,5557,549,1786,1266,272,-1845
2335,-5660,-5073,-7260,1668,1690,1796
2336,7501,-3630,-734,-923,1316,-924
2337,757,-5797,5087,-1378,975,123
2338,-5555,-3380,-5392,1185,596,-802
2339,2853,3401,-1889,580,-242,-1225
2340,-2295,-7528,2177,1328,480,-672
2341,-7742,2969,-4194,-870,294,-234
2342,-717,-1984,3291,96,-1984,983
2343,6991,38,-6663,-851,-810,368
2344,7505,5097,-319,522,-528,350
2345,-5290,-4367,5820,9,-1561,-177
2346,1643,-6412,-2304,-1834,317,-1479
2347,6566,7252,7373,-1868,-515,874
2348,-4952,-3477,4025,1268,68,-494
2349,-7499,-5674,7235,-1178,434,242
2350,-7584,2329,4474,-1754,561,1204
2351,-4230,-2417,2557,1991,-109,-126
2352,4013,-7727,-1091,1618,-1258,979
2353,-2386,4673,-3225,1039,1202,-926
2354,5609,-4657,3471,-1490,725,-1933
2355,1467,5973,5332,1977,2,1181
2356,1179,-4008,3041,-1821,808,1287
2357,6227,-2831,-1552,-1076,-1769,-514
2358,839,-3881,1238,-308,315,-488
2359,2734,584,42,-1792,-1054,-1744
2360,-1205,7309,-4822,409,1181,-690
2361,3562,-543,2288,-1438,-1736,715
2362,-4084,3156,-4448,743,-784,1097
2363,4686,3169,-7686,596,1466,-548
2364,6412,572,-4450,1516,1551,1760
2365,6306,7694,-5588,58,-681,1727
2366,6044,876,4438,111,1251,822
2367,4264,651,-1315,265,-697,1646
2368,7883,-7400,2574,-134,578,50
2369,3375,1135,-1624,1187,793,1772
2370,-5838,3723,-7038,587,1730,668
2371,-6535,-668,-1427,149,736,393
2372,4849,3602,3590,-956,-1011,1176
2373,-7675,4106,134,1270,-1313,664
2374,3621,3059,2879,425,-1387,1668
2375,-1595,-72,-6202,1347,305,358
2376,-92,-5201,-423,-1635,-173,-214
2377,3851,787,4240,1385,-448,-360
2378,-6113,-365,3018,-777,1568,192
2379,5353,1927,7304,-1160,270,-1117
2380,2966,7061,1882,1616,-1072,1788
2381,3743,-2848,4690,427,1315,-983
2382,-6995,2680,765,1172,-263,-1074
2383,-7646,-6768,4628,880,-1036,1797
2384,658,-4526,2154,-1305,-424,1560
2385,-248,-4630,-5901,-1741,-1862,-746
2386,2402,-567,-3903,270,1763,-1521
2387,4275,-1662,6869,853,828,1273
2388,-1051,-6613,6263,-1964,-1300,117
2389,4233,3276,-6303,-351,777,342
2390,6153,4499,3152,1063,377,-1288
2391,-5223,-6310,-85,-555,160,842
2392,-1968,3470,-3047,1900,-490,-1815
2393,6265,-1785,2016,1760,743,598
2394,9,4004,2466,496,1128,1192
2395,508,6646,1166,1856,-945,-345
2396,538,-3156,-2316,1445,-1469,-1959
2397,5396,5650,7296,1051,-774,1225
2398,-2677,6804,-6814,1369,178,94
2399,7035,3900,3631,-467,-1040,1907
2400,5360,-7223,-4796,-405,-1939,1872
2401,-1635,6711,-966,606,867,1091
2402,7944,-1502,1306,-1254,-1659,434
2403,3773,-6553,4630,1795,-429,1577
2404,2263,5895,-89,-718,1673,-1068
2405,-1623,-2296,-5023,-1314,1842,-340
2406,-295,5596,4610,-468,-1818,-459
2407,6453,2015,2885,1324,-1734,-399
2408,3379,2357,1652,-1069,1422,-314
2409,-7578,1940,-4622,-945,1190,-1022
2410,-6203,7827,-1961,-1771,1824,-1383
2411,-5357,6382,-7645,-1667,-708,1059
2412,705,-2437,-2638,-1051,-290,135
2413,3965,4813,5312,-1444,-1563,319
2414,6303,-38,-2417,80,103,437
2415,4255,-6490,7292,229,-125,-638
2416,2673,3155,-615,-1909,1431,-221
2417,3323,-4626,-6834,525,-998,-918
2418,-1537,-7157,-1377,1566,1258,-1937
2419,-4429,2905,-7571,-471,-1430,1328
2420,3752,2541,7262,-956,-403,470
2421,-492,-3975,6804,-1169,674,-1389
2422,3381,2772,-245,76,-1242,-1596
2423,-3527,-2065,-280,-467,-1477,1636
2424,4327,7987,-3899,1295,-1117,-237
2425,-4314,917,6558,-435,425,1974
2426,982,1044,-7269,23,1448,-1255
2427,1921,4096,-1020,1103,513,-1309
2428,-6580,2645,819,139,-609,-100
2429,-87,-5089,584,-168,285,472
2430,3288,3342,3973,-490,1131,873
2431,1787,-5890,-7331,0,-153,-1988
2432,5277,2248,-1168,-682,-1503,770
2433,-4347,4782,7376,-508,1657,440
2434,728,-2252,1583,275,1406,155
2435,4991,-24,-3672,224,-50,1647
2436,1835,-1570,-1074,-1586,-715,114
2437,1612,-3814,-7158,-597,1326,196
2438,2411,-7435,-7853,303,-1508,-1086
2439,3259,7422,-553,-967,-1441,1749
2440,-5875,3400,-4645,126,-1802,1710
2441,-3920,-6015,2089,1418,847,-700
2442,2865,-409,-1255,321,-1936,460
2443,-1558,-6708,1977,378,1424,-1171
2444,-2001,7517,-5248,-1732,1513,-1175
2445,15,5194,-7487,-1931,481,878
2446,-2629,1799,-6718,-1976,1282,-758
2447,-1784,2526,-5861,-210,-571,114
2448,5577,-6135,-1979,960,1401,630
2449,-1566,-5076,-2081,62,1117,1473
2450,-1305,941,6339,-43,834,-1213
2451,216,2742,3869,637,463,1468
2452,2924,-7258,1441,-1434,-1857,1438
2453,-4619,-4858,-1193,-748,-1096,-1907
2454,3395,3212,4062,1296,-1966,841
2455,1962,-1476,7133,317,51,-1647
2456,-2711,-2542,7812,1014,-824,-271
2457,2698,-6293,-459,330,-1391,372
2458,-2478,-854,1809,297,-1341,649
2459,172,-4770,-5376,-1388,-1325,-1047
2460,793,-582,-6737,1713,-1330,1204
2461,2844,-3099,6300,-844,1548,488
2462,-4728,649,-6914,202,1141,-343
2463,6290,1490,6034,39,-824,-673
2464,-2615,-4438,5802,1241,-1788,-1286
2465,3876,-1063,236,-847,246,-287
2466,-6500,-923,151,364,-946,-1411
2467,6863,7325,313,1907,-1744,1505
2468,-1740,-4243,-3393,-1898,-1372,1717
2469,-3004,1472,-2958,1742,-1376,-1740
2470,3269,-5565,-277,-1321,-1542,1720
2471,-1529,-2289,-1050,1241,209,1345
2472,-3344,-1615,5318,1467,1615,-241
2473,-1402,-57,6563,-944,1596,1662
2474,3345,-1504,303,-1782,1534,443
2475,-4314,-3863,432,437,1844,520
2476,4857,-7198,-5805,-46,0,1815
2477,-4607,1054,4148,-1260,1705,-1955
2478,3760,-909,1933,58,-783,-473
2479,1533,-4461,-1141,-1382,-1264,-1182
2480,6798,2118,2812,-1905,1508,-1817
2481,-2973,2589,-1875,1831,1177,-1437
2482,7016,511,2600,390,699,-1587
2483,5136,-2978,-7811,646,-113,-1508
2484,-4032,6283,-6678,888,-86,-858
2485,4610,-1804,-6153,1938,-1187,-985
2486,6211,4857,2216,1909,-138,-1920
2487,7002,2529,4798,-689,1709,-102
2488,-7658,5277,-1399,-1626,1182,-654
2489,-2917,-4563,-2697,519,-1833,1299
2490,102,-5220,-6745,1203,-1125,975
2491,-6267,-1028,1443,244,465,493
2492,73,6988,2262,257,-349,-473
2493,-718,7670,-1896,-1063,145,34
2494,5361,257,-7222,-329,-303,208
2495,-2583,7270,1767,1017,-1989,-767
2496,-2243,876,-5928,1153,665,972
2497,166,6375,-7675,1737,-482,-1285
2498,-114,531,-5789,-875,-1885,-682
2499,6313,7600,-5632,1395,-929,1367
2500,6012,-6944,1956,1415,1626,-1480
2501,-2256,-7325,6390,323,-310,503
2502,-2889,3711,7275,1505,1146,-1816
2503,-6182,-4278,-7739,-1318,-1599,-115
2504,-7780,-4583,1470,1443,-689,1343
2505,-6288,3062,1062,1542,1059,-171
2506,-3296,-6347,-4398,-807,887,-631
2507,-3626,4882,380,1985,-247,764
2508,1023,-7774,-4677,417,-85,620
2509,-6847,-1427,4980,-207,1586,-701
2510,-3055,-2876,6300,1351,-510,-1514
2511,4915,-4234,-5635,304,-1040,-122
2512,1782,-594,-273,1191,-556,-960
2513,-3590,4882,-7093,1129,-1602,-1094
2514,6723,261,-3997,1769,596,-1187
2515,-3490,-1307,-6601,-1839,-1890,-187
2516,4470,-5422,440,1585,-103,-1813
2517,4452,2176,1207,-1278,1589,230
2518,4158,-2490,-4839,-478,-523,-1326
2519,476,-1853,7056,-1362,1031,-382
2520,1718,-400,-1707,419,-490,804
2521,2529,2634,59,-526,-363,998
2522,-3585,6394,5467,861,359,1943
2523,3906,-1810,-3111,1237,-328,1424
2524,2760,-4710,3228,-552,1093,-842
2525,3468,-776,2723,1443,808,-939
2526,-2626,-369,-2928,1073,620,-1063
2527,-2312,-963,6262,-923,105,-592
2528,-6378,-3436,-7469,-1963,-1300,-1197
2529,6401,-7198,4943,708,1863,123
2530,-4432,-2164,6586,1625,1796,-664
2531,5853,-1413,3445,-1951,1193,540
2532,-5460,-2193,5582,13,-1400,-578
2533,-5297,6838,-4777,1119,221,-134
2534,-5147,5805,-140,-418,-473,21
2535,-1803,522,980,-656,-363,246
2536,1829,7346,-3088,1573,-44,-1290
2537,-5162,-98,7984,1312,-1337,98
2538,-579,-5714,-2793,-1926,1467,476
2539,1548,5666,813,-738,1271,1246
2540,4517,-3574,604,-100,197,-567
2541,-1739,2036,3128,-856,1452,865
2542,-6210,2361,135,1350,-1578,-866
2543,2247,-7072,-2007,-518,-151,-693
2544,-3919,-5656,-5857,1645,-1717,198
2545,2165,1490,3361,-1268,1551,501
2546,-6998,5336,-246,949,742,1354
2547,-1636,-7646,5314,-1782,-1889,1496
2548,-276,3956,-176,1817,-1124,-93
2549,-2440,-5470,7835,108,-1382,-87
2550,2445,6720,7122,9,667,1700
2551,77,7077,7668,394,929,1388
2552,-5702,-1228,7494,-1576,1532,1171
2553,6148,-6222,3954,993,1296,300
2554,3238,-406,5694,1088,-85,813
2555,-2551,7987,7151,-1995,742,1985
2556,4636,2240,-6815,1075,-1190,440
2557,-6977,1025,-7027,1171,372,-613
2558,-3367,-124,-1118,1520,1910,1760
2559,-1740,1233,-2014,-1111,-1015,-802
2560,-7789,403,-4581,-1053,550,-772
2561,-2710,-2993,-6829,-1893,822,-1877
2562,1244,2532,-1537,927,-1567,-1686
2563,-3592,4397,-4792,-252,1710,-335
2564,-4374,-1166,-7550,-1830,-1552,650
2565,-2188,-3211,-7983,451,-269,728
2566,6754,7714,-1001,-771,-1790,654
2567,2635,-2832,5910,-883,1524,1882
2568,3702,5726,-5245,57,984,681
2569,5147,7895,-5604,1490,-757,-29
2570,5435,2859,-6719,-1475,1267,1714
2571,-4320,-7240,-242,817,-667,693
2572,-5172,-1649,-3618,-1047,-443,-934
2573,-4986,2286,6556,588,-1930,549
2574,-2872,7398,-6360,1434,610,-75
2575,-331,-1073,1041,-186,365,-1417
2576,3170,2249,7329,1578,771,950
2577,4161,1407,-2771,987,-517,397
2578,2840,5457,3787,1685,188,-1261
2579,6131,-425,-6143,-100,47,1565
2580,-3427,-3465,-2603,-965,761,830
2581,-1381,1914,2437,703,1197,-1802
2582,-3950,-6112,3503,-146,1003,1670
2583,4154,-5322,1074,-296,729,1745
2584,-6140,198,-5214,797,1369,-279
2585,133,-1036,-7265,-1482,1313,-251
2586,6017,-7277,6918,-1782,753,-12
2587,-675,-6835,2645,-495,-1701,1313
2588,4625,-5142,-6504,1478,-341,-981
2589,7341,2275,-7870,-1591,1937,-447
2590,1433,3111,-56,293,781,-1187
2591,-4377,-5976,-4143,1492,877,1609
2592,1687,-3839,-1866,64,-1864,-388
2593,-2388,-2671,-5022,-803,-88,-807
2594,-5347,-360,2517,1043,977,1035
2595,806,5310,423,1264,1631,1799
2596,-4517,-6464,-2556,-1108,-670,-1247
2597,3422,-5816,-5405,242,-497,-623
2598,4254,2326,-2540,-932,-235,-1564
2599,-631,3003,-6252,-418,1874,-1657
2600,2797,1718,342,-1805,755,1016
2601,7910,-5760,7657,1897,1746,-712
2602,-6237,-7743,1242,668,-375,750
2603,3282,3207,-32,-1335,-476,325
2604,1119,-4492,5679,-557,434,1856
2605,-4666,-2322,272,873,-327,-1618
2606,67,7411,3335,-225,-1955,-1133
2607,4224,-7214,3332,-1789,-1681,686
2608,-3506,-4491,4040,-1672,-46,1375
2609,-4477,5488,-1083,-1936,963,-117
2610,5670,6663,-1295,1062,1417,1024
2611,6374,-2801,2843,1955,-1029,30
2612,5857,5595,1040,-1556,-933,-75
2613,-4654,7433,-1900,992,1903,-477
2614,917,-7127,-6096,-169,-595,-98
2615,-5440,1518,6638,-1813,-1420,-908
2616,1423,-7544,-4725,-220,-1199,1009
2617,5119,1986,1156,1035,-260,-1104
2618,2852,-2304,-3475,-1873,1351,-1049
2619,-5587,-2000,5092,-219,1477,-1668
2620,-2211,4315,-7560,-417,-61,1304
2621,5165,7189,-7729,-1021,1437,-768
2622,-7656,-5441,3190,215,-812,-736
2623,6198,-7952,2829,-477,1890,1249
2624,-365,-7393,3369,-1154,-306,-1452
2625,7895,-3997,3620,-943,-1693,1488
2626,-7866,-177,-621,1001,588,1309
2627,-2664,-4548,7055,-1104,1262,1674
2628,-4491,-2499,1690,-1764,-459,-1700
2629,-3150,5033,3766,1871,-784,-777
2630,-1361,4747,6361,1658,586,33
2631,-6122,-7514,-3048,1867,1246,-1786
2632,3624,-852,-4261,880,492,1319
2633,-7717,-1591,4355,1558,1417,-1452
2634,4697,6926,5524,-1401,1404,1584
2635,-4246,-6532,2475,1249,237,-1393
2636,5350,-867,6066,533,640,605
2637,6156,-1551,-2821,1908,-12,-1157
2638,-662,-5660,-5730,-1854,1418,-1610
2639,6105,-5500,-982,-1144,-1680,1315
2640,6499,-28,7726,-530,1677,1577
2641,-1840,-6705,-7104,-975,678,780
2642,-7877,-2112,2470,360,128,-692
2643,2347,6392,-6610,-1608,-290,-1527
2644,17,-7781,-5417,1224,-241,413
2645,-4412,-447,1412,1487,253,-1313
2646,-6093,-3789,492,-392,-1816,-1938
2647,-470,7230,-786,652,1048,1055
2648,-3710,-4269,6264,-944,-1700,868
2649,2794,2668,-6440,1628,-427,-1298
2650,6767,-6337,-7912,1641,-478,234
2651,6172,-2703,100,-1648,1710,-740
2652,1296,7692,6458,-926,-1812,-1971
2653,-3056,-3303,-3903,-431,-1070,684
2654,-2644,-6483,4739,362,-1514,-121
2655,-3993,2765,3154,-767,1871,-1531
2656,2003,6935,-2532,-221,-1254,1612
2657,658,1742,27,-988,949,-1760
2658,-948,6039,-4973,42,1974,1546
2659,7518,873,-7938,1316,-363,577
2660,-224,3064,-5322,6,1959,-595
2661,-5048,-2994,756,-1181,1501,-1960
2662,-1671,-3167,204,291,-648,-1312
2663,-5922,733,-6248,-1987,-276,-172
2664,7009,2882,-687,1317,1564,-1673
2665,2436,-204,5925,-1656,-148,-858
2666,4019,-3318,-6389,1740,-1869,-1469
2667,-6680,-1758,-1304,-1793,-844,347
2668,667,7563,789,1300,-371,1815
2669,4400,-6094,5407,1990,884,-871
2670,1261,2621,2835,-933,-853,-692
2671,3225,-2874,-6398,-13,-1373,1922
2672,-5103,1447,-6007,-1680,-33,-1305
2673,2623,3824,5826,-575,-1745,1049
2674,-569,-1368,-5269,1090,-59,1426
2675,-2561,2948,6023,1551,343,-749
2676,-277,-5940,7662,322,535,-146
2677,-7862,7830,-1901,-1526,425,257
2678,6643,2425,700,1424,277,-1410
2679,-1732,-2466,-4959,1074,-1523,-1515
2680,-7405,-7574,-6531,1267,697,-1349
2681,-1763,1193,7199,295,-1591,-1229
2682,7436,-7496,6078,1129,1155,164
2683,6348,-1312,-7108,1791,41,-1399
2684,678,920,-953,246,1388,-1145
2685,-4666,2327,4009,1055,-1825,1740
2686,-2497,-1134,-5359,-1880,896,1661
2687,795,-1998,3129,-81,-20,247
2688,6863,-7627,6302,558,-575,-1
2689,7415,4281,-944,811,1455,-1866
2690,-2706,-1491,10,1789,-1611,-534
2691,7553,-4426,-6446,-654,-112,-1404
2692,-7445,7915,-7886,369,-871,-328
2693,-1620,5251,-7716,-881,-1863,-1245
2694,28,-4169,4084,728,-91,-877
2695,2247,-7069,-6267,-1659,802,607
2696,-7260,-3394,-1526,1780,-638,-20
2697,5763,3677,-2682,939,234,-112
2698,-7508,-2704,6336,1623,1890,-1048
2699,7936,-2746,6858,-1363,-1300,1728
2700,-6884,2449,-5328,-1241,1660,-1874
2701,-263,-572,-868,-1756,1175,1281
2702,2488,3080,-3635,261,1661,-869
2703,4279,1093,-3380,1609,1534,258
2704,3586,2626,2667,-221,1838,-1252
2705,-4405,-1252,5565,470,726,-368
2706,7824,3283,-3089,1220,-68,-285
2707,2953,2180,-571,-1144,961,-963
2708,-6869,887,6396,343,210,-1071
2709,-7474,-2464,3141,530,-1384,-179
2710,7096,5310,-6963,585,1343,1972
2711,3468,-860,-3514,-435,96,72
2712,3066,2951,4998,-1952,300,-795
2713,5886,4356,5187,286,-1644,-1596
2714,-7952,5639,-4550,1438,-1900,1003
2715,1207,-6045,2112,1028,1033,-143
2716,1970,-1755,378,-365,1813,-685
2717,-1215,7563,4151,275,498,1290
2718,-3231,-7704,6874,53,1895,1762
2719,6800,-4604,-7894,1492,-1073,240
2720,4337,6395,7248,-581,-1641,944
2721,3253,-7615,-6930,-1645,-377,-1923
2722,5504,-2452,-7215,313,-525,-307
2723,964,-4296,721,1883,501,-209
2724,-2444,-7682,513,-373,-934,1243
2725,-5320,-6322,3989,1561,1565,-1260
2726,3934,178,2050,-1076,142,-44
2727,-4696,418,-941,1873,-729,-1434
2728,-23,-5294,2389,-77,608,-696
2729,2043,-33,7156,-831,-1559,-1865
2730,-4766,5589,-7543,-1333,-1563,1959
2731,-592,-1093,-5984,539,-1222,-1196
2732,1176,-7437,-6049,818,1716,-1413
2733,2726,5592,3138,1143,164,-18
2734,2435,1331,-6556,-1505,-1529,-1254
2735,3923,-514,-3284,502,1531,-922
2736,-355,5618,-1400,-1550,-411,1356
2737,842,-3605,-3610,1904,119,542
2738,5537,7031,1381,-1347,1083,170
2739,3669,2676,1921,1775,1513,-1654
2740,4807,939,5332,1970,-1129,-1382
2741,1134,-3313,-1325,-1336,214,-549
2742,-3392,3047,6744,1145,-737,1650
2743,-2283,2322,-7849,-870,-682,-271
2744,-231,-7725,6931,766,-1074,-906
2745,3376,-2902,-4449,-1071,613,-1968
2746,5315,6467,127,-87,-195,-1358
2747,-411,6310,-3938,-674,-1485,-1318
2748,2383,6760,-2646,604,-1563,-322
2749,-848,938,1708,-919,-1725,563
2750,-3924,1128,5572,-976,752,607
2751,-5197,360,3954,279,-896,1626
2752,-3637,-4382,-2946,91,-290,281
2753,260,5526,-4926,-542,-198,-748
2754,-4346,2262,1656,766,1865,25
2755,7912,-1205,701,1539,110,161
2756,-5363,-6026,4307,-363,1132,1324
2757,2971,2958,-6562,-1255,-123,-471
2758,-3256,-1963,-3428,1694,997,1301
2759,-5085,-2697,-5954,67,-695,688
2760,-2476,7822,7832,-537,918,29
2761,6151,-6570,-5059,1509,-615,-1417
2762,2449,6803,4398,546,-1231,197
2763,-3556,6140,5902,631,1829,1875
2764,1008,7086,5023,1915,-1448,485
2765,3904,4155,-5586,908,1800,-993
2766,3119,-4886,-4403,-432,-1790,-1427
2767,-5987,1210,7062,-926,572,-1094
2768,-5798,6890,-4781,-177,-1366,-252
2769,1027,4800,3266,-1236,1921,1312
2770,-7026,2760,832,-1117,-791,-1416
2771,-3008,5181,1227,-565,1129,1275
2772,-4409,3367,1716,1635,461,589
2773,3493,1630,-5315,1245,-1080,1065
2774,-5537,326,256,1342,-1576,-726
2775,1907,3847,7850,1381,-838,705
2776,-498,2066,6905,1830,1248,1323
2777,-4040,4055,7934,-1189,-457,-652
2778,6563,-601,-17,431,-1382,1421
2779,2016,-199,2219,-1302,-562,-164
2780,-3422,-4095,3084,-1159,-1136,-526
2781,-6579,57,-4771,1315,-589,-1490
2782,-2941,-3200,651,965,-1059,-1549
2783,1938,4687,4168,-108,-1187,-1818
2784,143,-1839,5360,-1566,828,-1631
2785,5330,5686,7673,515,958,893
2786,-5845,6988,-7388,-512,1549,-254
2787,-2056,2953,-2039,126,-1576,1298
2788,6786,2573,5306,712,-829,754
2789,-2974,-2040,7491,-887,-1570,512
2790,1671,3560,-781,-800,609,1146
2791,-3344,619,3544,745,-1801,-582
2792,-1834,1778,415,-1030,1189,-160
2793,-1324,7807,7998,-386,742,762
2794,6606,1182,-6402,191,-1852,397
2795,2404,-1454,2940,548,722,1020
2796,1095,6869,7285,-1654,1394,-1675
2797,-6597,-5309,-5419,-103,-963,1306
2798,6988,-6374,7251,1705,-1665,-653
2799,-6645,253,-2465,1281,-1836,34
2800,-5226,-3718,-636,1813,-309,-71
2801,529,-3465,-2919,-879,1646,-1883
2802,2929,5747,6692,-364,755,1959
2803,-2476,-7267,-5195,-1477,291,-489
2804,5146,1880,-7324,-1641,-1010,357
2805,-6357,-3623,3729,1508,1731,842
2806,-355,5383,-5329,-899,-379,-915
2807,-6804,-7422,6819,-224,1768,1623
2808,7713,-1629,3933,883,488,263
2809,-2966,-1212,5572,-404,952,-337
2810,1360,1443,699,663,1317,539
2811,-4418,3020,6000,-1698,-915,-1239
2812,5224,4446,-5571,849,-1654,1306
2813,5500,5012,6658,1743,-1716,1190
2814,-3084,3005,-3868,-724,-1262,761
2815,-308,6810,-3411,-229,310,574
2816,2000,-5549,1441,1719,-1287,-355
2817,-312,-3369,6474,330,-311,893
2818,-3302,-2412,4463,802,-732,692
2819,-3861,3807,-1513,-676,-385,-1617
2820,5105,1371,228,717,1097,-46
2821,-7256,940,-7499,1347,557,-610
2822,3529,-4318,-4735,1158,676,1220
2823,-4168,7735,6561,912,-396,1108
2824,3123,-6030,3820,1813,-1767,799
2825,6031,1983,-4737,-1523,1585,-822
2826,-3783,3245,-7485,1736,1372,-157
2827,-5331,-2315,-5073,400,149,1337
2828,7525,3388,5363,767,-687,-1912
2829,-1605,4169,-2258,1896,-1568,1016
2830,4025,-5164,5532,-1824,-1642,-1012
2831,586,-1486,-5856,1639,-1687,-510
2832,-6885,-2179,2299,-479,651,-1479
2833,2902,-4322,-2394,-862,-1630,-1959
2834,-7627,-735,7579,97,-1057,59
2835,-1276,-7899,6219,-124,722,-52
2836,564,5805,-5487,-163,680,-757
2837,-5646,6154,-938,489,1173,-1223
2838,-2706,5204,5255,-294,-684,1353
2839,2348,6032,4320,1783,1779,1978
2840,-2655,3871,5414,14,-209,-286
2841,5524,2561,6297,1763,-173,258
2842,-5001,6729,-7518,-471,324,1942
2843,2983,-2447,2300,922,1521,-1994
2844,-3490,1650,1538,-553,-1564,708
2845,-6862,1471,-124,1736,-831,620
2846,-1270,4620,-3597,-1451,78,720
2847,-5131,1020,4373,-1283,-1432,1684
2848,-180,-6262,1485,179,-868,-1485
2849,4230,6499,-1098,-1103,-1665,-670
2850,-694,6744,687,1848,-567,-723
2851,-5839,3496,-6429,204,1030,-628
2852,-443,4466,3191,-494,1380,-1382
2853,6959,7614,2925,32,-97,965
2854,-1798,-4782,-1655,1176,1424,-1492
2855,-613,-147,617,-1649,-1572,-693
2856,512,-2487,-5338,-1977,668,-112
2857,5252,-6213,-7189,-1419,522,929
2858,5424,-3447,-2713,1037,79,-304
2859,-6614,483,-3746,837,-1592,-965
2860,6147,-6780,-2682,-1263,534,545
2861,-2356,-455,6338,546,455,-1821
2862,-5833,4135,-3171,128,1306,809
2863,-4444,2976,643,-1624,1266,696
2864,2899,3380,4741,-326,-116,1861
2865,200,7101,-6904,-885,771,-526
2866,-5228,5567,-606,617,-496,-1109
2867,1693,2884,-7008,192,-1460,-8
2868,6458,7301,-7021,-1268,-1764,-79
2869,2332,-6131,6460,-1316,1049,338
2870,-6535,-1883,-3833,-434,1781,358
2871,799,2414,-1109,26,-1599,314
2872,7337,-3230,-6900,-1623,-44,-109
2873,2645,-153,6040,-1911,-82,571
2874,-1473,2361,-5002,619,39,-197
2875,6562,-1525,666,-1170,-1284,-1624
2876,2815,2935,-3342,-29,774,-1642
2877,-4475,-5954,-5713,1975,935,-806
2878,6847,3522,745,-6,1131,-908
2879,-6844,-6224,-7409,1405,-516,1586
2880,-7061,-2236,-1084,-16,1202,-1459
2881,-506,-5459,2651,1420,357,-814
2882,-2724,5225,6817,-1827,-30,-1170
2883,6336,61,4076,-377,-804,-1858
2884,-936,-4984,-1237,1715,-1680,-1811
2885,-500,-6396,-4197,-611,-384,-444
2886,3813,6609,-1225,-655,-507,-21
2887,-675,3236,4576,-284,-153,-1925
2888,-6355,5870,-6559,1761,-1226,-390
2889,-4999,3592,7479,-1487,1187,-1895
2890,6680,-1072,-3712,676,-261,1325
2891,-539,679,-6928,-16,1534,-829
2892,-2283,-3737,1997,-732,1415,-1249
2893,-2842,6805,-7379,-1603,-1179,1648
2894,6819,-7138,-2584,-980,-1022,1767
2895,-3189,2999,5079,-705,601,-1037
2896,2081,7679,4583,-1274,-641,-971
2897,-4095,1479,6073,-1187,-542,1588
2898,-6762,302,-516,-735,-1515,1070
2899,744,5677,-4058,-1958,1627,-710
2900,-1820,2281,6305,-871,1972,893
2901,-6094,539,6302,-610,1100,790
2902,-7088,4874,42,-869,-26,1703
2903,1604,-961,7575,-813,1569,-603
2904,7369,1460,-7578,-389,-278,-314
2905,-4333,-265,-4780,-960,732,-1865
2906,-5989,-6003,-3286,-1448,-100,1472
2907,-2042,6625,316,-1360,1484,721
2908,1402,-6009,-4036,1128,-1925,-1456
2909,4813,-5558,-4992,-1631,-1454,-604
2910,-7174,3620,-3529,-94,686,365
2911,694,635,1170,1575,-920,717
2912,3331,-4984,-4706,-539,-1068,-322
2913,5828,-5929,-369,1638,-1145,1376
2914,-1959,7523,2433,995,768,1820
2915,6056,6804,7463,-1877,-1320,832
2916,7166,-6374,-3746,-1985,1015,-1979
2917,7937,-957,1761,-1715,-954,572
2918,7363,4491,-7192,565,488,429
2919,-4736,-6878,1947,-1302,306,1366
2920,4688,5140,4069,-1361,-1160,-1774
2921,-1664,-1674,4904,825,873,-745
2922,6428,-4712,4338,1284,-1678,1613
2923,408,-3757,-7041,1562,-1386,1218
2924,4059,-4149,-2633,232,-649,-230
2925,520,-611,-4706,-1854,262,851
2926,-6061,-3408,313,461,505,-1797
2927,-1881,966,-2412,348,-528,-375
2928,4324,-1242,6445,1150,-1254,-1702
2929,1778,-3542,-659,-1267,-1822,94
2930,-4413,-5104,2878,193,-1937,-1930
2931,5390,4206,-6211,-1927,-422,1533
2932,4008,-4857,-3384,1595,1476,1857
2933,-5594,7694,-3591,-408,128,-1865
2934,1772,7275,-6544,-893,1056,1650
2935,-6827,-3923,4494,-768,-814,-1593
2936,7602,-1843,4955,592,-467,52
2937,-998,-1113,3047,-1406,-1768,-654
2938,-7970,5473,6897,785,-627,979
2939,3518,-5612,-33,-633,-1464,-1753
2940,-3983,-7214,-1628,627,862,846
2941,-5490,7028,5596,843,1885,-350
2942,-1091,4314,-1617,-1245,1424,-920
2943,410,4955,-6099,1517,1925,1123
2944,-2987,896,-4630,1043,1286,1256
2945,2877,6281,4803,755,1415,-1545
2946,-3943,5938,6123,-1179,-362,62
2947,-5737,-1675,-443,-1748,-204,-1713
2948,4912,-6165,-1380,-231,-1737,1319
2949,7538,-5367,-5815,-500,-256,-817
2950,-2850,2796,-3609,225,1181,-1488
2951,-1945,-7110,-4989,-1535,7,-841
2952,-6436,3925,4132,804,1344,-385
2953,-7521,5993,6167,272,1613,1875
2954,5831,3801,-2482,-302,-387,646
2955,-4113,-5846,-766,-102,494,1917
2956,-6184,-3035,-2328,-829,-520,-1452
2957,5850,7080,5088,-916,314,481
2958,2662,4540,911,-643,1810,-1080
2959,7564,6736,3122,-1839,-611,-1208
2960,-7935,1389,-4331,-227,-394,-780
2961,2890,-2054,2825,1064,1976,-789
2962,2800,7007,7207,111,1468,1831
2963,4204,4558,197,913,-1742,-609
2964,-4442,-2282,2309,1016,-1522,-1627
2965,-754,-1783,-3281,924,-1626,-1303
2966,-7113,-6824,-7165,-1671,1793,1579
2967,-6999,2843,1613,-36,-335,-1406
2968,2032,-2927,-4174,1775,1949,-1731
2969,6801,7139,-1242,-1762,723,-251
2970,5484,363,-5819,1022,-1630,1346
2971,1933,7543,2694,634,-955,-1818
2972,7666,1214,7720,-154,656,974
2973,-5685,-7172,4266,981,-631,-1817
2974,4415,3651,299,-719,-559,661
2975,-4530,4710,2896,196,-1601,409
2976,-1378,-3116,-4531,1224,-1732,1269
2977,6437,-7466,-1033,898,1807,-1529
2978,788,4970,-5618,-1884,-686,-195
2979,-5842,-5580,778,1628,-1515,582
2980,-6179,3835,2491,329,275,1711
2981,3804,-7331,-1518,-1984,970,886
2982,-2909,242,1558,-801,378,-1751
2983,6872,-7085,5653,799,883,-1903
2984,-3274,-6703,-7528,-350,-198,185
2985,2788,301,7591,1022,-1355,-350
2986,2479,2538,-6173,-1445,19,969
2987,-7238,3820,2776,1597,368,-129
2988,-6959,6437,7477,-1404,-891,-1707
2989,-5549,-5375,-145,1036,-414,-426
2990,-7137,1192,-4473,132,1690,230
2991,1947,4550,-1698,1729,-524,807
2992,-7404,264,6492,-630,708,-264
2993,3111,7042,-7062,320,1773,196
2994,844,4130,-1901,-1581,-528,1320
2995,1628,-555,3326,1874,-1557,-1719
2996,-3382,-7503,-137,1848,236,896
2997,-1596,-7351,-6165,-885,3,-18
2998,-1824,-5298,4972,423,1524,-160
2999,-1489,1035,3250,175,1315,482
3000,-957,5243,-2436,-196,481,318
3001,-2409,-2405,-2893,-84,-482,-1422
3002,6059,747,4313,-746,1728,1024
3003,-5129,3904,-309,672,1182,-1546
3004,-2222,-6209,-3419,-493,1693,430
3005,443,-5346,-5586,104,1605,1705
3006,141,-601,6750,-1292,-1296,-669
3007,5304,-3544,5835,-753,-1232,1382
3008,-3283,-7776,6425,-1840,1781,377
3009,-3600,-6857,2319,418,1077,-641
3010,-398,5748,-3774,-718,-1440,-1625
3011,-1401,6416,1269,-149,1810,-706
3012,6995,-1403,7165,-1358,1982,-51
3013,1636,5104,1142,364,1425,-1768
3014,759,1292,-1042,-1675,1613,-517
3015,-7203,-2065,-3214,1604,869,-938
3016,5396,1840,-1057,428,219,850
3017,-2438,-51,-721,-674,797,-451
3018,-6967,2982,-3400,760,1803,-310
3019,1431,-1436,1272,-1957,1872,-508
3020,-7777,-7073,-6287,241,-1968,404
3021,-2782,2957,4907,-1310,-1373,-276
3022,-4762,5132,1632,429,-1218,-1782
3023,6477,6486,-7143,965,-1846,1445
3024,-5270,4200,5638,85,932,616
3025,5278,6392,-59,-3,-691,1921
3026,7181,-2003,-700,-938,-620,1008
3027,7467,5919,-4277,1190,-1982,-813
3028,-7034,-4601,394,1761,334,1438
3029,-2794,-1983,-7639,1225,901,-870
3030,-5415,-5201,-3673,556,-133,-177
3031,6277,5321,1897,1131,-915,-1967
3032,-6650,6930,7743,1259,-1744,-719
3033,391,-1827,-2227,547,1117,766
3034,-7852,-5738,1751,381,-1268,1913
3035,788,7451,6460,-1448,-1765,137
3036,5557,-3128,-2936,461,-817,-577
3037,6787,7372,2143,-1596,-1978,-29
3038,-4345,7510,7088,110,-134,177
3039,-6681,7073,7839,1837,-651,874
3040,-6911,4849,-5875,1902,-1229,1892
3041,6488,5338,-3798,1186,760,753
3042,-6335,5379,-9,-1278,563,205
3043,-5996,4849,-5109,1761,-1151,1642
3044,-6096,2927,4549,583,261,1468
3045,-2059,-3959,7428,-521,1544,1563
3046,-6648,2210,-5215,566,-1023,-1691
3047,1747,1755,1276,-588,1823,-1660
3048,-5161,7331,4745,-1454,1727,912
3049,-3225,-3528,-1381,-314,-1403,-1239
3050,-6590,3928,6518,-1651,-1895,1122
3051,6544,-3229,7247,-1841,-832,-1195
3052,-4375,-7950,6313,-1905,-104,943
3053,-5344,185,5224,-90,1047,-1446
3054,1652,1137,406,1981,-1611,-401
3055,393,7102,5579,562,-1986,-285
3056,4464,5283,1178,1731,-659,-266
3057,5600,2387,4931,1113,1077,-1522
3058,7654,2997,-219,1330,-623,-1573
3059,-4380,-1429,-2490,-1120,712,1478
3060,-874,-7830,2725,1139,373,-577
3061,-2711,-72,-2253,1539,1821,-1875
3062,3909,7017,-2521,-803,-1107,-537
3063,-6688,-917,-2523,-401,1567,458
3064,3913,-4839,1416,515,534,-1966
3065,3527,-7212,-7487,-603,-1295,1544
3066,971,-1787,2609,-1649,-111,1755
3067,6450,6736,-6397,1696,-1744,-710
3068,-5094,7293,-3870,1336,920,-20
3069,2818,-5565,3615,103,1478,-258
3070,3501,5204,2792,653,-77,-1306
3071,1354,4425,3938,1817,1710,1225
3072,-6074,7439,1027,1003,701,-719
3073,-4960,5102,3454,979,148,-381
3074,-6898,-906,4036,1157,1358,-1488
3075,5194,3542,1064,1235,448,1687
3076,-7661,886,6951,-1414,1513,738
3077,-6131,-1767,4422,-1614,1671,-277
3078,1045,-6192,-5559,929,1236,108
3079,-4432,-7137,6904,-337,327,-1238
3080,-5269,-4848,4671,1845,496,103
3081,1219,3294,380,1442,-44,413
3082,-165,-5297,-4707,-1913,-246,-1396
3083,-7965,-188,3827,-536,126,-1181
3084,3827,2553,392,667,-696,760
3085,2313,7485,6320,601,-1576,598
3086,7711,6426,2858,-739,-1049,1477
3087,1968,1020,-6953,-1124,-1800,-1757
3088,756,2306,-6287,1624,-830,610
3089,-5265,736,-1364,-1990,-1435,673
3090,5316,2503,-4301,40,-1880,968
3091,5758,4200,2803,479,-567,-422
3092,-7533,3552,1436,-1339,124,-1675
3093,-2916,-313,6040,411,1747,-505
3094,1433,-2050,2058,39,1344,723
3095,1155,2235,4562,-1173,-700,1050
3096,-3269,1067,-1954,-109,1969,1260
3097,5512,-5689,5654,1077,-1012,-895
3098,-3538,-1407,-6197,349,-1365,-1185
3099,2252,-4495,-3722,749,-878,1569
3100,-3423,-1982,-3479,-735,1590,1945
3101,-4817,-5156,3486,1417,-517,-1961
3102,7965,-4184,4085,-1718,-1166,-1707
3103,-4184,6817,-4913,-1432,-54,-1319
3104,-4654,-5562,4578,1333,-1370,1507
3105,5897,-4570,-6623,437,1943,-1966
3106,463,-3213,-3378,-1566,-805,918
3107,7833,7170,7178,-997,1591,1196
3108,-3943,827,807,-504,-1440,-1428
3109,-5153,-1726,-500,-246,-679,1743
3110,1498,2565,-7881,446,-634,-1141
3111,4910,2608,-5815,212,1260,52
3112,7004,3034,6009,-1382,-1127,-209
3113,176,1301,-4411,-1155,859,1802
3114,7619,6860,-4319,-1877,-1643,854
3115,-4904,-3242,-6307,-28,-1073,-211
3116,5129,3650,493,329,-304,-1271
3117,-6917,1612,-3933,-1544,1742,-276
3118,-1065,-6970,7525,347,1163,406
3119,4788,-7073,3384,1518,-133,1392
3120,-5692,-4198,-4214,-584,-1385,-1493
3121,523,3959,-2474,1659,-1778,-1891
3122,7458,-697,-2150,-352,-1339,212
3123,4575,6441,6460,-1614,-1559,-684
3124,-6384,-1508,-1063,-1012,1355,564
3125,7305,2661,-856,1774,1128,834
3126,-7069,2558,1350,1770,1249,296
3127,-5258,-7784,-3856,-806,-1969,1614
3128,-6287,7428,-1693,1102,1852,1030
3129,-1810,-5019,2605,-1265,-1809,1222
3130,-5619,-3440,-1094,1417,-572,-302
3131,5734,4258,7681,-497,-522,1362
3132,-2878,-5066,-4042,-459,-1485,-421
3133,-5237,-3125,-1446,758,-29,-858
3134,5824,-748,-6042,1094,112,1915
3135,-7387,6728,-2520,-538,-1059,-1175
3136,3651,-1200,-6787,219,-1185,-1569
3137,-1756,-5137,3127,-1550,1593,427
3138,-3631,-5932,7104,-1759,-834,312
3139,-4374,-5851,-583,1319,-598,-131
3140,7820,7749,6501,859,-1464,1865
3141,-7604,2667,4733,-640,834,-1032
3142,-585,7952,-3244,-1368,-407,-1279
3143,4668,2458,7818,570,-1919,-1411
3144,-4711,-3651,3502,1639,1780,-705
3145,7222,442,4790,-989,-1584,930
3146,-3712,7576,6001,-823,732,898
3147,5738,4977,7236,-1705,-1468,730
3148,1480,-252,2131,1445,959,1794
3149,-1171,-703,-4590,-1442,-322,1562
3150,2679,-4713,3399,-979,-159,-1636
3151,-7247,2244,44,-617,-1252,1361
3152,4973,3313,4600,765,-158,-1205
3153,2197,4020,-422,1338,-984,304
3154,-3200,4809,-6721,205,-1934,-1837
3155,7532,-1584,2602,1850,-832,1429
3156,860,-6307,-7411,-1261,204,-1936
3157,7208,-5907,2270,526,-324,1470
3158,-2618,-4112,-5093,26,-145,1329
3159,-4321,4074,-1032,-315,-565,141
3160,2065,-7252,-4241,-647,-1994,-1487
3161,7739,1044,-7578,-1776,156,295
3162,-271,1317,1198,-1936,-146,1736
3163,4347,7508,-2569,111,35,-1256
3164,4324,3767,-1464,1191,-1420,1176
3165,-5451,3067,-6566,-704,1700,547
3166,3161,-6801,-2620,-948,560,-750
3167,-1335,-5470,-5849,-1460,-723,-847
3168,263,7153,7726,1299,156,1752
3169,5596,-2415,-6150,1442,604,-1759
3170,-291,-4129,-4844,1892,416,-1043
3171,-5986,-6669,-3245,-1502,1966,1597
3172,4112,4241,2287,101,-1505,1092
3173,-3603,2893,7345,1250,715,1517
3174,-4351,3053,5344,-906,-259,969
3175,4709,-6404,181,934,-1218,335
3176,4015,1785,-7890,-91,399,825
3177,824,-1260,2296,-1527,-472,-1518
3178,5595,1929,-1599,-1422,1383,449
3179,4686,-6126,-7837,-1284,-46,-1698
3180,-3117,-66,5231,-429,51,-416
3181,2611,4988,-7938,-625,860,-206
3182,-6206,-4072,-6128,-849,1404,1991
3183,7867,7804,-7963,1475,-1980,1743
3184,2652,-4338,2859,1280,1251,-291
3185,6573,6587,3481,-1745,-1873,-1572
3186,-3742,-7450,-3898,-1085,823,-164
3187,-7125,-3295,15,1197,-1503,-520
3188,-6293,5906,-3694,1959,930,1750
3189,2617,-4508,5544,-261,1727,-787
3190,4822,-7491,-6994,-763,1302,-502
3191,-5132,-3156,6057,-1890,-98,858
3192,-7224,-5898,-4907,116,-987,-1319
3193,-5055,-5894,194,1495,86,456
3194,7486,3003,2473,238,-1406,8
3195,5825,3116,3807,566,-874,-123
3196,5641,-4869,173,1163,-75,285
3197,2810,7265,7667,-1769,-1222,-359
3198,-2588,825,-4404,-1566,-771,413
3199,4221,-2151,7638,-1203,1196,1260
3200,261,5570,-4908,-59,-267,-1122
3201,-2191,-90,-1859,417,-1840,814
3202,4506,-242,-533,-1818,-1687,938
3203,-2983,6337,-4754,1737,-1701,-746
3204,4532,6437,6181,913,295,-318
3205,5390,4563,-4043,1659,-1590,-1999
3206,-481,5851,4498,-203,-770,-353
3207,-1723,-1722,-745,-1616,1456,530
3208,7124,-598,7689,-1124,1629,-1405
3209,-1184,-7265,1726,-691,-710,-1453
3210,5851,6777,-842,124,-1871,24
3211,6120,1068,4500,-1121,-484,-261
3212,-5393,3176,6909,-1505,-1849,341
3213,-1768,346,-7405,-2000,-504,-429
3214,7512,-7076,-2311,528,-1986,773
3215,-3326,-1263,-5389,195,1288,357
3216,-2376,-864,-6660,-1068,-1007,-1185
3217,4799,7279,-2270,1516,814,384
3218,7488,1751,-2999,289,-405,-1661
3219,-6348,3261,-1808,-1101,868,1449
3220,-6261,-7109,3376,-346,-1349,1424
3221,-6889,-6299,5825,-1784,368,-1776
3222,-6723,-1552,-5062,-378,-298,1832
3223,6835,-6420,1142,-1786,-1441,1782
3224,-6185,-6111,6178,1771,-1752,-78
3225,-3428,-3136,-7180,-672,-1795,444
3226,3454,-6062,-556,1052,-1585,-1043
3227,3450,4327,-7565,1328,-319,460
3228,327,573,-7444,1199,-1847,1406
3229,-4221,-6685,1352,1913,-1707,-847
3230,-7756,2850,1598,-345,-1908,-1528
3231,2141,4251,-3377,-1435,946,534
3232,4603,-5896,-7667,-1110,-962,381
3233,-4882,-3665,556,-535,-431,-1748
3234,4112,-3764,4617,-1243,-256,-640
3235,4127,-7130,-3873,-85,-596,0
3236,-6694,-6782,1620,-1703,-326,322
3237,-2257,-3956,6916,-1983,595,617
3238,6184,-5305,5876,-1469,-1556,1179
3239,4312,6993,-2571,-1216,-1704,-1447
3240,6033,4061,-2448,-673,-1077,418
3241,-5617,-6618,1373,229,341,-1389
3242,-3236,5716,-1552,-1480,-1465,1623
3243,-2584,-5107,7795,1795,-1030,-1323
3244,4986,2334,3939,-469,-616,-1888
3245,-3959,-1842,6222,480,-1095,-217
3246,523,-6974,-2366,1652,1741,282
3247,-148,-6855,-6534,-813,-1468,1902
3248,7777,4886,5995,-345,-1071,-821
3249,1566,415,-5898,-1056,625,1296
3250,4457,5511,3754,116,1375,1837
3251,2834,-1517,-1441,1519,-1919,1953
3252,706,-5751,2543,-919,1127,-1857
3253,-6952,5830,-4986,-721,1252,427
3254,2074,2383,-3827,-644,-1582,783
3255,2784,-5724,-599,-1286,-779,-223
3256,6890,-1308,7647,-223,39,506
3257,4752,-5663,-3348,-1629,-561,-1401
3258,-7818,5927,-153,-336,-530,-793
3259,2088,-3100,1729,-853,214,1193
3260,-1278,796,315,-1945,-460,-1338
3261,5244,-1233,-3834,-395,-1749,1876
3262,-5594,3228,6374,1895,-971,0
3263,366,575,5610,-898,1691,1180
3264,6048,-5887,-3304,-884,1727,1135
3265,2382,5240,4644,-641,-715,1871
3266,-4684,610,5902,-23,12,-1587
3267,1409,-1851,3213,-1869,1418,-686
3268,-6028,-2729,-3148,1653,-1283,610
3269,-1789,-5872,7455,180,-188,2
3270,-966,2669,-5064,1935,1684,1046
3271,-3909,-1705,4929,1466,-787,406
3272,-4446,7346,-5261,1959,1898,1237
3273,2804,7530,2388,218,-924,1101
3274,-4965,2668,-3132,149,770,430
3275,7625,3299,4411,-1022,-317,-1404
3276,-7751,5414,4549,-113,-1435,-838
3277,6520,2984,506,743,-452,222
3278,6598,-6223,5014,1257,1310,1478
3279,3151,2742,-1372,984,-846,-757
3280,4174,7560,1971,-816,-1619,1601
3281,-6653,4788,1606,-1877,-460,143
3282,4223,6587,2862,771,-1064,820
3283,-4144,-223,7048,-1641,1737,-400
3284,-342,2154,2156,-1559,145,1125
3285,-2873,6618,-4485,1482,-1866,905
3286,7255,3820,7799,1581,-1115,1169
3287,7931,-54,-6611,-1022,-1364,-788
3288,-3770,-1314,7612,71,559,1726
3289,-6285,1065,-6920,-116,-66,1069
3290,740,359,-418,-197,-1934,989
3291,1349,2076,-1724,390,-1294,-151
3292,-1148,7544,-3757,-51,-1088,845
3293,-364,-2709,6119,-534,-1290,1984
3294,3898,-5029,467,-1035,-1878,578
3295,5360,-1068,-3638,-497,951,-1697
3296,1388,1281,948,-1631,729,-1008
3297,7826,1404,-1382,1163,889,-1343
3298,2638,-1716,6635,1808,-982,164
3299,1501,5894,5119,1450,-258,-1444
3300,-7504,5445,2353,-630,-1319,-534
3301,2325,-4198,2578,830,1587,882
3302,3828,5551,-3219,-1823,1636,824
3303,-545,4667,-7851,1503,97,-699
3304,-3866,-3277,1799,1089,916,1941
3305,-2646,-2625,-4980,-965,1904,-1549
3306,5093,-1244,5164,846,508,-67
3307,7692,-4384,-41,809,-1037,911
3308,5381,690,2934,1355,1502,-324
3309,-4461,-1977,-6206,1555,-573,-36
3310,-1091,-2469,-1498,1704,-1650,621
3311,3115,-4042,1296,-1433,-542,-1212
3312,683,5489,1749,-183,1861,88
3313,-7727,5360,2664,-845,-1415,-1982
3314,3544,4125,6803,1963,1630,827
3315,7377,2056,7710,-1530,-690,1207
3316,-4548,229,-949,-1411,1912,1586
3317,-3660,-716,5872,-1858,829,67
3318,-5104,5645,3250,109,1618,1265
3319,4673,2512,624,1181,-793,273
3320,-5729,-6484,178,1437,-609,1959
3321,3056,3739,-7452,1472,-1765,-293
3322,3339,-7309,3390,-924,-1946,-1019
3323,3380,895,4868,-1878,1900,902
3324,-1462,-926,2855,-1661,1096,-275
3325,-1502,-3481,4302,-798,1413,-571
3326,3278,-4908,-4342,-1489,1727,-1736
3327,-1217,-4876,-2236,-1020,-190,-659
3328,3596,7272,4809,381,-1015,-1413
3329,952,-5606,-6882,1216,-1930,1934
3330,3160,7397,2078,1807,314,-309
3331,-5425,-4187,6004,1791,1448,301
3332,-73,5607,-5122,-1214,816,1877
3333,-7566,742,5224,135,-800,-309
3334,7340,3322,6049,341,1701,1149
3335,-970,-3350,56,-1803,-177,-110
3336,-2631,-6394,5574,-1444,-337,-674
3337,7747,-1176,-7939,1536,1822,-1275
3338,7215,7296,-7797,-926,-1271,-141
3339,-1075,-368,-3558,644,-1295,-154
3340,6812,1061,-4213,-1607,735,1181
3341,1758,-5975,320,-885,-967,-1273
3342,5352,-6244,5439,1612,1338,-810
3343,5850,3710,232,137,-1756,1479
3344,1504,7928,-7835,1942,392,-38
3345,7714,7195,-4691,1475,-1417,1302
3346,6119,-1743,-1550,809,414,1578
3347,-4604,6209,-7785,-297,-338,-1102
3348,-7694,3521,-5908,-1493,1206,1385
3349,-6506,5026,5608,1565,-1083,296
3350,1226,7387,1849,-118,1757,1641
3351,-1153,6531,-6218,-160,1647,557
3352,-1191,3322,-2743,1275,1592,798
3353,-3920,6108,7821,-1600,530,1990
3354,-4242,-4110,4331,-1581,-1508,-709
3355,-7997,6314,-4442,-1682,839,-1545
3356,5472,-3431,-6514,-1187,-851,1384
3357,3401,-7221,5984,-545,989,1167
3358,-1693,6523,7679,1420,-1148,758
3359,2181,-2576,4466,925,177,-1540
3360,-306,5541,2990,-1449,-1392,839
3361,6143,3000,-7473,332,310,-42
3362,-1368,2904,3856,-1110,-1781,755
3363,3885,-3677,610,-109,1821,-1346
3364,-6704,4433,-4566,-1317,1135,-1403
3365,5684,-4580,-2858,1507,-383,793
3366,-6056,5278,7718,1129,1254,-593
3367,-3282,-460,-6419,875,-1958,1960
3368,7623,-7234,7829,1115,1128,508
3369,2927,-3447,319,778,-1873,562
3370,3265,1266,2402,-872,715,-1551
