Sample,Ax,Ay,Az,Gx,Gy,Gz
0,117,-1338,4904,187,-501,250
1,6956,-6205,4887,-1120,-1789,-875
2,2520,380,2237,-1754,1512,477
3,3068,-5224,-1638,785,-1501,1290
4,-3493,-473,-5090,-1155,-377,-982
5,2378,-1686,2566,288,-245,-1014
6,-7851,239,3535,1608,-1027,-920
7,-320,-2345,-958,1393,-242,1455
8,5899,2385,368,-765,-1046,-211
9,3090,-6608,7541,-1476,258,-1575
10,-3635,-4683,-4568,454,58,1835
11,-5661,2184,4606,-1694,-639,-643
12,-6576,7190,7831,3,1582,1546
13,-7998,-786,-965,1121,454,-963
14,-2206,898,5241,-1193,1759,1980
15,7199,-1218,-5878,1781,-1998,-1742
16,2002,2946,290,-1395,-720,-1689
17,7943,-3178,2137,1064,30,-1131
18,262,509,-7215,354,-1404,878
19,5905,-6230,778,-1104,1332,-117
20,-283,-1694,-7651,-13,1026,489
21,3510,5456,-3765,-180,-911,642
22,1510,-7832,-1301,-135,-1738,949
23,-254,382,-4931,873,-1858,28
24,-3740,-6688,1397,-29,-1227,-1402
25,-6017,7064,6028,-1473,1041,-241
26,-5432,7445,5730,1172,-334,-1178
27,-5527,-1978,7582,-950,735,-993
28,-7898,-6399,-4655,749,1078,160
29,-2297,2320,-1482,-330,-487,-452
30,1589,3601,2020,1044,-1598,-1594
31,-7073,911,5738,410,1476,18
32,7475,477,-7140,1931,-326,-328
33,-4648,3537,6707,-1930,1062,1931
34,-2895,-510,5190,2,-728,-653
35,3043,1916,6823,-1546,298,-152
36,-1167,6284,2452,-1422,977,-1247
37,-690,7704,-2183,1747,760,810
38,917,1758,-4252,-1389,1718,502
39,1740,-1018,-2927,-253,1072,-1138
40,1707,4270,4732,877,1849,314
41,-137,-1638,-634,1175,1654,-1108
42,7147,-1616,1686,978,-1383,1079
43,3381,-1717,2341,1528,-504,884
44,-4503,7654,3312,1281,1538,1055
45,-1982,5115,1917,619,1662,275
46,-1079,1687,-3267,1300,1594,1809
47,4886,4425,-2427,632,-1338,1585
48,3049,-4847,-6296,-812,-1334,857
49,649,-5004,224,1179,1814,-1070
50,808,-4757,-5795,-1928,-1422,-1557
51,-1519,-6495,7676,477,1899,966
52,2285,3011,-1821,-1123,-1905,63
53,5161,4576,-6957,-1637,-1111,1727
54,-3026,5602,-7764,-379,980,1630
55,2241,66,5675,1245,180,-301
56,4534,-5427,6656,-454,-429,-389
57,1573,-7975,-5159,1694,-732,442
58,228,2487,-4520,-518,-1655,1392
59,3475,2246,3217,-1052,1548,1979
60,-2478,-2938,-6877,-631,-516,-1093
61,-915,5848,7051,-1183,-46,712
62,7104,-1765,-4491,1615,-1524,1768
63,-5259,5284,1951,-2000,-471,-332
64,998,-3431,-5548,-185,-570,1213
65,3460,-5923,3292,746,1371,1739
66,-3817,-2149,-3404,341,-1130,1326
67,53,119,4769,-803,-515,1561
68,-7470,-2015,-6070,1405,-1560,-1852
69,-2112,744,1234,386,-1892,-424
70,-2487,-4825,6962,-1183,-1179,-370
71,4026,-7480,3488,592,-385,-1568
72,-5410,90,-2414,-1925,1306,553
73,1941,-5957,-7842,-1593,518,1823
74,-1464,-536,-633,-1179,-1788,-822
75,6933,1126,-2445,1659,-822,1472
76,6378,-1863,-4996,-753,-1700,938
77,1429,1362,-2855,-1581,301,1664
78,-2590,-3448,2716,-1325,1860,1105
79,-6857,-4809,6311,1463,1241,585
80,-6366,-515,-6921,-785,-1252,1318
81,-6673,4423,-223,-975,-934,797
82,-1391,-2675,1182,1314,-1704,-1889
83,-2927,2781,-3131,-1338,1009,1874
84,-257,1754,-2222,1183,1104,-797
85,-7515,1680,-163,-1749,1914,-1885
86,-3958,-1594,-7607,1157,-1518,1290
87,2041,-1185,-3145,-1009,291,1721
88,7565,6964,3849,-278,-1905,1744
89,4649,2303,2469,464,1401,-1630
90,1952,7327,5723,-836,98,-1154
91,2313,6592,2486,1829,-1634,422
92,1133,-6318,1434,-1882,-415,22
93,517,1873,-2231,-205,-1614,-1481
94,5896,-641,-1341,937,-144,-108
95,7530,-1856,-4620,532,1302,-1200
96,6755,-1800,794,1487,1543,-220
97,-3435,5220,7680,-1103,-1353,-322
98,-2626,-1968,-3326,-105,-434,-1973
99,6442,7799,-5746,1684,1364,-1803
100,-2438,2700,5826,307,-1324,1124
101,-7794,2852,67,294,-717,1447
102,6724,-2534,-333,-85,56,-984
103,780,-1014,-231,-393,705,-23
104,-67,-4572,1672,437,-1129,-1923
105,-97,7834,-3764,-716,1010,-137
106,534,2365,3218,-632,1320,-1372
107,1750,6042,4985,-74,-1755,1312
108,4540,-2889,7714,856,-307,1963
109,-4340,6071,6238,967,-1694,-82
110,2406,123,-2078,-589,1535,1325
111,-6779,-6911,3121,1485,-666,1339
112,-13,-2450,-7676,234,155,1480
113,-1730,4244,7329,500,746,-1995
114,6353,-5005,-6758,1847,626,-1823
115,-5632,4587,6840,-1693,-1900,-602
116,112,3058,4849,-712,-1461,-660
117,5061,-2558,6356,-1548,1443,-1764
118,-2330,5760,7738,497,-161,792
119,6408,-4990,-5006,-1910,87,-859
120,5800,-1809,-1324,-197,-1122,-1945
121,-3465,2324,6901,-1148,831,-810
122,-5884,1070,-7470,1028,732,-70
123,-3610,2347,4210,929,1346,-592
124,-4565,-5447,3020,-1902,1156,1921
125,5590,-3825,-3248,255,-514,1180
126,4578,2205,6932,1303,1462,875
127,5605,4872,-2582,1484,1439,-359
128,-5660,6534,6743,-289,1534,-109
129,1101,-4501,7095,1680,-123,-584
130,408,5535,4755,1887,1181,434
131,7973,3373,-6832,475,479,1147
132,5657,-5629,7825,-423,-1585,-1024
133,-1960,-2680,-7245,-58,357,356
134,7855,-4232,-3736,1951,-1500,-1180
135,160,5781,7834,1241,1047,513
136,7280,-534,3669,366,1745,-664
137,3049,-2285,-5295,1506,815,1443
138,6191,5334,868,855,-1394,1989
139,-833,-3970,5475,-1858,-777,-492
140,3312,2142,6277,-23,264,1771
141,3511,1148,-4716,-1896,-161,545
142,5268,-3235,-2853,356,-988,1623
143,7980,1517,-1771,136,-643,-1880
144,-2556,-517,-6082,-1046,9,-717
145,-152,4543,-581,464,-100,654
146,1972,749,-4659,-1880,-1637,-762
147,2487,-7683,-3907,-1023,-706,553
148,-6195,3371,1873,-1730,-1433,910
149,-844,-4996,1780,635,472,-1151
150,-740,4228,7666,-1668,-592,-570
151,3202,800,-3442,1343,-1803,401
152,3609,4996,2618,1303,529,1564
153,4433,-4040,-962,-820,-1865,713
154,5195,-5955,1650,-1041,-1727,-795
155,-2824,6652,7148,-1400,264,-39
156,-7643,6529,-3230,223,-1817,-1830
157,4612,-1502,6305,799,1936,-1283
158,-3095,6813,6482,-421,-1703,-239
159,-2884,-1541,4547,65,-1418,1149
160,4372,3682,7474,14,1698,511
161,4095,-4349,-7131,-788,-928,756
162,-2606,5646,-6827,-1296,-468,683
163,2412,-3927,7251,-184,1565,691
164,-4789,-1328,-4640,1181,-1571,-130
165,-4117,7965,-7198,389,1761,-367
166,1409,4581,-6271,-1181,786,-1968
167,2125,3775,-5237,-925,-1596,473
168,-4156,3130,-513,-124,1556,-224
169,166,3074,-14,-861,90,684
170,4509,715,-4231,-887,-1154,1474
171,-4062,-3072,-3924,1641,-1075,-345
172,-2485,-3884,7215,-1604,331,1699
173,4965,824,5540,213,1473,1917
174,-2136,-5564,-5464,-565,-1272,726
175,4939,5372,7659,148,-326,-1217
176,-41,-4343,5412,513,1483,105
177,3237,303,-1466,-114,-48,716
178,-1018,7275,-2668,1750,-1100,1941
179,7363,5397,6318,-1343,-669,383
180,5716,-6249,-2406,1968,220,67
181,-7443,-1277,-2071,1310,689,-714
182,-7489,1492,-6707,-446,230,-492
183,-4194,-1530,2326,944,789,-1462
184,-7899,-131,7051,768,1329,-225
185,6345,-7488,1359,354,-1085,985
186,-4217,5767,-4588,501,481,-1173
187,6562,-2483,-6199,-1724,140,1722
188,-259,5642,-1528,1666,-1712,-692
189,6148,-1586,-2563,-1265,-1093,-1145
190,-7924,-6180,6134,1297,-734,-1259
191,7951,4024,-7130,-563,178,345
192,5508,-3983,6218,533,-1355,72
193,1640,428,5727,816,-1726,-1211
194,3809,-2733,-3438,1484,-1367,84
195,-2246,7339,7633,703,814,348
196,140,-5408,3205,1371,134,-1377
197,1288,2025,606,1531,-626,31
198,5932,-3544,-6531,-1960,-1675,-1931
199,-129,5207,-7933,-674,-103,-636
200,6922,-488,1101,-683,1786,349
201,1090,1786,-2153,-532,1744,-1009
202,-6100,5842,2928,-771,1163,828
203,6739,-5006,-6747,450,-1354,561
204,-4973,3353,6709,-623,787,-1052
205,582,471,4834,1026,1301,1100
206,-94,4180,4066,-1622,1838,-1526
207,4252,-5061,2224,-965,1467,1129
208,-5059,1173,7826,1789,1802,166
209,3729,2845,-5821,404,-291,-1286
210,-7533,-1815,-5127,-1466,-1007,607
211,-322,7308,-2604,-1460,-940,42
212,-5732,-1000,-2296,797,-733,1781
213,-3750,-6499,-1422,-1144,1630,1516
214,4120,2027,-3415,-1418,-1597,925
215,4227,-4568,-7980,1502,-806,207
216,-6464,-1942,-4262,557,804,-1286
217,-7592,2649,5656,-338,209,888
218,1317,-2457,5819,1843,940,1353
219,-813,-6268,4150,-1050,1560,-426
220,7418,6216,928,478,-1375,-1282
221,-2643,6901,-6590,-631,1668,124
222,-3044,-3195,-611,-190,-254,350
223,-4429,-240,-7585,1345,-275,-186
224,-2000,-6662,-2352,-1368,-185,1015
225,233,-1028,4146,1486,-1233,-500
226,3963,3023,-2218,-537,1757,-338
227,-734,-5594,7549,-70,-1944,-1005
228,1426,7759,1692,1961,1806,-693
229,32,6411,-3391,-1151,831,522
230,2134,1202,7777,1404,1061,1938
231,1834,-2212,-6867,-351,723,561
232,7695,-7447,4364,1618,1447,1310
233,4927,-7513,7586,-512,-1673,273
234,7818,-2733,6033,252,1306,1431
235,-6552,850,-6132,-299,466,141
236,2195,-6335,-987,-143,-1576,-1999
237,-7123,-2555,-3313,-708,604,-373
238,5409,-5910,-6020,-205,-1638,-391
239,-7264,7348,3359,1006,-830,-523
240,6764,-6728,-490,677,1976,798
241,3849,-3541,1617,735,-813,-75
242,-4323,-1136,-3415,916,359,-1094
243,5007,4387,2903,410,-766,-1918
244,1357,-3359,-5160,1157,-1613,509
245,1014,1407,-2396,1652,11,-1915
246,-4507,5025,5757,-1594,565,-1752
247,7640,-1112,-5907,-1378,874,-1442
248,-2486,4214,1216,-1682,1980,-393
249,5680,-4266,981,1803,-910,-698
250,-7116,-1314,-3518,-1006,-219,1967
251,422,-5339,6883,1714,743,-1236
252,-2202,6968,-3529,1646,-1089,179
253,-5669,-5844,-4472,353,-46,-1799
254,7571,5083,-2193,-668,-269,1786
255,1443,-5170,647,491,-1053,456
256,-7820,5084,112,-1441,613,-904
257,-6218,-6583,-2359,143,1215,1116
258,-2003,-1618,882,631,928,399
259,-4463,-6603,1116,1272,767,-1320
260,3427,-2557,2091,1121,1226,-35
261,6309,-3231,-3241,1367,1346,65
262,-7560,5144,-1801,599,-423,-1277
263,-6207,7275,-2676,-1101,45,965
264,-3358,7544,-1667,-1159,1808,-1587
265,4218,5978,-1517,439,-103,-136
266,-6888,6448,1670,1495,430,384
267,6686,786,-7681,508,1832,-163
268,-7486,5837,-1606,1336,-1452,147
269,-3729,-807,-1351,-416,355,-241
270,-2962,6765,674,-95,1862,426
271,-7236,1674,5351,1830,772,1448
272,-7811,-4658,-614,-557,-415,616
273,4816,5162,4966,1981,1798,-329
274,-4289,-6017,4598,-280,-1135,-605
275,2220,7949,6581,1671,244,1277
276,-5001,7958,6384,1410,-970,1421
277,6680,-3070,387,511,1482,-732
278,3898,-6550,5740,469,1804,1736
279,-3637,6247,-507,-1332,30,652
280,5057,-3101,6587,-1700,-1603,615
281,-3587,-4788,-3321,1496,-323,-1716
282,773,-7685,-5941,-1751,-626,-309
283,6546,-3358,-7077,-1630,-850,-419
284,990,-4845,-4362,778,485,860
285,7525,-3441,-7401,-721,-1319,-1211
286,5560,-4392,-5151,1720,693,97
287,1191,2124,4352,-1202,-488,406
288,-6684,1524,6761,-35,1157,1494
289,-4733,5020,911,-267,1084,497
290,3079,-7292,-5820,-225,1129,-1751
291,6186,6290,5124,170,-1936,-1264
292,-7156,-4740,-1447,-1575,1567,-1181
293,-1828,3208,7802,-403,-1441,-1958
294,4355,166,5196,1484,-118,-882
295,412,-5343,-605,904,-281,-624
296,967,-7797,-1356,-1674,441,-1849
297,-3841,-3427,-1727,1351,725,946
298,-1439,5527,2942,-1519,1446,1905
299,-3822,7880,6118,687,1088,-841
300,-4980,-5046,432,-1297,1211,-293
301,7234,1263,-3309,-171,-1744,626
302,-4306,-1116,-3893,-518,1244,1543
303,-2480,-4783,-1076,-1365,1445,-978
304,2298,6632,-7532,-1256,1336,-1884
305,-780,6514,4549,-1635,1754,828
306,7639,-1910,-7459,1308,557,509
307,-7396,4158,-1983,732,1887,1940
308,-764,1021,5118,-1580,-392,304
309,-6672,2512,-1627,-660,-995,238
310,-4882,-7018,6480,364,1062,-414
311,607,6061,4939,-933,514,251
312,-3415,1547,4258,281,-1857,710
313,759,-7294,-7814,-294,-707,-185
314,-7971,348,-6591,912,-1060,1310
315,523,-6378,-2029,118,-1828,-1494
316,964,2760,-1348,238,1900,271
317,3601,5150,7875,835,-850,-1979
318,3454,-5521,1300,-579,-838,999
319,-4484,-6824,-1678,-554,-1233,-808
320,536,-1567,7355,1496,1665,1187
321,7308,-2992,-5356,1367,1404,-1150
322,7802,4674,-221,528,-1533,607
323,1827,6695,7370,711,-1435,-261
324,519,-5773,2592,633,1869,-607
325,-7394,-4022,-1590,1584,1109,-1482
326,-4085,1381,-4544,1249,-961,1780
327,-3096,3146,4033,1699,447,54
328,1226,-650,-3405,-780,1165,799
329,-6619,3382,-5737,-263,1425,-1765
330,-2639,-3161,-3370,-1199,368,-349
331,4911,-6528,-5620,-1277,1772,-29
332,6007,2957,-6300,1854,-817,384
333,-5412,732,-3733,1968,655,930
334,-4004,-1713,3228,1821,-1804,967
335,-2358,-2010,-5502,-715,1723,1742
336,-3440,3808,-4971,1283,-705,-585
337,5497,-2826,-5394,-1155,884,462
338,-1836,-6409,-6213,-558,553,-783
339,-1907,-841,-5226,991,-596,238
340,4944,-6108,-5997,641,1759,-1910
341,-6757,776,-4799,271,284,1658
342,-3119,-5484,5079,-584,224,236
343,-3253,2961,7202,790,440,561
344,3696,-5501,-770,-1325,-1435,681
345,-7909,2404,-1066,-984,1303,695
346,-7987,-3117,1666,-399,-35,460
347,-6140,4410,1628,-1207,1602,600
348,3603,-4866,-5407,176,1964,1320
349,4027,5507,764,1642,1105,1
350,-3774,-1433,840,1154,1315,-325
351,-2728,-4660,-1166,-1160,1731,580
352,-6558,2716,4281,407,772,1257
353,-7824,3948,-6315,-1020,1641,252
354,872,-2498,1883,-1690,463,-147
355,5654,-3436,-5189,-1728,-576,-100
356,-1138,-2910,-4643,-1923,-1513,-1040
357,2741,-5608,2803,-969,-650,1211
358,571,-7035,-2503,-1795,-1815,1103
359,-2459,7943,-7205,1661,-1267,-493
360,-3386,6597,7863,1786,1455,-769
361,3181,3954,-1851,1103,1478,-1935
362,1226,6982,581,849,-414,274
363,-1218,-4439,-6128,1521,798,-2000
364,4278,3710,3269,555,951,1213
365,-2134,5727,-7276,-996,1599,1385
366,7497,3182,6332,-1222,-575,-130
367,6851,-1375,1859,1377,-339,22
368,2648,7229,-3376,-806,-1576,-1569
369,-6915,-2221,-4117,1879,1187,1851
370,2750,3446,3470,-515,-1841,-1797
371,-4097,1505,-4979,-1165,-619,1383
372,-204,-5263,-3104,-461,-1963,55
373,-7607,4472,1524,1477,1325,745
374,-1281,-6579,-5106,1595,182,-250
375,4691,940,2969,-347,-1845,-462
376,7130,-2769,4324,-523,-1245,1470
377,5991,-866,2759,-1007,1257,-1244
378,5147,5017,-5812,1264,560,-343
379,7707,-850,-5504,-1715,-554,-982
380,-166,4141,-2809,-834,-1172,1846
381,6772,-5000,-267,1931,-392,-490
382,-4391,2908,395,79,-583,-1763
383,-1030,-2546,3112,-306,171,35
384,6425,-4106,-1607,795,914,776
385,-912,-116,6180,341,1396,317
386,1466,5579,2205,-512,-973,1467
387,-243,422,2368,1093,-1880,-448
388,-2063,-875,5274,1362,443,-86
389,114,-7650,-5385,1580,-1708,-1013
390,-3044,-7155,-3224,781,-351,-823
391,4142,-4956,739,34,1054,701
392,543,-3936,-7508,34,-1958,-1053
393,4869,-2826,-5925,925,45,-833
394,1151,-5815,-5669,1210,-743,438
395,3825,2146,-4914,813,1523,-402
396,-3176,4912,-2298,-1913,-1722,-861
397,6215,4984,3241,1990,-1546,976
398,302,-1634,-4966,1984,-1502,729
399,78,6601,-3782,-1043,543,-1192
400,-3467,-556,3128,706,275,1975
401,7506,2464,-1947,-714,374,658
402,-3418,-5872,-4885,744,669,-780
403,-7722,-7499,3651,-1437,651,1021
404,-1571,-6563,4448,1715,1473,-789
405,4837,6462,2138,-1941,-1194,-1891
406,-2366,2980,2925,1977,-354,-208
407,-7663,-2948,1200,-356,1967,1844
408,-7473,5587,1721,-844,1030,-716
409,-7965,-2915,1442,-1508,177,-245
410,6394,-6865,-7503,1331,1899,-1311
411,4526,1163,3745,188,-134,1248
412,6506,7732,7299,-1489,1109,111
413,1028,7392,3997,-578,371,-1620
414,-7104,-6379,-1099,226,509,1411
415,-3701,6674,-4149,-1575,1640,-1755
416,-1248,-1101,480,1756,1848,1876
417,5309,3596,6737,-1164,1032,-456
418,5693,-5413,-1578,1005,-630,-683
419,-6868,2359,4557,-1529,1709,436
420,6209,-5073,2639,665,131,-526
421,-5727,1209,-3946,-1511,-988,-1513
422,-3084,-6160,-131,1197,99,-792
423,-1569,-689,-436,1888,-623,-1280
424,4887,-4597,-6528,19,-654,212
425,-7363,-5324,272,1925,1014,649
426,-4056,-3652,1393,-146,134,-479
427,4124,-1066,2525,-1587,-160,-1191
428,59,-1884,3765,-1651,-53,1487
429,-602,2153,4654,-1769,585,-622
430,-1568,-3230,5006,995,-1464,1695
431,4344,7556,-2233,1665,1405,-1232
432,-5769,-6985,-4747,-747,1148,-1368
433,4925,246,4466,1234,-1151,469
434,-152,-7507,5591,-605,314,1202
435,-1356,-3381,3970,1910,1609,-1363
436,-312,-2874,5089,-1157,-66,-1572
437,-7686,2115,-199,-1189,668,-1850
438,6755,-6155,-1016,-1995,562,-1708
439,1801,-7954,845,1277,1895,-413
440,-4680,-5952,2365,1100,991,-694
441,-3528,7834,-160,-834,1977,632
442,5638,2084,5584,1786,-1908,-1264
443,-5991,-3340,2814,1685,-463,1532
444,-2825,7131,-6573,1529,1885,-1985
445,-4741,-774,7154,477,-327,1409
446,-7849,2812,1173,-1777,758,-824
447,1134,6800,4326,700,-231,1579
448,-6249,-4643,2512,697,-1997,294
449,-924,6609,4072,-1807,836,-527
450,7855,-5737,4980,1192,-1965,-1849
451,193,-5485,4653,235,-1491,1032
452,112,5169,6691,-955,681,1996
453,-4824,5634,-2644,913,-712,1722
454,6360,89,-6612,-1182,-1757,-1619
455,-3570,-913,-788,957,200,1309
456,-4111,-6738,5408,1433,270,-527
457,-411,-5410,-952,1078,-394,-645
458,1145,3572,-2289,-1405,1624,-1377
459,-7973,6891,7881,-1600,-346,-1548
460,-7063,-2969,4498,-20,-1926,976
461,-3499,-1645,-727,847,1774,924
462,1887,5633,-3534,150,1529,-1417
463,2176,5219,368,1263,397,-1753
464,-4465,5051,-3146,458,669,1832
465,4251,-5914,-2845,-1556,-1440,1456
466,-3538,-199,-736,-168,-1344,-89
467,-1900,-6074,4319,-386,657,-120
468,7574,7701,-863,54,-1397,506
469,-1838,-5972,-4245,-1882,-87,915
470,-7329,-6670,5394,-1401,-1796,-1101
471,6686,-4268,-4510,-195,-1842,-1846
472,-4070,3021,4590,-153,-1829,-8
473,-5746,1891,4375,-160,833,1314
474,2816,-6708,-4890,-749,1285,-1834
475,-4605,-2747,2763,1101,1123,1792
476,6412,785,5594,-7,-1942,91
477,2811,1862,-5521,-414,531,1327
478,4287,5246,6750,-722,-1821,-931
479,1185,4376,6941,1896,-324,1952
480,-4636,-4684,4214,-826,1885,-485
481,-3886,-3278,4963,-98,-726,1913
482,2947,5391,-6357,-802,1413,-1082
483,-3519,6525,-5431,155,200,1241
484,-5355,-3190,6669,-653,1667,288
485,5665,-6088,-2342,1117,284,-87
486,5191,-3334,-7515,-1093,1283,574
487,-5889,-5700,2272,-1858,-760,1529
488,2751,5888,-1200,-165,325,-216
489,3850,6802,6119,1257,1834,-1574
490,43,-4923,2936,-988,1317,670
491,-2384,-6603,-1793,-1989,94,1538
492,3861,6816,4934,-339,946,1153
493,6810,-5945,-3095,-900,-1604,855
494,4890,-3346,-3272,-777,601,-1895
495,2877,3680,5971,851,1411,1965
496,-6434,146,-3039,-1128,293,-568
497,4516,1372,-139,-598,1377,-104
498,-6222,3365,-4204,1136,-641,1415
499,2890,-6904,-5150,273,298,-728
500,-590,7729,-4884,-163,1486,1029
501,3557,1767,6527,736,-1937,-1817
502,-1122,-6065,2970,1529,1457,-1556
503,-5826,3766,3611,-1082,-171,111
504,-986,-2428,-3368,1813,592,1348
505,6858,4229,6822,-1674,-1921,1059
506,4383,-4922,-857,-32,-300,-1024
507,4187,4195,2363,-1283,1499,1227
508,-2821,-6646,7037,-481,-662,-137
509,-409,1798,3952,1916,-461,1571
510,4709,5395,-2163,-1742,-750,-1022
511,-418,-4343,-2349,404,405,-69
512,-5340,-692,-1952,-110,-1370,-1917
513,4116,3855,4907,1518,519,-972
514,3980,-778,-5878,-1627,807,-169
515,-6355,-1824,-4740,606,1553,772
516,-4526,-5438,7108,176,-1546,-542
517,3,-3387,3589,602,-374,871
518,7710,-7096,-7428,-577,-1609,-419
519,-7161,-3281,-3071,-995,1356,-47
520,610,-4549,-5166,-328,676,103
521,-5400,2662,911,-269,1488,-1365
522,7285,2831,3496,-864,-1212,-1471
523,-7333,4563,-2009,677,423,-782
524,4400,2410,-1318,1137,519,-560
525,930,4394,-5218,774,-1580,-1238
526,7743,-5812,-4346,-1794,1352,1242
527,4416,-7725,1860,1428,1042,450
528,5495,5252,487,113,-668,-1369
529,7437,-5870,3088,-1702,-1495,-1923
530,3070,-7069,-650,-447,555,-1518
531,280,16,464,-1775,-295,-215
532,-3734,7026,-7314,369,-1406,-71
533,-4753,4796,5329,-742,136,785
534,1366,-3456,5738,-158,83,1764
535,4943,-4529,1951,-1545,598,-1474
536,2062,642,7729,-914,-1881,-53
537,-5449,-311,2810,-1038,1995,1511
538,-2696,-1088,-2783,725,519,-723
539,-493,4807,-1215,-283,1669,-1369
540,1689,-1425,7143,14,1708,1577
541,-2243,-3070,-3697,-1243,1204,-1300
542,6812,-1299,-788,-597,1137,-581
543,4713,3732,-6992,1754,-1808,-1594
544,-2970,-766,2296,-1232,465,-1465
545,1858,5264,6342,812,159,244
546,3929,-1868,7604,-1765,-1462,-883
547,-921,-10,3975,-1139,-439,1883
548,-5842,5225,788,1571,-1891,-1013
549,1798,4292,3444,-1191,-1957,1908
550,-3809,-2643,895,-1912,-1029,436
551,-182,2017,-7313,-408,-463,-1923
552,7192,-4134,823,984,-1493,-1122
553,1287,-6009,4698,-1254,1067,189
554,6561,7039,3236,-1672,1526,-923
555,-1400,1325,-4625,-1244,-1019,1929
556,-1786,5025,-5861,-892,-647,707
557,-3505,-1595,651,-600,-1587,-1327
558,-2397,-4389,-507,866,1687,1164
559,7354,-6100,4380,217,1891,-970
560,-4845,3661,-4101,-357,345,1844
561,5423,5705,-4419,1189,-1342,102
562,-4973,1681,-7106,18,-1484,-1421
563,6185,3633,7223,-1674,1691,-1014
564,-3623,6934,4502,84,-1415,-1502
565,3878,-2375,-4493,502,-133,738
566,-2453,-4544,923,-1670,1230,-58
567,2270,-1313,-7880,-605,-415,-1072
568,5408,3401,2066,1454,-464,1368
569,-3262,-5564,-1081,-1499,525,-1949
570,6135,6262,-1569,-233,1822,-911
571,2053,-2329,-4181,-493,-50,1491
572,978,-6210,607,1140,-327,515
573,6054,-1266,-5302,-896,-1150,1927
574,5802,3324,7639,-799,1884,376
575,-825,-4331,2075,-545,1568,-731
576,-1565,6274,-969,-906,560,-603
577,835,-2317,507,-454,1138,769
578,-4908,-2410,-4269,1589,312,-1772
579,-6629,-4125,5646,1909,-1460,-1706
580,1594,136,-303,308,-1595,-1422
581,409,5789,-1308,1568,-1303,-478
582,-598,-7198,2942,-1734,-1501,754
583,-5194,624,5772,-1543,175,-730
584,7561,2480,3085,1871,1659,1001
585,-6431,-4023,-7986,165,-228,-960
586,-6079,6020,-1895,841,-1491,-1412
587,5785,-2494,-6427,28,1117,-238
588,-1088,-5354,6026,714,959,-289
589,2985,-6092,-3122,1959,786,-78
590,-5888,-412,-1074,-770,1571,-659
591,-1284,-1766,-718,1000,1416,-798
592,-712,-2074,-1493,315,765,-183
593,6403,-4644,2990,-1982,1860,1160
594,-2368,-3010,-4497,-1881,-946,1926
595,-5214,-2268,6136,-1286,-1998,-344
596,2253,-2758,-7324,983,1869,479
597,-3378,7259,2565,-759,-1294,-1558
598,5089,2964,4055,197,-1750,1952
599,5045,1322,-3363,-1701,-1815,-972
600,-3210,4820,-2771,-1828,663,686
601,2485,-5220,3799,1614,-617,-711
602,-3030,506,6872,1619,-76,-1230
603,-1846,-7554,6589,-1857,-1515,321
604,-4469,224,5470,1744,-747,1949
605,6443,5948,5269,-183,100,-809
606,-3835,6528,-7621,-725,1821,1869
607,-3292,3654,-7765,575,1744,-579
608,5876,-7663,6146,939,796,-150
609,-6412,-6197,7007,1773,544,1125
610,692,-2150,5361,1544,-1684,-542
611,6845,2195,-2991,610,-1891,495
612,-5201,-5532,-3916,1401,1870,1226
613,3859,4569,7015,-994,-1815,1191
614,7841,-3311,2090,1836,-75,-594
615,-2525,-4433,-168,1213,1426,754
616,-5354,2837,3088,-1011,-485,-1919
617,3561,-6148,507,-539,-384,870
618,1896,7400,-4414,1594,1280,-157
619,-802,2779,-4563,98,195,1257
620,1168,-6112,-1094,926,-817,-1725
621,-2320,5322,130,1540,1530,-124
622,-1237,6895,2093,-1387,651,705
623,6072,-3639,2446,403,-403,-1544
624,-2436,-7795,7420,-1791,-896,729
625,7171,3725,-6517,842,-435,-1672
626,5680,1045,-5065,1689,1646,661
627,4759,7524,-1050,-418,420,1921
628,7097,-3191,1347,-1840,824,-714
629,-100,-5753,62,1566,172,200
630,-6707,-3722,4194,-464,1191,856
631,3452,-6821,-2956,1638,1292,-580
632,-4594,1936,-6780,-1751,47,-1529
633,-1796,-5122,6628,-1842,-414,1122
634,7847,5650,314,-532,-958,791
635,-1901,-1266,-5218,1225,997,1524
636,4302,-7722,4882,1475,365,431
637,6233,5016,-6020,-361,801,98
638,-7711,1468,-7841,265,-161,1186
639,7160,5392,2668,102,-1694,815
640,-6244,6841,-2938,-1197,-41,1129
641,-5691,4283,4552,-1311,-663,619
642,2827,453,-3941,1630,871,-1450
643,5797,7487,-506,1079,-397,-945
644,389,-4557,4569,-1516,-62,-1260
645,-4544,-7805,-4097,913,551,-439
646,6057,312,-3046,1847,385,-964
647,-4054,6883,5294,788,-201,-1507
648,307,-181,6636,-1773,-171,925
649,155,2494,7225,-1231,704,-1206
650,-5329,-5623,3826,-1305,1183,-373
651,2025,7020,-2147,-1876,-1186,-1490
652,-4615,-919,-6509,1583,18,-1506
653,929,-1819,7879,1158,252,-1608
654,-2618,7492,6315,-308,699,861
655,-3638,7951,-5780,1082,931,182
656,7017,1070,-6667,1701,-1859,1580
657,4613,983,-2799,-1811,1461,-166
658,2270,792,6220,873,-1040,836
659,-3256,7740,5775,13,-701,-1733
660,3732,4303,-2950,1066,512,884
661,6301,93,1965,-662,-932,-1611
662,5956,2164,6848,-638,-452,-1269
663,7321,-6130,5848,1891,1486,-1984
664,-308,6028,3954,-183,1862,-1728
665,-3932,-4282,-7765,-1204,1362,1066
666,-6483,492,-3280,-1913,535,-144
667,6243,5059,2975,-722,-1947,-1673
668,-4237,-3934,-502,-1128,-1122,1069
669,-365,-2942,-4124,427,-1563,383
670,6244,-2298,2655,165,42,-1116
671,-6447,224,-5523,-1510,-1319,1670
672,1842,-2285,-145,-302,1350,-559
673,5308,-717,619,11,-1097,1003
674,-3008,-3320,6811,91,1249,933
675,-7308,4444,-302,-1309,1532,-1051
676,-2311,-2455,5977,743,1141,-1495
677,-3321,-5992,432,-589,1696,-710
678,-3990,-1744,568,-1225,-1989,1380
679,7728,1003,5029,1466,938,-858
680,-5836,-222,7676,-1626,595,490
681,-7772,7353,-7072,1499,-5,-32
682,6226,-2710,-2655,1184,-701,-540
683,2519,2545,5559,-799,-373,-339
684,-1072,-3272,288,724,1003,980
685,-5934,6422,-5585,527,-917,-718
686,257,4521,-6405,492,-1300,1497
687,3269,5355,-1083,1402,1862,1009
688,1705,1621,-7016,-858,593,-1123
689,4242,312,7567,2,1497,1338
690,-4673,-839,-2289,1589,673,1579
691,4989,569,-7654,1510,1700,-1962
692,-4895,4130,-5403,707,1622,1441
693,185,4006,-6490,-1323,-102,-1456
694,-7036,-4864,-4301,-791,-1336,794
695,1065,1611,6169,709,781,-1987
696,-2130,1225,505,-1553,-749,-119
697,7199,-5888,-5317,1662,500,-684
698,707,-6265,505,1496,-1513,1499
699,-7115,-4837,-4455,24,-170,1717
700,177,140,-3242,586,-1737,693
701,-2432,3295,-4098,1885,-535,1332
702,-4540,-1265,1008,1267,-534,988
703,2652,3213,5868,-404,-673,-1559
704,-1945,388,1836,-178,1807,1252
705,-399,-1971,6880,-1150,690,38
706,-2165,4168,3291,-55,1859,-550
707,2865,3866,5865,-41,-135,-1992
708,4307,5482,6014,1126,483,-217
709,-4410,6968,4820,-1421,1804,1616
710,-1507,-6100,6292,-481,1044,1381
711,5079,4720,6630,1459,-1039,512
712,-5931,5631,6118,-1409,-204,-1731
713,-2556,5997,3037,1218,1010,481
714,222,-7548,-6241,-1329,971,-1544
715,-5657,5126,1875,-386,1502,-1175
716,-3272,4272,-2143,1841,-1284,-1444
717,7333,368,-7218,445,-1272,-591
718,-937,-4748,2629,1803,-1516,191
719,4018,7484,-117,-996,1875,1619
720,-2139,-7831,-800,547,1424,-1208
721,-3144,-227,-2179,-1982,-599,1933
722,-1334,1213,6776,-804,1625,1234
723,-6345,5338,-6647,-432,1958,620
724,-1526,1960,7380,523,1667,-711
725,-714,-228,-4720,-1638,1959,564
726,-1224,-2701,4318,-759,3,-1041
727,-2757,7989,3388,509,1512,434
728,-1254,-1571,-7277,-868,376,958
729,-7515,4212,105,1688,-1369,1243
730,-4898,6591,-837,1801,-1034,-1505
731,698,1816,-7578,667,106,454
732,6447,2302,211,-188,-725,-1661
733,7154,-4763,-208,1615,-70,-1283
734,-120,7380,-5864,1234,-642,-1852
735,-4967,-2395,-472,-315,-547,49
736,-6117,-2923,-7367,1699,1357,1451
737,708,5594,3218,1340,471,-924
738,4650,-248,-2489,-143,-549,997
739,6081,7828,7408,1540,1400,-1589
740,534,-3274,2220,1297,-1051,278
741,-7720,6439,-5897,1712,-1763,1149
742,-5902,-7263,-578,1415,643,1268
743,-7748,5043,7600,102,-892,-707
744,1506,5962,2094,-1222,562,-1912
745,3378,-4133,-4919,-935,-943,-679
746,-5705,-7565,-648,1918,-69,893
747,-3258,-3285,3208,-23,1215,501
748,-1956,-1314,-7087,971,-570,-1997
749,1332,-1377,4633,1680,-1965,1133
750,-4694,-6727,2247,1682,-553,1462
751,5937,4975,-5555,-1941,931,-894
752,4912,2458,-3869,696,-924,-1886
753,5625,535,7522,1303,462,-1869
754,7429,-2071,2191,-1111,205,318
755,-3304,529,7619,-1160,932,-24
756,6306,6756,-7495,-1183,829,1618
757,-7757,-6035,-5662,-901,-871,-925
758,7438,3768,-3787,226,-1192,198
759,467,-5452,5863,1893,-1608,1053
760,6221,-5670,-7731,1197,1753,-538
761,-4591,-3243,-430,-1003,318,-89
762,-2556,-4421,-3516,-1980,1186,-994
763,-6702,6962,2147,-1330,-1869,-1016
764,1891,7696,4163,1145,-1385,527
765,-2861,7192,1052,1248,1439,1585
766,536,6922,710,-1200,323,1748
767,-5123,-1205,-6196,1710,1920,-1311
768,-2602,-7885,-5201,1434,1007,849
769,5680,-3221,-6604,-1042,1785,1932
770,-552,-4434,4669,-796,1573,-475
771,-2757,-5450,-6979,488,1511,906
772,2560,3753,-3992,-655,587,863
773,-2257,-146,-1739,634,1545,657
774,5377,-6866,-5356,1133,-1985,866
775,7078,-5996,-971,-1851,1193,-206
776,-2692,-2011,-4077,8,-1224,-64
777,7539,-7428,4371,1703,1622,1934
778,6221,-3521,5684,406,142,1563
779,3062,5400,7526,-306,818,1032
780,4856,1863,-2088,-1474,682,1521
781,4096,-821,2425,-349,-885,700
782,-3283,-5026,-7142,1293,1846,29
783,7408,4906,-1284,-1912,-1219,-386
784,-4227,6671,-4211,1406,-746,-678
785,1208,-6549,4619,-1800,355,-1438
786,6275,2730,3286,1418,899,672
787,6600,-4248,-4878,-55,-979,-1422
788,6692,-6316,-4790,-985,-537,1918
789,-5041,-1916,6600,685,-70,-295
790,1351,-4866,-5015,-1203,1931,-1167
791,-1393,-7630,4533,1990,1931,-1979
792,839,6652,-6429,-1592,1530,1326
793,757,2593,1839,-1490,-1268,298
794,-462,7660,-1458,1233,-743,-1285
795,5433,-2128,-7525,1170,-1058,-940
796,1087,-5734,1680,-849,-1458,-487
797,-1804,-6569,2073,-1681,1629,-1375
798,-751,-6519,3814,-1074,1742,733
799,4323,581,7167,406,-1403,-607
800,-2761,-7270,5725,-602,939,-940
801,7605,2257,1245,-719,-801,-640
802,-3058,-6472,-7594,-1902,1691,-1511
803,-2601,5023,-2854,132,-1721,142
804,-4309,1831,4777,-778,-1725,1160
805,-1896,-1284,-893,-537,-753,-1973
806,1142,-298,-7661,-1266,-1706,-1409
807,-916,-1212,6677,-1770,-1703,-522
808,-102,-3867,-2670,-280,609,-63
809,-2565,-4946,-6492,-1048,-1876,1790
810,1887,-3289,7697,-114,-538,-1340
811,5824,72,-509,-829,1728,1801
812,3213,-7121,-4773,1300,575,-449
813,647,1945,7932,-181,-1909,-1093
814,-6702,-2014,5002,1189,-938,539
815,6721,4255,1161,1199,1459,376
816,2973,-7562,4718,963,336,700
817,3560,-334,-4088,-1214,1029,-65
818,-5737,-5042,-7630,1267,418,-1979
819,-5924,-1046,2998,-2,-1525,-392
820,3787,4558,4608,-746,-1936,268
821,-7958,-3217,-710,-889,-779,1723
822,-4486,6413,6290,1677,1569,-712
823,5318,-7563,4561,535,-1324,529
824,-5376,7534,-51,1067,164,1678
825,-6895,3045,-3022,1417,602,-1735
826,-4216,5845,-7178,-1894,-1442,-994
827,-4699,-3847,7883,-323,1960,536
828,-2650,7906,5883,620,-1591,-855
829,948,974,-7101,-1915,-17,-179
830,5628,-6553,-7346,-1115,1078,-1753
831,-619,-2272,-5356,1868,-491,1180
832,-2976,6429,5528,-1683,497,-1425
833,6511,-7203,3039,1806,168,-247
834,-4000,5213,-2146,1461,-1160,-1295
835,2342,-5959,5986,510,454,-1030
836,2025,1010,7486,1396,1457,698
837,-4022,-5453,-318,662,-449,-319
838,-2889,-4831,7313,-303,1636,-29
839,-6355,-6776,-3586,-1844,-951,-843
840,6237,2602,7825,763,-12,604
841,-7723,-2911,-822,-1511,1256,409
842,-3440,-7029,264,-1625,1212,1441
843,-704,-4108,7392,-484,-293,-1666
844,6158,2173,-2242,-1715,-1604,1431
845,-3550,-518,-7160,99,-159,661
846,1951,6226,4939,-1392,788,-1756
847,-825,-4866,-1559,-1600,-1997,1560
848,3095,-6182,7425,32,-1879,-427
849,-676,180,-7058,1438,1982,1330
850,4686,-1763,1443,1889,-1822,940
851,-5027,-5351,-6151,1738,837,473
852,4481,-3122,-5466,-500,-45,253
853,-3181,-5187,-5476,954,1480,-1844
854,919,-4574,6400,221,-313,1152
855,-8000,1105,6649,-435,-1972,-1306
856,-2642,-455,1146,338,-746,-111
857,-3497,-6203,2179,-9,-720,-870
858,6703,1937,420,1184,-933,-372
859,-2418,7439,4865,-826,-1592,-142
860,2252,6573,3420,153,1101,-1950
861,-3521,2929,1964,-26,-1224,1177
862,-1113,4409,-3122,-934,-769,1504
863,4594,6035,-2111,1457,-904,979
864,-1982,3862,-4963,-1384,1911,-464
865,-1715,-1301,5318,-282,-609,1101
866,4799,736,-6653,-821,1264,-487
867,-4074,4274,-7882,786,-404,1800
868,1155,3972,2499,1029,1143,398
869,-4358,4548,-4049,1777,739,-1790
870,-5395,5425,1075,-1428,-492,-1841
871,1159,3694,-3657,117,-1124,211
872,-3521,3047,-3308,1333,-508,-1210
873,6392,-2678,-5779,-464,-882,806
874,-4759,-6627,4378,-563,-736,1798
875,5983,7109,5188,-901,-406,-1864
876,2807,6766,-2247,581,975,-1769
877,-7691,316,-320,-224,-242,837
878,-4008,-728,2156,532,-1057,1082
879,7944,-4246,4508,-1618,1824,1317
880,5802,4124,4467,1639,-315,-1086
881,514,4077,596,-1488,1419,-1566
882,-999,-831,-7282,814,-131,1021
883,-2945,-2129,-7085,-323,-1032,-963
884,-1532,-5020,3526,-1941,1118,984
885,6707,2403,3430,-1633,1764,1195
886,-5039,3967,-972,1097,-1104,757
887,-6835,5909,-2400,-347,-935,-39
888,7927,4352,4176,-1040,-1131,-118
889,7088,-1119,-4629,904,-1225,-1499
890,-6756,-5908,-4830,-961,-1212,-203
891,5002,6304,-4362,1536,240,-1794
892,-3993,4398,865,-1218,380,1954
893,-4309,5307,2075,16,-1659,368
894,4296,1153,3099,946,-607,459
895,1970,-6319,-5569,-156,682,885
896,403,2185,-1513,-787,1447,1248
897,4212,2114,-2929,867,-869,-1478
898,-5075,2425,-6362,-849,1906,1074
899,4945,4861,633,-1815,576,1909
900,-6217,-5794,600,-1864,-247,1920
901,6952,226,3921,-1215,-1916,-1308
902,-1091,-3107,5918,622,-125,-18
903,7889,-7290,-552,-63,467,1907
904,7694,7282,2018,-779,671,-1770
905,3866,-5222,-6398,1409,116,-1315
906,-2699,2341,-3990,1219,-1129,-753
907,-6992,-1247,7606,-1454,714,-929
908,-5545,-4932,7038,-874,-782,697
909,-2500,-2757,-5423,251,-1978,1332
910,7347,3438,7168,150,835,-1366
911,7570,3416,176,-935,-1073,132
912,212,-387,-3075,1522,-885,-407
913,-4614,4624,-297,-676,565,-358
914,-1558,1564,-467,-240,-1497,-1251
915,5978,-7009,5440,1549,-1688,-437
916,5463,5461,5523,-310,-200,-1999
917,7864,1213,1261,364,-1246,-771
918,2601,-3698,5534,536,1997,1265
919,-7152,-7430,-5585,415,-1438,242
920,7698,-1066,-7417,1095,-1193,844
921,-2200,2435,572,762,-1409,-68
922,-2631,2415,1184,1078,-1910,-977
923,-3924,-5974,1862,368,741,429
924,-5858,1897,-2871,-1824,1264,-449
925,-12,1695,-1908,-802,-1710,1986
926,3751,1915,5258,-1905,-676,1784
927,-1724,-1845,-7018,-986,-311,1091
928,2667,-779,-6224,-320,883,-314
929,5260,-5822,-3695,411,452,1502
930,-7683,1566,-2828,-98,830,923
931,-7908,5062,4703,-463,1915,1616
932,7962,2751,-6449,1605,-385,1899
933,-5682,-4012,5668,-858,-115,-1424
934,1542,-7930,-984,-400,-1940,540
935,1883,470,4220,-1343,-1812,-1848
936,1899,5792,6772,-460,-761,1842
937,2574,3898,-5876,751,-1984,-1352
938,1896,4824,2402,1760,643,776
939,-4368,7689,-7374,-1886,73,-1768
940,-44,4829,-547,-1794,256,-887
941,424,-5751,1823,1618,390,-310
942,5674,-6213,1259,1889,-1309,1230
943,1340,-1272,2986,918,323,1474
944,6959,4616,-6929,400,-273,-1598
945,2953,1232,-7964,1117,763,46
946,-6501,-4074,5648,-1388,632,1231
947,-6195,-1121,67,332,-703,1216
948,-4193,-3185,-6801,331,-168,1361
949,-2528,-691,-6377,926,-1051,-1054
950,2249,-4605,2575,838,1975,131
951,6224,3108,3702,-651,-422,882
952,-3252,431,5641,1743,1886,357
953,-6144,-4123,2361,1635,1424,-1563
954,1129,-4311,705,-1466,-780,-896
955,-397,-919,4678,-28,-1951,-1350
956,3184,-2580,-7135,-1795,-1461,103
957,-4644,-4291,-7959,-1838,-343,-1399
958,-1553,4931,-5540,546,667,-784
959,-123,1562,1318,-522,-1144,859
960,-4437,-1352,-7947,-1816,-541,284
961,5724,-3601,-6478,1128,1264,-535
962,-4482,-4848,-1557,669,-932,-129
963,239,6374,5190,271,759,-1365
964,1361,6991,-2884,-1744,929,-1095
965,7099,1313,7285,990,469,1418
966,2316,-7394,-938,724,1859,-651
967,-3584,2878,-5724,1497,-971,-1992
968,5517,-6668,-4203,266,1237,830
969,-3670,7283,-6732,1620,-1839,-792
970,3759,6189,5343,1149,809,1975
971,7455,-3980,-80,1259,1604,1919
972,-5765,-5570,2930,623,952,1709
973,6296,5904,-1524,1198,-1923,1563
974,1007,-886,-2337,1163,933,-1529
975,-6056,-1974,-2189,907,-900,-1887
976,6435,-656,-3182,-314,-1417,-653
977,-1255,37,2567,-372,-369,-1495
978,2088,6914,7614,-1625,-1218,-1106
979,-2321,661,2457,923,-1925,-317
980,-5934,-6291,-7932,1758,811,-771
981,-5348,-6775,2481,1998,-275,-915
982,4750,-6189,69,-598,340,-1586
983,5029,6340,1773,-1583,-917,34
984,7005,-953,-3729,1707,-1705,701
985,-3521,5933,-2901,-135,-1045,-924
986,-429,2655,4012,1914,-1009,-1463
987,-3177,-6655,360,526,-590,-1860
988,-6749,-6798,-671,-1176,698,391
989,2851,5327,5827,-1343,563,315
990,7885,-6885,-1385,583,287,799
991,-480,-7729,-639,-38,-63,-1951
992,-1631,5323,5793,-805,1150,-1232
993,-3767,5608,6662,816,-809,334
994,-3261,-6607,6740,-365,-1955,1232
995,7218,5033,-3045,157,-1357,-1453
996,5038,6900,7705,976,1129,54
997,-4641,-6720,-2845,718,-1875,-1420
998,-1696,-2189,5059,-944,-643,-685
999,-1437,5838,-6128,-871,-485,-1875
1000,3889,-2882,4997,-1444,1161,-511
1001,-2716,-1473,2917,-1464,-1805,757
1002,5729,-6438,-768,238,1909,-1907
1003,-7644,-5203,-7970,1901,985,922
1004,-4752,-1263,6498,-1283,-1593,-339
1005,-4282,-5201,-7053,795,-1583,835
1006,257,5724,2110,203,-183,608
1007,-3454,480,-7062,-1482,617,-1830
1008,-2225,-382,-5789,-1625,-548,1474
1009,-4253,-6528,-4858,1668,1701,-1403
1010,7033,-2965,298,-450,1055,-857
1011,7383,898,4599,1588,101,166
1012,-7368,-6785,-2915,-1314,552,-254
1013,-2300,-6888,1995,-1249,-68,-473
1014,6924,3842,-4788,-1881,-1073,1140
1015,3631,-5603,9,-1578,1736,-1737
1016,-6285,-5840,1084,1479,595,1101
1017,-3737,-1868,-1715,-1710,1100,1131
1018,4479,-5200,1518,-1320,830,1365
1019,6650,-5591,1725,-627,-1612,-1237
1020,616,6568,3284,-956,288,376
1021,-4704,576,5348,1242,-441,528
1022,6684,4065,-4080,-1642,-578,848
1023,2415,-3294,-6749,-1831,1253,1914
1024,-352,-4444,2793,1451,-1832,-1418
1025,6288,3233,1342,-1062,1349,1022
1026,7394,-7851,3198,-1190,1580,1507
1027,397,-2508,-1671,796,-1240,1625
1028,1868,2939,-4003,-534,-1400,-197
1029,-5205,7741,6636,1829,-1615,-1289
1030,-3531,4154,-7412,1626,-363,170
1031,1152,2979,-7016,1406,1956,1211
1032,4352,-1695,-7033,-1507,792,89
1033,-3257,4786,6921,1500,1075,1044
1034,4275,-7797,4773,-622,-696,407
1035,7538,2198,-7890,-592,746,-197
1036,-611,-6147,1389,1745,1880,-1386
1037,4184,1866,1688,360,753,712
1038,1095,2575,57,-264,587,77
1039,-1639,-4203,1943,21,-1247,-1025
1040,1749,-6803,3568,-1558,1041,-747
1041,-6048,-5572,-6950,1153,1000,-153
1042,6101,-219,-2993,1278,-1308,-115
1043,-1823,-1306,5464,-560,-71,248
1044,-5234,7361,6456,-1865,96,381
1045,5552,7462,7563,-1639,593,-343
1046,7618,5731,4207,442,-239,-209
1047,7480,4371,3900,-313,-100,1261
1048,4655,7605,-2557,-548,-738,723
1049,-2937,6402,6784,1259,-1798,-1995
1050,-6522,5478,-232,-366,-571,1293
1051,-7034,-1553,6987,-1902,592,1234
1052,-6021,-4922,-6335,-375,-420,1202
1053,-4452,-4156,6786,-1982,-595,-248
1054,-978,2354,4450,-1010,-1104,-1624
1055,1805,4667,3326,1996,249,-212
1056,-4267,2200,-1003,972,1341,-481
1057,3395,-241,-7038,1102,1434,-339
1058,-1493,-5060,921,-1725,-1497,1314
1059,-2134,5615,-5994,-891,-52,1935
1060,-3378,5089,5426,876,82,1018
1061,1013,1658,-3957,-1320,1602,928
1062,-168,2180,-6542,-644,-633,1801
1063,624,-7396,-7394,-1166,-1401,1568
1064,3527,4000,-941,1896,607,-332
1065,7676,3002,5061,-620,-1439,240
1066,3950,7231,-5840,485,344,-1542
1067,-3087,7498,-1559,-341,-1657,948
1068,1265,-6902,-6057,1234,-1712,-1700
1069,7719,6774,-3542,-209,770,1877
1070,-3195,3860,4459,-107,1668,-288
1071,-5708,4378,-7473,1934,-1266,1601
1072,-1883,-5608,145,-327,-40,340
1073,5251,-1647,3955,623,1716,-221
1074,-3353,-5870,2803,590,-1450,462
1075,1086,-8,-6779,-851,1200,1063
1076,7276,-5425,6963,-435,-690,1287
1077,6005,6370,-666,-1212,420,958
1078,-6925,3014,-7555,567,822,-1932
1079,7888,3634,-4591,1582,-1089,1747
1080,-1125,6846,6011,1437,-371,1505
1081,3617,1644,-4480,1986,873,1599
1082,271,4457,6128,1473,274,-656
1083,-3040,-7980,-6966,-756,-706,1260
1084,-1575,-7210,6107,517,363,-613
1085,-7334,2914,4135,652,548,1426
1086,6749,-2953,-1814,-75,345,-1496
1087,5557,-6487,4980,-1543,-109,-1621
1088,-53,-1329,5201,-707,-85,765
1089,-3333,3979,-4806,1312,1537,755
1090,7409,1882,3927,-373,1662,1393
1091,1170,-2455,3365,-995,449,-1301
1092,-7351,-4020,5079,1159,-1039,-4
1093,-6767,-5824,991,58,61,-1030
1094,-3909,-5879,236,1137,-1831,57
1095,3008,-3380,-3288,-1718,-512,1697
1096,7162,-1334,4998,1366,111,-83
1097,-1961,2783,3690,-1482,622,-1367
1098,7079,-1803,-3255,-758,-1244,-887
1099,7147,-7597,2635,-1150,-828,410
1100,-5171,-610,5510,-1472,-1427,1166
1101,-1459,-1266,3684,1819,-531,-1581
1102,-1329,7676,5280,1603,1302,1463
1103,-2135,3119,7431,-1987,87,292
1104,-3564,-6223,-2221,-1805,-1847,840
1105,6070,1554,1114,1665,1015,-1833
1106,245,-5381,6635,884,-513,-1107
1107,-1002,-603,5411,-1466,90,-895
1108,3973,-1730,-2404,1799,-1511,488
1109,7050,-4203,-5404,280,1414,-1844
1110,-1008,-7682,-2216,248,-706,-1664
1111,-2175,4679,1533,-1298,-1505,-652
1112,5439,-653,-5955,-1027,-137,-719
1113,-3389,-6705,3623,-79,679,518
1114,6954,35,5028,1989,-81,902
1115,5606,2620,-2416,1979,-731,952
1116,-6115,5823,2748,492,83,-1145
1117,6298,-2318,-6999,1657,358,-1997
1118,-5959,6580,5948,1966,-862,-764
1119,4233,2090,-5812,-1212,1310,587
1120,-3920,-4674,-820,647,-382,-1386
1121,-2841,5998,7904,658,-146,1846
1122,-6241,1221,-7605,-1360,948,1231
1123,4144,131,4653,795,1663,1214
1124,-7176,5050,-6434,1868,1216,1380
1125,5760,2334,6136,-591,18,-1269
1126,-5107,5210,-5335,1842,1940,-1331
1127,-5282,-3469,4691,1123,328,-1524
1128,-6555,3559,-5070,152,-775,-107
1129,-1581,-3226,-4379,334,-1480,1805
1130,5261,4662,4612,518,-1058,-358
1131,-1472,-6011,4316,-1088,-225,1825
1132,-1630,-4840,5786,1571,-1898,696
1133,-4980,7106,5561,-139,-212,-557
1134,4655,-4436,4201,375,1807,893
1135,2829,-1754,-7511,1500,1314,-1539
1136,-5860,2339,-4520,-1274,446,476
1137,-1461,1392,558,-1979,1821,1462
1138,6024,653,4104,-1832,-1132,898
1139,965,-7283,5997,-1049,-356,-386
1140,-394,-7083,3305,-1114,550,915
1141,-5728,-4197,-2283,1101,1292,-961
1142,2243,5538,1041,-1616,-555,1798
1143,-1003,3230,7555,934,-306,-253
1144,-6430,-1467,497,861,999,-951
1145,-2663,878,511,1989,-297,258
1146,-7091,-4095,-4118,-1935,1583,1705
1147,5655,3221,-6651,-1766,-81,-1681
1148,-1453,-6197,-1598,-378,-413,1910
1149,-6901,-4948,937,-1514,-534,135
1150,1931,-2084,-347,-907,1391,-286
1151,3314,-520,-5915,1088,1494,-1126
1152,-3112,-7611,2682,492,-1721,1718
1153,-6927,5627,-501,896,-96,576
1154,696,2256,1394,482,501,-1086
1155,2966,-1709,-7824,1663,1849,-826
1156,-1138,-4864,3196,551,-515,-1832
1157,5435,1289,-621,-1990,722,1056
1158,-1980,1906,3412,240,-1799,1294
1159,-2063,2945,5930,-1240,1692,-1740
1160,263,3752,759,610,-855,-811
1161,7241,-2955,3597,-1181,-1670,627
1162,-4818,-4298,-1310,1150,1780,1209
1163,2220,27,5149,-1553,1273,597
1164,-2439,1611,-2342,-1102,-1567,-1949
1165,7451,-4794,1860,1126,-1107,-144
1166,7383,3180,-3775,469,1139,1317
1167,-5334,-7262,5837,-612,-1407,424
1168,-1309,1389,-5228,839,-733,1459
1169,-4717,1250,1716,-1756,1313,582
1170,327,-2970,-2517,141,1418,1038
1171,-456,5952,-2058,-636,910,1546
1172,7688,2428,-313,1105,1166,1472
1173,2774,-4570,4958,-1999,-975,1754
1174,2952,-6054,-1792,1123,-1924,781
1175,-4146,1037,5937,1842,-1222,-558
1176,5623,2741,7562,-954,1204,-476
1177,1963,390,4573,-122,-1621,1865
1178,1994,6198,3834,1522,409,-1958
1179,-483,-6704,7821,-1833,-378,1683
1180,2675,-3047,-5360,-1668,332,323
1181,2523,6352,3008,-1820,1194,-423
1182,6708,6767,4264,-1392,116,983
1183,-7811,4269,7711,-1443,6,-620
1184,-6239,-5517,7833,-765,799,999
1185,-985,-5347,-4450,-1535,-1659,-1576
1186,5388,-2323,3412,1450,234,-320
1187,-727,-4860,3469,-62,1386,-104
1188,-4783,682,-2821,808,-1005,-1138
1189,2609,-6612,6987,1091,-1077,-671
1190,-1757,5473,4195,-24,253,-1010
1191,-7858,7285,-5126,-1335,169,-1958
1192,-5665,-1065,-6937,1168,-1712,920
1193,2916,-581,-2307,819,-494,-662
1194,3198,7261,-4231,-1830,1122,-191
1195,-7427,-1554,-756,-1027,-751,-55
1196,-869,-1815,2645,-305,1762,-1866
1197,-3253,-1031,-5552,-1284,-1973,-344
1198,6516,3150,-6082,-1492,865,649
1199,-6291,7285,5840,-636,-593,1741
1200,-6303,-6118,-7362,-47,452,-1532
1201,-1732,3582,-3455,-1123,1641,1638
1202,4409,4141,5363,256,-1783,-1639
1203,4042,-7342,-1137,-13,187,-1603
1204,-4503,-6448,3553,-1804,1785,23
1205,5561,6362,3795,-580,10,959
1206,6951,-5822,-4250,555,1960,228
1207,7205,-3688,-5393,-387,-1668,407
1208,-3599,-5712,-2977,1904,-1551,383
1209,-5760,-6450,3130,700,848,93
1210,-695,-3963,3419,322,279,343
1211,3679,-1606,-6751,11,-1091,1760
1212,-2667,-1495,7643,-605,582,-487
1213,-6758,-7305,-2631,1638,1686,765
1214,-6703,-3065,1230,-1302,-93,-606
1215,5607,-5851,6465,234,1475,1822
1216,-5450,-2830,-5348,-799,1251,1782
1217,-3001,-5607,1415,-637,-1114,368
1218,-4937,-2501,-2911,-1354,874,1146
1219,1369,-2300,5650,-1197,-1187,1262
1220,-7455,7923,-6875,-493,-645,264
1221,4503,-624,-4854,562,-78,553
1222,-6703,-7923,1369,-494,-535,-716
1223,4639,2489,-6283,778,1368,1466
1224,74,2389,6519,-333,554,1823
1225,2207,-7895,344,732,1577,-476
1226,-4582,-4565,5136,-1197,-849,1288
1227,-280,2004,-2986,-1757,595,-1884
1228,-6021,-1225,-4265,1664,1399,371
1229,2653,889,3466,1311,-158,1951
1230,-613,639,4242,-1892,117,-1620
1231,7442,-3684,-5549,-230,475,366
1232,7398,4344,2088,-1631,-1942,1774
1233,4227,-7267,-397,-1214,411,-86
1234,1262,7681,7532,-1703,1043,1249
1235,-6932,-2041,4182,1958,958,1027
1236,6744,-1933,7532,1368,-2,633
1237,5220,-5752,2004,1234,1516,-1665
1238,-6497,-4650,5119,1765,54,1062
1239,-1469,6771,-2182,-126,-458,-822
1240,-2273,-2264,7433,-13,-512,-964
1241,-6447,3726,-6856,-1905,845,-586
1242,-4309,5863,-2353,238,1795,1159
1243,-1991,1125,-2437,1958,-1241,-1350
1244,-1524,-6692,-1829,-532,1007,1800
1245,-7183,-6646,4588,-686,-1664,1907
1246,-3500,3483,-447,988,1786,1990
1247,-5659,-5173,-956,509,-631,-947
1248,1218,-4118,-5506,578,1395,752
1249,2174,-7955,4766,1915,-1080,-81
1250,-2114,317,187,599,597,-240
1251,1835,4635,2657,938,-1387,-1302
1252,-5181,1712,-3717,-539,7,-1416
1253,7813,4087,-2248,615,-714,449
1254,-533,-2202,-31,964,74,-1888
1255,-4584,2597,2787,47,-1030,-1824
1256,-6363,-3137,-6152,-1276,-1824,-1629
1257,2161,-1871,-4645,1994,-646,532
1258,-4043,3338,-409,1040,-1222,-829
1259,2880,5956,4935,472,-1075,1395
1260,3613,1056,3782,-71,1529,1852
1261,-6694,-4449,1297,487,826,-744
1262,-6523,-1791,-3874,-1584,121,-375
1263,-2444,5866,-4652,1985,1160,261
1264,3315,6154,-1798,1868,-738,-443
1265,-454,-5944,3867,1279,-1821,813
1266,6370,-2788,7703,654,-257,-1995
1267,-4999,4888,1457,1867,1452,-283
1268,4174,231,-5,523,-1942,-911
1269,5504,-4422,-7984,1385,823,428
1270,4122,-795,-5102,-68,-1474,-1276
1271,367,2579,7225,385,216,879
1272,6418,-4250,754,-822,-356,1009
1273,5166,-4332,-7690,-733,-238,704
1274,-296,7840,-637,251,1716,-1488
1275,6843,2586,3602,40,-1988,-435
1276,-4477,284,1020,478,-1806,774
1277,2808,-2853,7736,-349,1060,-626
1278,-4839,6401,-4760,917,1340,-938
1279,-1598,-3040,193,1622,-1487,1099
1280,-7459,3977,5360,502,853,-296
1281,-2064,-339,-1230,452,538,-946
1282,-4314,1156,681,-1308,348,-1761
1283,7185,978,-864,1519,988,1697
1284,-5284,-3338,-2848,-1057,1534,171
1285,-1461,881,7411,1392,-305,-1139
1286,-5664,5128,-1526,-1372,1649,560
1287,5000,-4007,-5095,-1815,-531,-571
1288,5456,3937,4292,-781,-1605,1627
1289,7617,2186,2882,-1184,354,-96
1290,-7462,186,-6024,1117,1199,-559
1291,-1678,-6292,-3190,-452,-1385,567
1292,-4613,-2873,-6145,669,219,912
1293,-1992,-92,-3853,1822,188,278
1294,-6419,-5297,-1237,-670,-1861,-231
1295,4548,5784,-2005,1588,-1519,-1682
1296,1667,-6474,-7280,62,-1965,933
1297,-7173,4791,7311,-1683,-522,761
1298,5546,378,5800,-697,329,-1806
1299,1217,4046,7554,700,-484,1092
1300,-4271,2832,7530,1721,356,1029
1301,-2556,-5979,183,1075,1473,1298
1302,1847,2073,-1022,-1396,-727,1039
1303,5991,4164,1433,908,-1374,1176
1304,6852,3505,-4749,-1921,772,-1930
1305,5515,3154,-6309,-857,1312,508
1306,463,7974,4048,984,-949,-1763
1307,-4538,5929,-2803,-1075,1012,443
1308,1728,-5822,-628,-135,567,-390
1309,5853,-3780,-6198,-651,1138,1389
1310,3950,6260,-6949,1418,1644,-937
1311,-1387,4619,126,-1354,1372,-354
1312,1644,-3236,-3199,1501,-419,811
1313,-2557,-1948,-7910,1939,-416,-848
1314,-7647,3636,-2283,1397,-998,-1611
1315,3368,4094,2629,-1641,1643,-811
1316,5654,-6705,-2428,-437,542,-82
1317,1683,-7837,-3824,876,-608,195
1318,-3501,4521,1105,-1838,-701,-993
1319,6797,-2904,-3008,1287,-707,-681
1320,2939,-2871,3663,-350,1317,104
1321,6484,-1138,7445,122,534,1476
1322,4942,-4051,-1852,1278,-1542,-1278
1323,-6803,-4406,-437,-881,1651,1570
1324,-7622,-5309,-2859,-1602,-949,1840
1325,-7711,-4536,-3048,1196,-316,-137
1326,7486,1232,-3730,509,204,-1543
1327,527,-897,4439,-1886,-1994,-1652
1328,-5438,-6579,1549,-761,120,-879
1329,234,5742,115,1821,-1647,-1440
1330,3882,-3865,5426,-1704,-1303,-104
1331,2835,-6576,6705,520,-885,-984
1332,-5748,-6612,-5907,-1907,-770,924
1333,3292,2366,-3316,1595,1198,1728
1334,-6743,-2913,1068,-283,-918,400
1335,-28,-7983,3190,1431,-57,1337
1336,-2585,-5420,-5753,-75,-618,201
1337,-2988,7598,831,-1320,-1577,1110
1338,4805,790,1899,-919,-93,-720
1339,7993,-4491,6700,827,-991,935
1340,-3360,7363,-5,-325,1787,313
1341,-6238,3959,4084,158,901,-693
1342,-2964,-44,1431,723,763,-1124
1343,-3917,1976,4595,12,806,-785
1344,6049,6581,5107,963,-234,-1161
1345,3630,-5945,7510,-1022,1530,-1243
1346,4283,-273,-5892,1789,-688,159
1347,-6012,-7406,-5035,1593,-1141,-917
1348,-3316,-7116,6017,934,-381,-496
1349,-4881,3298,-2559,601,669,-1268
1350,-2641,3141,2589,-650,-1350,1064
1351,-4880,-4273,4518,921,-728,1101
1352,5942,-5991,4711,-1163,710,-1110
1353,5293,380,-2863,-150,-114,183
1354,-4677,-5793,-558,1745,1786,761
1355,-3397,-3961,-342,-434,447,1734
1356,1426,7485,-6678,513,-740,-1382
1357,-6034,3912,6486,-1916,380,-59
1358,-4529,-7831,5777,-1017,-822,-1650
1359,-6360,5118,2696,326,-1311,-1998
1360,-2113,1587,-3160,-540,-1776,1802
1361,2115,5401,-4196,960,-68,238
1362,2733,-7541,-421,-1297,-1439,-405
1363,7508,630,-371,-142,238,-1782
1364,1468,3510,1508,-274,1403,-614
1365,-2533,-6756,-663,809,1459,-665
1366,-7342,6192,7366,436,-522,498
1367,-3300,3613,6579,-1849,1691,-278
1368,-7384,-5887,-5222,1116,-288,-1502
1369,-4683,-69,-7136,-279,724,791
1370,4279,4193,1515,1959,60,1248
1371,6218,3030,-7585,-366,1687,-556
1372,-822,7582,4928,1155,334,527
1373,-7607,-1630,-5110,703,249,-644
1374,890,4068,7648,-902,-1371,-1264
1375,678,-1319,3997,693,0,-1054
1376,370,6234,4131,-579,-339,33
1377,-5610,5688,7393,-1417,-680,-1144
1378,-5275,-122,-6353,-104,-1843,1567
1379,6791,-7657,5980,1187,699,-1400
1380,5261,-1559,-2941,-758,-293,1607
1381,-865,3009,4591,-1999,1794,-1307
1382,-5044,2876,-318,1209,-1700,674
1383,7861,5215,87,677,278,-1411
1384,-6341,6962,-3714,1843,348,1009
1385,6547,-6799,-3,-678,-1496,-311
1386,-7264,3707,5602,-952,1769,28
1387,-4401,-612,-3302,1349,-1512,1575
1388,-1551,-2641,4393,-279,-1921,-337
1389,6717,3448,-4955,1942,-1384,-528
1390,2659,-5936,-6541,-56,923,-1941
1391,-588,170,6491,-535,-207,-1431
1392,-1701,-1628,-962,-1666,-676,-1735
1393,-5811,-3899,459,-1352,-1627,-1529
1394,-5034,7396,723,1478,-1586,1672
1395,7233,-1772,-1216,-1293,362,424
1396,1262,965,-2691,-603,-1940,595
1397,-2926,-6501,-496,664,337,-1122
1398,5038,-6426,6419,-709,-171,-895
1399,-2161,296,-1894,1353,883,1330
1400,7786,-4694,-2014,618,1479,1808
1401,-3372,2061,-3804,-1825,-278,-1004
1402,3717,7713,6296,1255,1427,-725
1403,-881,-4581,-1786,91,852,1256
1404,-1127,2179,-2595,-1049,-677,1941
1405,7674,7096,4747,-1062,1930,871
1406,6067,-1027,-6174,656,-1787,-1216
1407,4714,2719,-3751,-1672,1592,-1291
1408,6843,7062,-2770,5,-1606,-1440
1409,-4625,2178,7741,1925,-775,819
1410,-4755,6730,1156,-318,-57,1268
1411,4431,5104,2732,172,1200,867
1412,1926,1327,-3807,336,-1833,1009
1413,4049,4555,-456,-171,1556,-1505
1414,-3700,2429,118,128,-1930,-278
1415,7944,-7087,-3855,-589,1384,-1458
1416,6607,-3138,5024,1403,637,-1993
1417,198,4449,-1521,338,-1583,-1521
1418,4121,2695,-4630,1050,-1978,-1957
1419,-7284,135,-2491,-1180,894,520
1420,1006,4633,7420,-1647,-1842,-1296
1421,-4139,-4377,2044,-112,1301,-91
1422,4475,5765,-6249,1760,-1085,1127
1423,7967,6839,7373,75,841,568
1424,412,2020,3137,1728,-307,1383
1425,7385,-1954,-5809,1699,305,-400
1426,-1514,-2936,-7292,1585,396,-1595
1427,-5992,-2253,-4501,1460,1652,484
1428,-6285,-3330,-7046,197,-63,-895
1429,-7266,-565,3327,-1830,1435,-1176
1430,-3673,7621,-1020,-1716,-577,-1645
1431,-6773,-4356,3885,468,816,1270
1432,2663,-4529,-6851,-334,328,-967
1433,-1973,4552,4690,1399,-1292,-961
1434,-2745,-2751,-7086,-1002,-506,-1059
1435,-4441,3579,-2854,693,1452,629
1436,2168,-1025,-1658,1909,451,-1885
1437,-2823,4442,3742,1258,-1896,469
1438,-1652,6646,1010,-932,-940,274
1439,-3912,5469,5462,148,245,1394
1440,4833,6393,4798,-1758,1186,-1341
1441,4384,-7481,3031,1400,397,-1756
1442,-1184,649,-5780,-1081,-1219,-1263
1443,5864,7804,-6498,-400,-517,1400
1444,2705,-7610,-6459,66,-790,-1620
1445,-172,4052,3247,-1300,-471,-998
1446,6310,2120,-2888,236,-1483,1950
1447,4188,6743,7525,268,1775,1849
1448,-2210,-2712,-2360,-778,1956,1176
1449,1448,-1603,4885,-844,179,413
1450,7540,-7850,1327,-1410,236,-247
1451,1645,-3620,-5463,-11,-411,-1096
1452,7645,7429,-5921,-182,-445,1053
1453,-3657,-3438,-2889,690,690,-1488
1454,625,241,742,-1509,1398,-807
1455,-5323,4625,7984,1136,-1560,254
1456,-4679,2603,-7825,-1518,-838,463
1457,-1676,3933,-1036,1630,-1344,816
1458,-3051,5615,1957,-1519,-1944,-707
1459,6948,-3015,-4693,1612,-1498,-471
1460,-6373,7513,-6309,-897,14,-125
1461,-4916,-7041,-1475,1081,1729,-1769
1462,-3121,-786,68,1802,-180,-278
1463,-5486,900,7804,-1543,-1808,1224
1464,-2800,-3488,7635,1014,934,-340
1465,-43,-7754,-1187,267,-1204,-1706
1466,-1556,-5960,4330,-167,-1386,-647
1467,2048,-6705,50,1419,-1817,1642
1468,6212,6701,2625,-409,-1240,1335
1469,1898,227,3165,650,1918,-406
1470,-1835,4285,-7933,-1632,-1879,-1392
1471,1980,7695,1471,1960,-1894,7
1472,5490,6033,-6197,-1282,-1591,-1824
1473,-460,-4566,-3572,714,-1309,267
1474,-2524,-5360,-1441,353,435,1945
1475,-3644,-7633,-2802,-742,594,8
1476,6409,-1257,-3390,-1770,-171,-23
1477,-2089,-1005,3832,265,282,661
1478,-4356,871,-3771,760,-1569,1153
1479,-4147,3489,-484,-1509,-1803,-831
1480,3648,4396,1807,1026,176,461
1481,-4058,2387,6467,641,-944,1974
1482,5813,1035,7703,-1053,558,-321
1483,7346,-378,-6751,-1073,669,-1631
1484,7814,1400,4367,1059,-843,911
1485,3584,1516,-2407,-1312,-528,-429
1486,1785,-2327,-7633,310,1364,-355
1487,-7186,217,-935,-430,-1346,628
1488,7069,-1474,5143,-1227,-1596,-1238
1489,-6975,7679,-3815,1273,-1017,713
1490,-5337,-5606,-5663,1561,-99,1113
1491,4160,4812,-351,767,-1741,-1091
1492,-7978,6871,-6744,-1486,1511,1088
1493,6972,-7261,5474,1156,1409,-152
1494,-3018,5314,2154,1477,1803,548
1495,-31,-2850,4259,-144,1278,-1073
1496,-5706,2645,2909,444,-1188,-1940
1497,-795,3907,1133,-1891,1786,-357
1498,-1947,-977,-1152,-81,-1294,767
1499,-552,-4539,6448,1424,-1555,-1784
1500,4788,249,-6280,252,1808,1254
1501,-2899,3704,7487,584,-789,1580
1502,7778,-6210,2532,-1340,-103,-778
1503,78,3087,-1782,1753,1041,-1323
1504,-4586,-1225,5220,-1475,1298,1966
1505,4807,5928,3289,1145,-167,432
1506,7870,-1858,-6420,287,619,1194
1507,5699,-4105,-5255,1329,-1800,-1824
1508,6837,2309,1418,-1381,-1839,1989
1509,2788,113,-7232,-1893,1830,-816
1510,2204,-4098,-4790,1999,-264,-1362
1511,-4573,-4896,-6227,-513,-940,-377
1512,-6738,5278,7174,52,937,-1531
1513,-2121,-5486,-7985,1527,1154,114
1514,899,2863,7317,-897,-897,-559
1515,-4604,4137,-4001,-1416,-569,-576
1516,2102,-336,-1596,-255,74,1489
1517,656,-3481,457,97,1114,-1548
1518,-7521,6895,-6532,525,-30,806
1519,2714,-4593,5927,104,-723,-402
1520,2928,-89,4956,768,-280,34
1521,-3600,6761,-4857,-1479,1244,-1104
1522,-5426,-6246,497,107,-380,-880
1523,1884,-2372,-5014,1106,518,1010
1524,5099,-6867,3731,1611,-508,1680
1525,-128,222,-7575,696,1472,-1747
1526,-5247,-5576,1473,-1989,932,-481
1527,-3858,1377,6326,-1289,-18,-562
1528,-5513,3032,-4985,1712,-844,428
1529,-2247,1527,-4478,-1228,-1182,-1693
1530,-6779,-691,-6643,292,1768,-939
1531,-1288,-2635,-1850,1337,1694,1331
1532,3530,618,6639,-1884,-1560,1744
1533,-1341,7417,-6427,-980,-1710,-1033
1534,-2600,-169,7705,680,-977,1096
1535,-6265,7820,6648,321,-1414,219
1536,1562,6905,-7144,565,482,-1572
1537,2938,3080,-3701,1903,747,-78
1538,173,-3124,2757,692,-1139,721
1539,-491,-3782,4672,-238,-1873,1974
1540,-7873,-5119,-726,-83,703,-1551
1541,7272,-2013,2333,392,903,-1642
1542,1225,-490,-5021,156,371,1961
1543,7536,5982,-1857,-1871,1604,-582
1544,6728,-4670,-3751,-1046,-1759,1520
1545,-5748,-574,-1963,210,-1790,-1475
1546,566,1297,-862,233,1165,-84
1547,-1647,5690,7334,-616,-771,-156
1548,-2759,-2182,409,1275,489,378
1549,2029,3404,4661,1966,-1403,-1893
1550,3867,-5704,1896,-1776,-867,1298
1551,2413,5685,5922,624,561,940
1552,1656,1183,2113,1858,-971,890
1553,-303,-2279,3433,-1198,1986,49
1554,3983,-7558,-1639,22,1672,-696
1555,-1832,-7061,4899,890,1553,1712
1556,3041,6954,1335,-1047,1270,754
1557,-6789,5300,-6122,-1754,323,1740
1558,533,7327,-2371,-878,1849,265
1559,-3353,1583,-1557,188,-1807,-1688
1560,425,5814,7822,1671,-330,-501
1561,-7324,-47,-1672,-1815,628,-641
1562,5677,-1311,4806,-1063,-1664,221
1563,3607,7378,2457,-1646,81,1931
1564,-4810,-5579,-7065,1633,-1073,1261
1565,-7742,7239,-4303,-1927,-1329,1779
1566,-2899,-3255,-1957,1978,1158,-1043
1567,5539,2775,-2366,-712,191,-1597
1568,-7439,-4747,-4787,1687,-990,-1635
1569,-3432,-5578,-1820,-271,103,-522
1570,-7153,-4928,-161,913,1400,975
1571,4596,-528,-3619,381,-609,963
1572,7738,5881,-7070,-1222,-1530,1342
1573,-4157,-3785,-5002,-1063,1032,18
1574,1384,80,1291,242,-1757,-993
1575,2897,425,-1925,579,797,-1125
1576,-469,-1280,6062,-1431,-620,-1974
1577,1416,-3076,-4969,-136,1176,1490
1578,4861,3056,-882,1229,517,1113
1579,5796,7030,-1149,-1077,1590,797
1580,-4390,-3993,4942,-122,896,1001
1581,-5602,2193,5664,-1158,352,80
1582,51,-543,5496,811,-388,1992
1583,4699,-4612,-3579,280,322,-450
1584,7492,5313,-1969,116,1612,-1909
1585,-2187,1731,7480,1396,1391,-937
1586,3942,-5326,-1061,1371,418,-387
1587,-5705,-3225,-26,-1422,858,-1342
1588,3528,-4105,354,531,566,-752
1589,-3934,3607,7999,-1181,1649,-1796
1590,2928,7150,-790,1083,415,-1737
1591,7083,-4288,2028,1286,-149,-873
1592,2273,5350,4944,1357,-445,-518
1593,-4420,-2575,6981,1218,-74,-389
1594,1622,3533,-5740,-1647,-1760,746
1595,-5186,2749,-997,747,-413,-129
1596,6086,3146,-4762,-896,1677,1266
1597,2026,122,-7295,847,809,-1609
1598,-7658,2626,-3346,1200,1826,-158
1599,7980,1366,2457,1258,1001,1809
1600,-2246,-3257,-4664,-1515,1767,-1953
1601,-4252,-5572,-5655,589,-1407,1407
1602,4374,4176,-7728,-1218,129,1290
1603,1751,5143,1923,930,467,167
1604,2885,-1916,1917,1346,-750,-591
1605,2466,7324,4031,-786,-1092,-972
1606,-5165,152,-2226,1453,-1318,612
1607,-4260,-6613,2820,616,948,1776
1608,-6714,-5602,-1152,-496,-93,-259
1609,-3808,-6460,3116,-1465,1931,117
1610,-3853,1190,7233,518,313,-1513
1611,-1737,-2167,-5392,-843,-414,116
1612,-6588,4360,-7546,-799,1478,977
1613,4788,5467,-7367,-1658,691,-717
1614,7232,3844,7477,-188,1532,85
1615,-3000,-4852,-4525,-623,-1571,-1031
1616,6248,6151,-6300,-68,-606,-1053
1617,-1955,6618,-3282,1851,1698,-1273
1618,-413,-810,7734,1931,-1451,-1780
1619,-6402,540,-982,675,763,-1370
1620,4606,4440,6952,-53,-1897,-797
1621,7054,-7599,-4789,1843,405,725
1622,3796,5173,4478,644,-522,-1682
1623,-5310,1527,7651,568,-1281,818
1624,-5988,7248,-2507,-1789,335,-886
1625,-4817,7969,-524,305,-1457,-1400
1626,-4158,-1545,587,1380,-1927,-197
1627,7548,2324,546,-1145,-1623,1665
1628,-5920,-7381,986,1133,1145,-1588
1629,-5031,-3431,-7305,-1335,467,-1061
1630,3128,-5096,251,-488,928,621
1631,4604,-4075,-1716,-1175,1682,20
1632,6010,-1290,4024,1303,1415,136
1633,4510,-6935,-2920,538,-75,-272
1634,1634,-4440,3684,-187,833,-35
1635,4917,-3220,-3851,-889,1164,258
1636,-5685,-2459,-4426,-786,-600,-1941
1637,-5439,-7326,2175,-1125,-859,-915
1638,-297,-7970,-5897,20,1864,-1014
1639,-3628,-6916,-7364,-1736,-1708,-154
1640,6773,-7994,-7899,1413,-904,-1118
1641,-5611,-4331,-496,-1356,-1329,438
1642,5556,-4859,-695,-1496,-1132,-1756
1643,-2615,4149,-4242,1437,40,711
1644,-218,7427,-69,420,621,890
1645,-5999,-5834,578,-1959,-1315,1818
1646,-328,6860,-6224,71,-968,-1035
1647,-3973,6167,4004,699,525,1229
1648,5920,6884,-2668,997,1632,-994
1649,-2698,7965,-257,-719,-1718,-1301
1650,1251,7867,-6910,34,-495,1626
1651,7052,6149,-4171,898,1966,582
1652,-5312,-4769,999,-1359,-1338,100
1653,5257,-5888,794,-1124,-1088,1386
1654,-2646,-6516,-5269,-879,-1032,89
1655,-1019,4597,-5693,903,1541,-845
1656,-4980,1870,-2060,-703,962,-602
1657,-6764,4227,-1587,-1636,1517,1838
1658,-6551,-5306,2838,-738,690,269
1659,1966,-5062,-3837,760,-1113,1881
1660,1433,5257,5979,-1413,-688,459
1661,4008,-6424,-680,1544,-298,-589
1662,-5222,-3045,7025,-1866,1995,-784
1663,301,2024,7571,-100,255,-1058
1664,-842,2742,2003,-1245,1266,-1423
1665,1351,-7805,2012,-296,-1121,777
1666,-1289,5601,-2305,-682,426,-281
1667,6596,1433,-3859,-1337,-1666,391
1668,-6719,6638,-452,1312,-1905,997
1669,-5741,310,-3416,-826,142,183
1670,5574,-7340,-1428,1260,-82,-657
1671,7033,1938,7308,1534,710,147
1672,-7288,-1932,-5787,-37,-909,-1294
1673,7127,-2970,-7188,504,701,-657
1674,-1263,5891,-2760,-1619,-518,1870
1675,1092,2572,7791,-253,514,-701
1676,-3154,-458,5283,1744,-1558,1642
1677,6285,3425,5331,-1859,1447,868
1678,-7990,-901,4678,1597,-745,1888
1679,-6875,5969,-2621,864,-1975,1673
1680,-7856,2713,3760,-1719,1674,-1314
1681,-6394,3526,-4267,1021,-284,1703
1682,6468,-6314,1246,-1555,955,-1038
1683,1546,-5631,6642,-842,146,229
1684,3654,5625,-181,-1237,-827,78
1685,-1450,-7767,-2912,1140,-312,-1644
1686,6573,7104,1774,-1237,-215,1275
1687,117,7699,7,-135,-1261,-99
1688,-7810,-6273,-2828,1559,-399,35
1689,1094,4943,2002,-1485,67,1971
1690,219,5100,4118,1108,982,-939
1691,1859,2539,-4058,-1775,-1171,762
1692,5995,2382,3295,174,-1802,1071
1693,-5402,-4478,6167,-1949,-1511,870
1694,-6922,-2877,-650,1501,-1139,297
1695,-6565,6222,5722,1684,-168,-1375
1696,2716,1941,6769,-779,-25,1764
1697,-2103,-7175,6696,67,-1612,945
1698,3150,-6146,-7914,-1067,-1500,-676
1699,2434,-1289,-7607,1430,1467,1987
1700,-2701,-2885,-3015,-37,302,572
1701,7158,-2200,188,1169,1270,1453
1702,-7408,4659,-126,633,-1424,-1905
1703,-769,-83,1864,-1550,1551,259
1704,-777,-2552,-4788,-567,-19,-951
1705,-731,641,-4226,-1766,657,1658
1706,-2183,-4077,-1944,1257,929,596
1707,-4913,-3590,-6433,448,1361,-1511
1708,1395,-3085,7988,-667,272,-1125
1709,411,-6101,-4357,-13,-851,-150
1710,-685,-1643,-7941,783,513,-886
1711,-5122,7787,3559,980,-1844,1028
1712,7869,6375,5170,1255,-1136,1735
1713,4804,7649,-5694,1788,-933,-747
1714,-2846,-6814,1545,1783,664,923
1715,4410,4163,-635,-82,-800,826
1716,3251,-3846,-2296,-540,1586,-870
1717,6771,-2457,-60,1124,1170,1988
1718,-1682,6811,4907,476,-548,-542
1719,6103,2684,5688,1215,-621,938
1720,-771,-875,-943,-1899,1807,311
1721,-3528,-2579,5419,-1020,-681,-1900
1722,-4651,-7152,3908,-1209,818,-1913
1723,-318,7225,-7272,633,-938,692
1724,2153,-2534,-2396,-720,-179,-1229
1725,-5545,-1922,-7801,-950,-445,-1313
1726,5739,391,1021,-1174,-1911,740
1727,6731,-5418,-4140,1192,870,-272
1728,-3356,-6433,2560,-1408,1318,-1830
1729,4194,-491,-2289,-1199,1546,831
1730,-4973,1179,5404,1741,-529,-1567
1731,1969,2409,1431,1905,-264,1230
1732,-4676,3451,-3678,61,839,-271
1733,-2067,4528,-4436,1204,-6,556
1734,-1985,-7030,-3307,-1909,713,-140
1735,-1087,3265,2567,-1643,-12,1794
1736,-7868,6755,6163,746,1937,1911
1737,-2726,5456,6953,1133,-1210,-332
1738,-3211,-3091,-2825,1649,-1293,-159
1739,-662,-6421,-6343,510,367,-459
1740,2360,2460,-5434,-566,-145,128
1741,917,4175,-5493,1565,1203,-384
1742,-1055,2075,-683,-511,157,-919
1743,1389,7090,2108,-395,-1926,1300
1744,455,3421,752,-1166,-999,1650
1745,4559,-6620,-3196,-578,-1109,-990
1746,6794,310,-515,-1616,-1009,288
1747,-6522,2054,7360,-1365,659,-983
1748,2179,6308,1355,-1179,1271,119
1749,7129,-5418,-2667,1170,811,-316
1750,-316,4590,6230,1979,-1924,-702
1751,-6193,3021,-5024,-1459,-730,1323
1752,-3835,6664,-691,-1406,172,635
1753,-333,3515,2631,806,-1545,-726
1754,4156,-7979,-6273,154,-1363,-1122
1755,7738,-4444,-608,-1959,1400,-709
1756,3121,-1546,7936,495,-93,1666
1757,590,908,-3243,589,1940,997
1758,-3727,-8000,-2221,-1035,1401,-288
1759,-7601,6390,-7074,1456,-232,-1501
1760,6418,493,-5887,1412,527,1861
1761,-7893,2654,-3352,464,-1034,215
1762,-4483,5740,4071,-1938,672,-1014
1763,-7431,7720,-5639,124,251,413
1764,2899,6145,-2852,1722,-1084,384
1765,2512,-4045,674,912,1322,-1395
1766,-2327,-2931,-4853,-1725,1749,862
1767,1994,6290,5348,1926,-311,-506
1768,-3951,-410,-2459,-1506,-124,1960
1769,4684,6372,-3720,-1659,653,-625
1770,-5180,-5188,-7516,-1849,-1148,-1718
1771,5534,2355,-4487,-1302,-1846,722
1772,-3609,-4276,-5141,623,1825,-1949
1773,490,-3336,5285,1743,-1190,860
1774,-4820,-3981,4927,488,1937,1229
1775,2824,677,5723,1650,-1641,-1415
1776,3737,-1736,6788,-162,-490,132
1777,-309,-5768,483,-1436,1227,-1069
1778,-7198,-6973,7400,-538,434,-1564
1779,-1205,6267,7306,1053,48,-1056
1780,-4014,6086,6030,2,508,-1748
1781,-850,253,-2953,1508,-2000,-1308
1782,7212,811,2113,-1109,-1284,-981
1783,-7673,2630,4991,1000,-491,-1033
1784,2993,1079,7668,1385,94,875
1785,5410,-6546,-7188,-1501,-940,648
1786,-4345,-5712,6462,225,-856,-8
1787,-7139,-6753,-4525,-1142,-1131,-1897
1788,-7306,-5813,-5156,-327,1773,294
1789,-1826,4923,-7525,-209,-1684,-329
1790,76,175,576,16,1530,1136
1791,-3163,-6032,-3671,1334,1190,-1143
1792,6056,2678,1112,-1513,1073,-620
1793,4738,-104,282,1717,-555,772
1794,2241,5128,-1515,1280,1641,-1929
1795,2998,-1570,-5659,901,-1166,-319
1796,4276,-6557,-1240,-273,50,855
1797,4259,-4804,-1310,-199,-1757,639
1798,-5317,-3115,-139,596,-1406,509
1799,-3497,-3277,1925,1480,-172,-860
1800,3769,3049,-7135,991,-1760,-1818
1801,-1803,6406,-1782,-1944,-370,-1349
1802,5334,5240,-4189,-364,1590,1147
1803,-185,-965,-5899,1374,1519,204
1804,6279,976,-5584,1618,-114,-901
1805,4119,2530,-2168,-545,904,-1514
1806,4142,-5758,-2739,1911,-1389,-951
1807,-4850,-7049,-5831,456,-303,1286
1808,-6688,-2706,-3609,-556,1017,1495
1809,6357,-3108,-4028,-1135,-603,1201
1810,-2204,7597,4514,587,-1434,-1522
1811,-4659,5667,-4612,-710,-1992,251
1812,3869,3103,3197,-397,-374,-666
1813,6902,4604,137,1545,1453,1507
1814,-7199,-7868,5586,1309,1886,-1279
1815,6604,-2700,2388,-897,-365,-516
1816,954,-3276,4261,1706,150,1997
1817,5928,-2620,-2752,-783,-233,1148
1818,-1026,6106,-7423,-1346,375,850
1819,-7020,946,1614,1332,-1074,752
1820,-5392,3436,6916,1731,1824,459
1821,3649,-6446,6600,-456,1060,-522
1822,7830,6335,-693,-836,-337,209
1823,-4690,2228,676,1126,57,-1306
1824,-6427,-6450,-1238,205,1173,1640
1825,2512,-4526,-1107,193,338,58
1826,3275,922,-7955,1125,1163,-297
1827,-662,4112,-7809,685,-1263,1815
1828,-4064,3251,-5334,-109,-430,-653
1829,1861,-3212,-5421,-1607,-899,-96
1830,-7162,-5696,-932,-30,-258,-1286
1831,-2588,1668,-6110,-1265,1380,-23
1832,-1680,-6284,-1435,833,1525,-128
1833,-1213,-6122,1199,1877,345,1629
1834,-5359,4107,5732,-584,-1395,205
1835,-5449,-422,1906,-611,-289,1821
1836,548,-542,-3267,-588,-1312,-270
1837,6861,-5795,-6424,537,1473,-927
1838,-6744,-4170,-1023,-1248,-1399,-680
1839,342,-7982,2129,1656,-1162,-1778
1840,3616,-3241,6253,1766,-214,874
1841,-5161,3928,4954,-745,-1649,-107
1842,-7708,-5358,-3509,1301,-1866,-902
1843,-7529,-6072,-5420,1764,-954,-1048
1844,-7156,-6013,-1309,-255,1178,-1515
1845,4360,-6750,397,1856,-259,-289
1846,4680,-6045,-69,1214,1907,137
1847,6169,7698,-7317,1980,-627,-1854
1848,592,3395,-5548,-319,-1833,-1469
1849,2577,-3649,-3984,-1968,1925,1501
1850,5688,7011,5170,48,-1277,1081
1851,-7194,5496,5571,-248,-1359,1732
1852,7270,-4269,535,-1865,-407,-1153
1853,-3140,4651,1829,-654,-1613,1306
1854,4866,-836,7455,-750,336,1621
1855,3093,-5588,1925,1687,718,-744
1856,2124,-4790,-4638,1674,-1019,1094
1857,-5165,3740,5509,-12,-1404,84
1858,2852,4267,7912,-339,-295,-1979
1859,-82,2801,-7312,-19,-1686,1605
1860,-6970,6770,-1940,-1825,-973,355
1861,-6344,5351,5576,1746,-1295,-856
1862,-6434,1669,-2708,-1424,-625,1625
1863,7559,1712,5283,714,598,-513
1864,-4400,-753,6910,266,-1311,102
1865,6080,-1578,7117,664,-1431,-481
1866,-2277,-6184,4390,-811,-818,1783
1867,-1433,6513,1056,1825,-906,-269
1868,5453,6555,-4200,-1686,831,-41
1869,-6725,-4127,-4798,-1619,-130,14
1870,5072,5779,-1450,451,-1873,453
1871,-5501,-3001,-5581,1529,-1660,-943
1872,-490,-900,1589,1732,-1084,837
1873,-1235,3624,-5377,-1635,1453,1642
1874,-3990,7172,-3161,-1085,1475,144
1875,18,6438,-1084,1757,-682,-1502
1876,6975,-3128,-6282,189,-383,-1295
1877,5933,4428,-2558,1749,-160,-1361
1878,-786,-2666,2323,-1345,1102,1771
1879,4310,182,-2309,1853,-244,-709
1880,2977,-2426,-2283,1268,-1597,-1960
1881,-4785,4147,3270,635,298,-498
1882,7743,-5523,-2517,-939,1679,-301
1883,3774,-2401,6962,1759,16,1326
1884,-726,288,-4174,-744,1321,707
1885,-3372,-5036,468,-470,-1768,-1912
1886,-591,5651,-3119,-1603,1633,-244
1887,3455,-5325,240,-648,1854,-1623
1888,-4751,587,4407,-749,1912,809
1889,5630,-533,2659,-1748,-667,257
1890,-6536,-1058,-2565,1674,98,-431
1891,-1063,2629,-2228,426,1580,-1673
1892,1605,2474,7479,1032,-1459,1480
1893,7612,-3211,-1957,-282,-977,6
1894,-3548,645,7628,-861,-1824,899
1895,-6246,5628,-818,859,1088,1295
1896,-2879,-4093,3790,-1101,-529,-516
1897,555,-30,4971,458,-204,530
1898,4902,-1742,6320,1663,865,-1955
1899,4190,-7782,-5972,-1751,-959,-1293
1900,1047,-156,-7302,576,-1883,776
1901,1785,-684,2677,1229,1996,199
1902,4439,-4934,-825,100,1520,-789
1903,2375,3720,-3379,1023,-1024,-1794
1904,-8,-5294,5535,661,1174,1554
1905,-6681,2985,1819,631,1224,-1661
1906,-2855,-4377,230,-1338,220,-1046
1907,4286,3803,-2724,1783,651,1008
1908,-731,-2505,4144,482,218,-1387
1909,-6030,-4279,3760,-1154,1151,1760
1910,6202,4419,-204,-1213,-1002,112
1911,-317,4017,5795,409,-768,498
1912,-5107,563,-1567,1503,-1586,1590
1913,5693,7280,-1613,-946,-1997,-568
1914,-6967,-6189,1337,-145,1929,880
1915,7188,4528,-5711,-1106,330,343
1916,2909,-5404,-5014,-402,1761,-322
1917,-5597,4467,-710,1276,1813,-1663
1918,-1722,6394,7900,563,-1752,760
1919,6246,-7218,210,112,1689,-1329
1920,4290,6561,-6109,1091,1100,1908
1921,3752,-2426,7315,-633,-1501,416
1922,4197,-2730,-7110,1045,1234,-1674
1923,7001,-5253,-4608,-1641,-1542,1009
1924,-675,-1281,4120,720,764,1220
1925,-7465,-4063,2778,-1076,943,-526
1926,6709,3067,3568,1676,1795,1810
1927,-5434,3662,-2392,55,1815,104
1928,6045,5962,805,-506,-1045,1986
1929,7781,871,6429,-785,-1653,1460
1930,2918,-5043,-1161,720,-699,573
1931,-2653,1934,-7836,-1029,1580,-411
1932,-931,-1895,5316,1112,1459,-1927
1933,-2782,1493,6747,-296,136,1137
1934,7096,-4549,-4304,-700,-1606,175
1935,-4777,4349,907,-1267,1403,17
1936,-6418,4308,7462,246,739,1714
1937,178,4425,-2233,225,988,-180
1938,1386,-4897,6208,-677,-1855,1552
1939,-3434,-3937,-1328,-1264,490,-339
1940,-5443,-7895,-4570,81,150,1151
1941,4284,673,5735,780,1140,-116
1942,-2993,-7433,-6934,-393,635,1968
1943,6609,-1843,7428,458,1150,20
1944,6130,192,-6847,1333,140,961
1945,-5370,-5142,776,-1460,-1515,1006
1946,-7023,-2567,-5061,-741,1299,107
1947,4587,-616,-3687,-406,391,110
1948,4163,2153,7807,738,1525,-194
1949,381,-6599,3614,31,-726,-986
1950,-7957,-2623,-7834,176,-1660,626
1951,-6816,-5033,-2439,-370,1224,384
1952,-1629,-1526,1259,1887,968,-216
1953,3641,-3992,1125,441,-1580,-1600
1954,-3932,7769,3493,1422,1358,831
1955,-4427,339,-1238,1053,-643,850
1956,1486,6108,-7917,456,-484,107
1957,-3342,-599,-2691,-1376,1692,1892
1958,-240,1903,4383,-143,-1966,962
1959,-1752,-600,6104,764,1605,1795
1960,-4483,-6829,3660,-1140,342,-1898
1961,-1083,-5609,6919,1582,765,-1840
1962,7748,-4394,2835,439,452,-779
1963,2458,2258,-4807,-763,1256,-648
1964,-6014,-4340,-1526,1700,1107,719
1965,4096,-3618,7193,1432,-733,24
1966,915,-52,2527,835,-1581,-839
1967,4505,1247,-2718,910,1810,1111
1968,1265,-644,1360,185,-1211,-1247
1969,687,2940,7598,793,335,-15
1970,728,4206,7676,1073,1339,368
1971,-6791,-7460,-363,128,230,-283
1972,6232,-272,-5309,431,1407,1742
1973,7117,-4838,7752,-426,1407,903
1974,-7477,7010,6404,472,-793,-1758
1975,3075,2213,-4310,948,158,-754
1976,-7160,-4146,-1465,99,1171,767
1977,3508,-5814,3082,-1606,154,1234
1978,4711,-7315,5814,-1406,-1389,1771
1979,-7817,1574,6907,-123,1697,-1732
1980,5977,3550,2271,978,1280,436
1981,-4783,2067,-3581,98,1944,1473
1982,5544,-5327,-2446,-1149,-1527,1358
1983,-2164,-1358,-2385,-935,-1760,1837
1984,2629,-5741,3121,1868,-1805,108
1985,2771,4646,5930,688,-1295,-336
1986,-1538,-5054,1682,1409,-1054,-1479
1987,3857,-7889,520,1832,505,1973
1988,6505,3321,-4429,-506,-1589,1324
1989,-6071,7563,7152,1722,-748,-1425
1990,-1729,-176,-7430,51,-802,915
1991,-4296,7073,-1620,1847,-1382,1413
1992,-5626,-3326,674,-1112,-213,1505
1993,-6552,3672,-7614,-966,1543,-1475
1994,-1091,1374,-5412,1677,-1809,-281
1995,-4690,-1598,6078,-142,156,858
1996,2238,3592,-3085,-180,1971,-67
1997,-7045,1112,-5156,-1803,-1680,-889
1998,3598,-3676,2255,-245,583,1514
1999,7129,5399,3951,1055,-667,-474
2000,-7594,6790,3045,852,979,-474
2001,-3349,2163,3934,1929,-1203,286
2002,6887,-613,4035,330,640,-1286
2003,3190,-1773,-18,-1622,753,-90
2004,5185,-2004,5958,1550,-165,-896
2005,1593,4309,-7088,-1789,899,541
2006,6428,5678,1061,-667,-1041,1720
2007,1535,4190,2063,-546,-374,303
2008,-587,6710,181,1410,169,830
2009,-5067,-7844,-3531,396,207,536
2010,-2710,412,840,1975,748,1883
2011,-7335,5509,5783,911,310,-306
2012,7275,7591,-3901,434,-1970,1992
2013,1129,5011,5321,-1485,-862,86
2014,-3662,311,6200,833,703,-1682
2015,-667,-2675,3649,1271,-791,-889
2016,-5967,-6071,-659,-351,755,-1639
2017,-2301,-3292,-408,-548,978,1441
2018,5434,-805,-1775,-219,-1666,1683
2019,-1792,-4049,-3029,-1029,1912,-1408
2020,-4768,-1331,2285,1873,-1599,1207
2021,-2859,-859,1102,1202,-853,-562
2022,5691,-7447,5426,-1394,-1499,-524
2023,3576,-6604,9,-322,-1813,-1407
2024,-7341,-1367,5355,-1395,-1970,-139
2025,2703,-4713,449,1699,640,-459
2026,-5937,-7661,-3277,-29,599,-254
2027,684,4491,1407,1284,626,-915
2028,-6273,3885,4025,1890,-1477,-1471
2029,-1442,2092,3206,-817,-1815,-1345
2030,-7333,-2538,-6775,870,-1946,-1146
2031,-3766,7798,-7790,425,-1865,-901
2032,6055,2038,7044,1389,936,1537
2033,5832,-7138,-1234,-1643,1729,1607
2034,957,7484,2339,1074,1633,34
2035,-2014,3094,-4468,1809,-170,-1965
2036,-123,4243,7622,-1157,1753,1589
2037,-2123,3076,-4483,1540,356,-1830
2038,5946,-7170,5480,-743,651,306
2039,704,3957,-1786,-1307,1428,1787
2040,-3739,7476,-3358,112,-730,-1650
2041,-2791,6827,-95,-1228,-372,-153
2042,-6722,-368,-4844,-418,-1706,-284
2043,3783,7680,-5964,-403,-132,-983
2044,4900,6141,-2647,779,1642,-1494
2045,-2371,4533,-5697,1350,-303,-1132
2046,-3663,-5314,4934,-227,-349,-4
2047,-4002,-3627,1486,-820,1340,491
2048,7084,-827,2360,-321,1533,-705
2049,5718,-1185,4110,-430,216,-500
2050,-5680,5225,471,1249,382,768
2051,4360,-2084,6506,1303,375,1295
2052,708,7295,-6077,-220,840,1568
2053,-2290,380,2680,-1797,1762,361
2054,7888,6924,-3427,-1169,-347,-262
2055,2572,-3471,1407,1716,1211,487
2056,6920,-754,-6577,1792,-599,1871
2057,820,-1943,3769,-901,1558,-203
2058,5968,-1447,-3139,-198,-818,426
2059,-4263,-5846,4680,929,157,-842
2060,6328,-3019,-1015,1259,-1507,1313
2061,7302,2860,2324,722,645,-175
2062,-4977,-481,-1494,27,-1717,-474
2063,-7534,-7880,2874,-1450,-1045,1914
2064,243,-6480,-2931,-781,-665,1779
2065,-1660,223,-5140,-349,-770,-1374
2066,4208,-4749,-2693,1308,485,690
2067,98,7158,-3901,1993,-1731,1066
2068,-980,-4644,-3572,-1209,1069,356
2069,6691,-2836,-5687,661,-1063,-1889
2070,-1143,5607,4584,-415,-1666,1740
2071,5267,7072,-4763,1239,-284,590
2072,6470,3497,5249,-1728,-1834,-896
2073,-7001,5029,2326,-1007,1830,-1134
2074,-2307,-2654,6872,-404,958,-1360
2075,-1235,-2853,66,1895,1390,-1807
2076,-2866,3905,2048,-1130,-1667,-943
2077,133,-4535,-1019,57,-893,1318
2078,-6598,6190,157,300,-1365,-843
2079,-927,6007,-1375,-609,1203,190
2080,-5897,7956,7870,-1908,-917,683
2081,5468,-4402,1780,-172,437,-1437
2082,-7769,-1044,-2176,674,1692,919
2083,-139,-3591,6569,-998,9,-464
2084,7303,3430,-6390,1437,-1569,572
2085,3958,5404,-5431,-262,281,-887
2086,-7314,3097,-3958,1367,1329,-705
2087,-7186,-7192,3803,1875,-485,-1839
2088,7802,-2241,-3388,-759,-1714,-555
2089,-4039,-3960,2208,1712,1652,301
2090,-1741,4044,3832,-144,292,145
2091,-2844,-3797,5855,440,-776,228
2092,-2660,-5837,-1561,-273,-173,-1146
2093,-2353,1668,7741,-1971,-1495,1943
2094,6855,-4298,5134,-164,-1081,-1015
2095,4889,-1150,2060,-1259,-1919,-228
2096,-3877,5924,4365,1437,-1815,-339
2097,-660,7851,2601,-800,1303,1467
2098,1463,7733,4385,817,352,-878
2099,-6143,3470,3423,986,-1362,896
2100,-6078,7740,2174,-359,1706,-1381
2101,-1018,5040,-3988,-1919,-678,51
2102,-6036,4281,6424,437,1514,336
2103,-1763,-4491,-6964,1209,1877,-1892
2104,-6242,-1196,-3708,264,563,1630
2105,1374,-4136,-6806,315,1418,-1133
2106,-6299,-7877,6779,-236,891,-639
2107,-1423,5853,-3191,-901,1568,-1983
2108,-5524,2475,6276,1427,-1868,1390
2109,179,-7060,-5764,1851,1715,5
2110,4734,-1097,3547,1439,-59,-1823
2111,-4673,1841,-4037,263,-462,-469
2112,-475,-3105,5215,523,-1678,-1233
2113,5853,6250,-6699,771,-847,700
2114,-6990,648,6371,791,-419,-542
2115,4056,591,4772,-329,-1632,-1640
2116,-776,1349,-4905,-700,-1383,-1943
2117,7977,6696,3694,-1360,-1667,562
2118,-828,-7376,-2992,1714,896,-1373
2119,-4411,-3167,6226,-800,705,-62
2120,7596,3722,-944,-286,-609,1772
2121,1976,1377,6991,1789,1474,1292
2122,6982,7695,-6091,-1406,1837,-1295
2123,7823,2266,4863,806,-1671,1877
2124,897,698,-2643,-1115,1115,-1127
2125,-4382,6866,6062,682,1326,-990
2126,104,-7086,5006,1083,-908,-903
2127,-6102,2762,7286,-409,-1244,1225
2128,5304,2184,-1624,160,-693,-1298
2129,-1819,-3443,6532,-1726,-1986,-730
2130,-2108,2653,-690,1605,-206,990
2131,3510,-1487,6045,1974,11,-1589
2132,4631,6952,3397,-1713,-1190,152
2133,-5264,-3381,6868,860,-934,621
2134,-4778,-6640,7551,1973,1748,-700
2135,5034,3285,1490,-445,-945,-840
2136,2836,2495,-3096,143,-62,-1898
2137,-2007,-1095,-7864,-1950,-791,-1957
2138,4851,6101,2810,-1960,-203,1025
2139,-6616,4197,-6636,772,1397,-909
2140,-3367,2067,4615,80,1514,854
2141,6575,-3880,3950,1392,-616,57
2142,-4624,-6243,6565,-1304,1769,-600
2143,-7472,-1219,4734,1712,-1076,1294
2144,-114,-4067,-1652,-529,1986,-569
2145,-4974,-1557,6363,1635,-699,1611
2146,-6561,2771,-295,1451,1185,1922
2147,-130,-2811,-1498,-578,-16,-1203
2148,6048,1677,-6262,-1371,-276,-697
2149,6437,4621,-5354,-1380,91,-1568
2150,-5855,4870,-3841,1761,761,1083
2151,7332,5795,6628,-1977,871,-486
2152,-371,-3656,-7610,-1836,1260,1542
2153,-1042,-929,-5701,1478,-1556,-198
2154,-6276,-1312,5909,-1915,-296,-1951
2155,5113,-7234,123,-901,-1686,869
2156,-3103,-7351,6404,-1404,-1277,589
2157,-5081,5006,-853,-1788,-261,-270
2158,-6740,309,-5418,-1379,558,-1021
2159,-5338,-4572,2851,1416,1819,471
2160,-7385,-786,-4890,-1491,249,-190
2161,-231,-4719,-6980,-1476,1630,-1748
2162,3017,1679,-3236,-1545,-1779,-115
2163,2059,2115,-5280,-1339,1109,-772
2164,-7861,5670,2757,1206,-75,-1013
2165,4851,-4922,-3099,100,9,-1571
2166,-3600,7616,-3639,-1607,414,-1247
2167,-1994,-2223,-4499,-1564,-40,1099
2168,2720,-7365,-6837,713,1803,-809
2169,1968,2537,-5200,320,1278,-974
2170,2511,4025,3535,1975,-428,1025
2171,3605,3650,-5627,154,1644,-1422
2172,2941,-1075,6683,1343,1199,1225
2173,7073,-6881,-784,59,1806,-1691
2174,-4325,5535,-2353,-483,1279,819
2175,1908,2821,4046,-1743,1783,1585
2176,-5872,-2522,4648,-1471,-1940,-993
2177,-5226,5503,-7311,1464,643,-1604
2178,3329,-2303,3429,-996,-503,-1662
2179,812,-7196,5773,988,1698,531
2180,-5113,-2902,-4272,1798,1192,1581
2181,6985,-7845,-3098,346,687,569
2182,-4574,-4139,3532,1537,-1555,-978
2183,-7759,-1424,-2941,-1091,-118,371
2184,4857,7391,-6537,837,-1089,1935
2185,-876,-606,-5721,-1137,-721,-9
2186,-2690,-5526,2885,-847,1614,1851
2187,-4229,-984,1454,73,1810,-1727
2188,-127,-6821,-575,-1204,690,-860
2189,4378,2400,6747,-1403,692,-27
2190,-715,-704,1844,-1229,-1831,1561
2191,-6782,3131,4166,1173,-1119,437
2192,2870,-5110,-7348,-598,768,1260
2193,2556,4449,-3467,723,1891,1513
2194,-4325,446,-2782,-1560,224,532
2195,-1918,1309,-5308,-1051,1982,1928
2196,-2804,1832,-734,-1593,727,898
2197,-1184,7887,6226,-1628,-2,1595
2198,1644,-1871,-5542,830,-3,-1193
2199,5743,-3653,-7839,1291,-1647,-678
2200,3710,-465,1718,88,1803,-1034
2201,-4005,5172,6065,298,-184,-607
2202,-6646,1590,-7465,1093,-98,203
2203,2647,685,-1150,245,-1551,-1233
2204,1658,-3767,2988,473,-1553,-1219
2205,2539,-6830,-570,-1232,1999,-162
2206,-3304,2693,-3064,-107,820,-517
2207,-639,-6996,-3893,-592,-214,1372
2208,-5277,1901,-1271,1238,283,548
2209,-878,-1641,4883,-95,-362,-210
2210,-1707,1026,-3976,781,-1713,1870
2211,5886,-7805,-4023,-391,1124,-1847
2212,661,-4354,1670,-1376,1137,-1025
2213,1043,-4943,-543,-1306,1181,-20
2214,7157,-3134,-6368,-1054,-1722,1015
2215,-2725,710,1787,1454,-709,-18
2216,-3240,349,-7654,-419,-1257,343
2217,2388,-7883,4485,-1115,-670,-363
2218,1843,1513,-6649,-1934,434,854
2219,429,-6355,4019,908,1758,1682
2220,3023,2705,-5018,-1566,-105,1209
2221,-2315,-2864,-4736,-1431,-1468,1301
2222,5496,-2375,2798,-652,-1376,-1682
2223,5544,1041,3455,1440,-411,-1038
2224,7145,-91,928,487,-547,-1778
2225,-302,-4632,4556,-1682,1813,126
2226,7562,-7805,6882,-1962,795,-729
2227,5198,-3501,4290,993,1764,-1565
2228,-3849,1067,2991,-1882,-234,397
2229,-330,3534,-3949,-390,1276,-22
2230,2953,-4509,7554,-117,-1508,-1524
2231,3052,-2239,100,821,676,-1493
2232,3169,-3490,-7715,-1287,-1895,-260
2233,-7325,-5669,6945,-680,1799,661
2234,684,-1483,-303,1014,-571,-1131
2235,-6598,-2024,6910,1347,-1285,180
2236,1140,2262,1757,-545,-1278,-558
2237,4611,2716,-402,127,-434,433
2238,4184,3083,-5049,943,1497,1843
2239,-2005,-704,-5241,-660,217,1681
2240,1588,-1782,-6848,1918,-1607,1489
2241,-3891,7156,2475,-446,-1562,532
2242,-544,1835,3571,523,1270,870
2243,-5274,-3828,4043,-1255,511,-473
2244,-6100,-2833,1164,1527,-1134,-1626
2245,6273,6439,6790,-944,-1727,747
2246,-377,-6675,5430,1460,1989,1401
2247,3604,-2204,1069,-21,-336,1246
2248,3072,-4097,7452,-69,-1174,1952
2249,1640,-505,3718,-1979,-1436,-1184
2250,5189,3384,3694,1414,698,1604
2251,1590,2745,2291,118,-1354,1840
2252,-2286,3570,-7562,-911,-1395,1121
2253,-6895,-5388,-964,534,251,1427
2254,-4690,-7453,4061,-1878,-145,334
2255,-6958,-3946,-2314,-1900,1623,-425
2256,1929,-2796,1843,508,1552,-1392
2257,5330,-4646,3984,-760,-768,49
2258,6942,-1023,4165,1776,-1732,-1825
2259,-7004,-968,-6009,-1100,-594,1583
2260,3509,-7675,-4298,-22,58,-1406
2261,4779,2395,-7767,-1420,1893,-842
2262,2298,5495,1832,-315,637,-593
2263,-3217,-5048,6579,-501,253,-1892
2264,-3226,-4002,5445,-308,-760,-1252
2265,-7249,-6294,2822,428,-1712,-708
2266,-4923,3663,6988,1153,960,857
2267,3288,-4758,4753,-1223,-1419,-585
2268,257,-6479,-2619,-146,-1261,1982
2269,4576,-4256,-4106,1948,1170,1802
2270,6593,-7884,4649,-1515,1684,-1428
2271,-2549,-5684,-455,-1846,482,-722
2272,-4953,3169,7382,-72,670,-1375
2273,-3725,4012,-1073,453,-844,531
2274,-3312,4577,3964,1311,-934,1701
2275,-4093,-3178,6817,274,-1569,342
2276,-6646,336,-6045,-770,1913,266
2277,5276,-5980,2996,-464,1142,1794
2278,7244,-7314,-5466,-885,1045,-938
2279,3627,-5511,3085,1709,-1767,1923
2280,-5731,-3708,790,-1463,-500,119
2281,-4370,-2516,7054,34,-1981,-1300
2282,-3017,6903,-1516,219,-1721,-45
2283,4324,106,7565,-1678,-23,-141
2284,4146,-747,3781,-360,-1378,1671
2285,1721,2348,-6426,1471,201,1968
2286,2399,-5936,-1099,465,1655,-107
2287,2721,3181,-446,1100,1848,-418
2288,-2623,-5524,1770,-1636,281,684
2289,-2387,-2558,1065,1885,-433,-1244
2290,-686,6263,-1795,-782,1343,-236
2291,-5865,6269,-7988,361,1488,854
2292,768,-4468,23,844,704,-1785
2293,7501,6036,442,-1432,-853,-62
2294,-4876,-7083,1225,1544,-366,1207
2295,7168,-4597,-7029,-86,400,-1715
2296,-3916,7474,6523,-924,907,1341
2297,4643,7626,-3171,-1798,-1565,-258
2298,5241,-2819,3594,-114,-449,1385
2299,-3849,-1440,-4368,-1809,588,551
2300,-6799,6876,1417,-603,811,-1227
2301,2837,-1057,-4824,953,-1698,-1301
2302,2581,-3135,-2197,-1858,-1221,-1293
2303,-2918,4284,1447,256,1153,1648
2304,5457,5698,1131,-510,1089,1418
2305,2509,1300,5955,-1271,-91,-226
2306,-854,-6209,6651,1780,-1446,-583
2307,-4718,-6858,4423,1209,22,-1865
2308,7697,4309,-4148,1381,1321,-1233
2309,239,1218,6444,1726,-638,252
2310,6608,-5311,1004,-1472,1890,397
2311,-578,-7363,723,-602,329,-161
2312,-5388,-3984,4905,1864,-776,-1324
2313,7282,-6236,3479,90,601,-5
2314,7060,-2967,-7281,-39,-1816,-1403
2315,-7046,1254,2959,-807,-113,-81
2316,-7798,-4354,2603,1381,1336,597
2317,3832,7679,-6361,1536,1902,-120
2318,2533,4800,5047,1548,1267,1937
2319,387,2950,2877,-1592,-1549,-74
2320,-1264,-3134,7313,-307,212,-97
2321,-7932,-5814,1563,-1015,-252,-242
2322,605,-6267,-5860,-1386,743,-1951
2323,5396,2806,6482,1923,-1080,-1352
2324,6545,5655,-2755,-1524,-782,1053
2325,6973,-3562,-6082,1033,1472,1646
2326,5393,2780,-4406,868,1948,-965
2327,2131,-5077,4929,927,-1151,-1024
2328,5342,6024,1121,1420,-1181,954
2329,2221,4813,2340,-1729,-326,1274
2330,-3777,4209,-6952,1201,-1739,-854
2331,-3378,5837,7837,-1022,-1543,1806
2332,7170,-6012,556,-1321,-126,-268
2333,7423,-4985,5139,261,346,-1134
2334,-1522,5877,3783,1165,-1414,1211
2335,-4263,-3943,3606,-1337,35,1345
2336,-7679,7938,-7292,-851,-942,-238
2337,-5029,7533,1270,950,632,1259
2338,-3740,3394,5274,-1835,-1280,1446
2339,-4724,-1369,586,1900,1278,390
2340,4878,2831,3602,913,-43,1091
2341,-4267,-7076,4786,-760,-1082,-1064
2342,-2281,-2218,748,502,1566,-348
2343,1596,-445,-3824,-1131,-1968,1330
2344,6190,462,-7113,1041,-562,618
2345,464,-167,-4454,-44,397,1056
2346,-3826,4318,-1534,-1357,-848,870
2347,-5046,-5635,8,-1649,799,-102
2348,5647,-3699,-1205,558,-1421,-1163
2349,6966,439,-2860,242,1199,-246
2350,324,5646,6789,-684,884,-1239
2351,-3062,361,-642,-1554,1833,-1276
2352,5431,6364,3688,825,-1511,-709
2353,-4571,800,5021,192,659,-1170
2354,-3262,-2224,7809,-1731,1887,-1739
2355,342,4956,-4354,292,1091,1042
2356,-5605,7431,7676,-592,561,299
2357,375,-3975,4548,1993,-1442,-1499
2358,-2167,5514,2163,-1592,1054,323
2359,-7483,2246,-2172,-584,-1984,1901
2360,-891,5795,1040,256,243,1888
2361,-3346,-1459,-4384,-1538,16,-565
2362,-96,4585,5926,-1256,1395,-1657
2363,-7929,-4584,-7259,1907,-698,-1657
2364,5184,417,-2355,-915,927,691
2365,542,-4122,7690,1908,1862,321
2366,-6809,394,-1502,180,-1987,1232
2367,-3951,666,-7537,785,-931,1388
2368,-4261,-7769,7676,1092,-804,578
2369,5277,-6844,-6950,-635,1902,-571
2370,-3483,-1110,3135,-405,-102,-468
2371,7277,-4515,-7341,1944,-375,-662
2372,-1529,2131,-6452,-1986,1968,178
2373,4771,4456,6606,1155,-158,1441
2374,-7300,3869,775,-1967,-1656,-1678
2375,513,-1104,-1757,-1763,-1471,-1877
2376,-2746,-1492,-5448,306,1548,-1185
2377,1683,2505,7610,-1893,-1981,-48
2378,-1036,-6267,3336,396,1042,-1322
2379,931,-3763,1153,1013,874,-279
2380,-3028,5797,2010,-1082,-721,15
2381,-4504,-7083,5903,1330,-1071,1608
2382,-1320,5640,-670,-1283,-639,-1857
2383,-5491,3187,-2094,423,1165,-927
2384,6108,-5996,-3912,-855,-15,387
2385,-2326,-6041,1015,1466,1289,-449
2386,-870,-5852,-6387,-1888,732,985
2387,4976,1792,5331,-1598,1914,-529
2388,5861,-3326,-2388,947,416,-1727
2389,-2283,30,-2764,264,893,1098
2390,-5734,-628,4249,275,-495,893
2391,3173,3145,-776,283,1243,1830
2392,-769,4887,-3521,-287,-857,-776
2393,-7663,-1554,-1339,-236,-1875,1472
2394,6922,3200,1351,-636,-1325,-1720
2395,-1453,-3210,4419,1881,-1223,-628
2396,-1280,4877,6147,212,-173,475
2397,567,7652,-6481,1916,756,-796
2398,651,-6632,3224,-1569,998,1522
2399,-5047,-1783,3761,461,-1277,1551
2400,7158,-5016,-4467,-1157,1489,1445
2401,5574,6497,-4472,-86,-1581,1483
2402,2911,4074,3160,1051,1443,-603
2403,-6490,-7339,5115,1150,1298,-1682
2404,1538,3990,618,-899,-1680,1425
2405,1195,-4194,-1464,1758,1128,-1657
2406,-949,-6314,-3148,-1833,-1068,-493
2407,6519,-7189,2942,-82,-1639,-1641
2408,-5932,3309,3509,-1408,553,-1449
2409,4590,4804,3806,-409,-815,-554
2410,-3682,-3551,4749,-710,736,439
2411,-2721,2479,-3013,-463,-1218,-1409
2412,-7312,7419,-7794,-1856,-1767,-680
2413,-3841,-6461,-6606,1353,1392,-1366
2414,-7766,7541,1197,183,547,-1035
2415,5787,-6427,3046,978,-1421,915
2416,-1541,-3682,-743,-601,-1378,26
2417,7253,7751,-5027,-1837,-956,742
2418,-1227,-4551,-6566,-1939,-1052,-145
2419,-6352,4352,437,911,-1506,-1759
2420,-3013,-6531,-317,889,-180,-370
2421,6661,-5858,4359,41,1024,-1753
2422,-1052,4032,5801,-421,-297,856
2423,2594,-5368,7145,145,-227,-344
2424,-5157,7560,682,-718,1081,1258
2425,-7120,6894,-7361,-1724,49,1088
2426,-4554,-5927,804,889,1473,538
2427,-3173,-4997,7903,737,1257,-1545
2428,-7915,7171,7420,68,1666,-951
2429,6907,-6912,864,1618,-367,1443
2430,4462,5518,1608,-910,788,889
2431,2695,-4246,-7810,-610,-868,1761
2432,7784,-6054,-6037,1434,-1634,-304
2433,3429,7,-2914,20,461,-549
2434,-373,-5645,-6220,1438,653,1732
2435,7783,-6140,6686,-1332,-417,21
2436,-358,-741,-1809,-379,-1925,-1002
2437,-237,-5867,-4209,-1494,1988,1745
2438,-5803,746,-5429,856,-329,1407
2439,-4784,3526,5923,745,150,-995
2440,6507,-5151,-6956,-1718,-1265,1104
2441,127,6792,94,1747,-1969,1579
2442,-7520,356,1743,1699,-1237,694
2443,-3279,7804,5260,-974,1048,1406
2444,-5131,7434,26,1054,317,1630
2445,1924,-329,-221,1165,1752,-91
2446,3183,6682,5182,-747,1429,608
2447,5266,7357,4095,1859,1498,24
2448,1979,6839,7904,-667,-589,1173
2449,-7104,4244,-2901,2,-1166,-311
2450,5606,3838,-4434,1508,1781,4
2451,6976,3967,4037,-280,712,-319
2452,-3524,-4299,5494,549,-1580,-398
2453,6327,5168,3881,-1232,-510,1254
2454,5646,6209,-7598,-920,-607,-65
2455,998,1516,472,582,-1108,-678
2456,1833,-6725,5951,-162,1214,1169
2457,5942,-7660,-3012,-1037,-301,-954
2458,-1431,4363,-1,-404,-1333,25
2459,-4812,6008,-7167,-1965,1251,307
2460,1530,-6914,1912,-281,1352,1185
2461,-4521,6943,5507,-253,-1634,160
2462,-3511,2747,3403,-1328,1056,501
2463,-3211,2247,-2473,1788,1499,-230
2464,5297,4568,-517,1083,-1444,709
2465,2515,-5127,1066,1524,1367,-1839
2466,-2287,-1451,-317,-509,459,-1546
2467,-3930,4988,6093,-619,1415,992
2468,3056,-5606,-6508,-170,-277,1614
2469,-4308,-314,-2087,1415,-625,683
2470,4766,-3126,5727,884,1004,-1106
2471,6799,-6263,1719,-1422,338,-909
2472,3496,6307,-3968,104,-1917,1194
2473,1647,7737,-6551,894,-1773,-1779
2474,-6891,6690,4813,968,-1895,-1856
2475,2195,-1763,101,-658,-1623,-409
2476,5705,4597,3944,1637,-218,-748
2477,6478,-4944,3614,-1038,-1026,-1222
2478,-7293,6576,505,927,269,-199
2479,891,-1567,2860,-733,336,-611
2480,913,-5753,4247,-4,235,-1870
2481,4857,2911,1283,-999,868,1140
2482,-807,6689,3694,-1296,-969,1232
2483,1596,4256,-7251,1279,172,13
2484,1238,318,2977,-1016,753,-1630
2485,4032,-911,-7911,-1114,-1888,1461
2486,3363,-2376,511,-270,386,1314
2487,-3793,839,-5508,1963,1295,44
2488,-3782,-1307,-5617,-28,-654,1076
2489,-378,-2697,-7868,-397,-171,998
2490,-369,3835,3157,1801,-25,-419
2491,-3991,-565,3886,253,-804,-815
2492,-5222,4670,-4287,240,680,-1557
2493,-5980,6008,3042,714,-1516,406
2494,-1600,-3368,5915,-1937,1661,279
2495,6923,-1681,-5194,682,536,-632
2496,-3815,-1872,7181,28,226,672
2497,1160,-5561,6329,-1066,1262,1141
2498,-1396,-7905,1293,442,-232,721
2499,5010,6310,-2273,146,-53,299
2500,1478,5935,-3134,118,1924,1081
2501,-1415,-6025,4544,32,1051,1651
2502,2761,-7111,-1419,1722,1806,-763
2503,2446,-2643,1575,575,-1318,1035
2504,-7460,416,-386,475,-1267,-895
2505,6336,1065,-4700,47,1957,715
2506,-4380,-227,-4893,-1637,307,-1512
2507,6290,-5524,-5789,1034,-554,1123
2508,2955,4949,-2164,1139,1052,-490
2509,5858,4851,-2160,1853,-77,1981
2510,7634,-3823,-145,1218,192,-956
2511,6754,368,6713,1218,1008,-812
2512,4397,2068,-1766,-825,-1983,662
2513,7670,-3753,877,-1451,-445,-706
2514,-7915,-4158,-655,1426,907,1599
2515,-3975,2715,-4033,-785,-1823,697
2516,-2035,-7420,-6817,-177,-1622,1110
2517,4735,-2204,-4706,-158,-881,-153
2518,4219,-6235,-4375,909,-59,-1050
2519,7537,-4457,4983,96,-598,1395
2520,2121,6148,4986,910,1142,495
2521,-3951,6807,2769,-1677,803,1306
2522,-7908,7206,6567,1554,-1516,-553
2523,3902,7522,-1544,-865,1420,549
2524,7108,6197,-3924,773,978,-1926
2525,6374,-6521,236,971,-939,796
2526,4050,-2846,-4003,-1814,837,-1518
2527,-3102,-7461,7037,-217,1331,736
2528,-4356,7502,2401,-1545,113,-967
2529,-2875,7163,2207,1936,848,-1129
2530,5927,-6490,-2760,-400,280,47
2531,6529,-1133,6478,-1705,1756,568
2532,4470,4712,7600,1959,1533,-1665
2533,6047,-2201,-4884,-1101,-78,1058
2534,-1386,-2965,-4775,1815,612,1363
2535,2058,6156,-5133,-1285,1025,1301
2536,-121,5045,-5497,1359,-1632,-1817
2537,7437,-5868,7071,-1965,-1736,-625
2538,-7661,6874,3566,-814,1872,-1373
2539,-4309,7760,6870,-1946,-1967,-577
2540,-2577,-453,95,468,-1511,391
2541,1910,-5690,-2528,-522,1734,715
2542,-6607,1983,6994,364,394,-340
2543,-4043,-668,6018,-161,1688,1502
2544,-7575,7556,3158,1794,123,-1652
2545,6631,6910,6237,-507,-139,-1276
2546,-3996,-6652,-5703,-4,1170,479
2547,4781,-4567,5922,-1705,-215,1431
2548,-5466,-7291,7456,1123,1655,1626
2549,1383,5805,-7049,1475,2,-1489
2550,-283,5333,187,-1773,184,765
2551,6731,4800,-3234,-1058,-261,-860
2552,-4344,3836,-2465,1551,1053,1185
2553,623,1206,-6760,-1812,-1567,-673
2554,-1738,-2740,-5447,502,1858,-1125
2555,-581,-3456,447,977,1004,1581
2556,-2527,-3168,-3967,-673,911,-200
2557,-3987,-3949,-7682,-366,1606,1951
2558,6164,-7292,7644,-1994,-1766,985
2559,563,6084,446,-1218,-1858,472
2560,-1853,6938,6528,408,-149,1999
2561,-5613,-1565,-1005,-1995,-299,-1590
2562,-1936,-6401,4536,738,1342,1944
2563,7206,-1245,6421,-1153,128,-1727
2564,5362,-1861,-4635,-584,926,836
2565,2123,3281,1298,-230,897,-1807
2566,-6043,-7390,6123,593,118,-381
2567,-2815,1831,4514,375,1410,468
2568,-3934,4927,-5891,1761,584,-1215
2569,6990,-1071,-4593,34,-1950,1876
2570,-6154,-2699,6363,1966,1456,486
2571,6752,2013,5944,1949,-1650,-1176
2572,4985,-500,-7755,239,-279,-1570
2573,6160,6557,-5125,1609,498,1280
2574,5771,209,-2614,-85,-124,-1812
2575,2674,6063,-3893,1410,1320,1452
2576,-4497,-3883,-2191,460,151,-469
2577,4206,3821,4140,900,-1489,1472
2578,3805,3879,-5147,1311,1856,893
2579,-7210,1537,-1920,1692,-244,438
2580,2559,-6799,7257,727,-1114,-163
2581,-1888,-1595,-67,987,1593,578
2582,-623,-3712,-6229,-1880,-703,1924
2583,-2107,-4851,6949,1251,1043,183
2584,1592,-5122,2314,-1427,1487,-668
2585,-6689,2078,3135,-194,-1999,1641
2586,4946,-4124,-5716,11,1409,863
2587,-448,-695,-5421,1792,1019,-653
2588,613,-2911,7324,-104,-1424,-1512
2589,3322,-46,4033,-1531,1154,-1873
2590,-627,-7773,-1485,-1091,-652,-445
2591,7414,-6934,-3789,731,-620,7
2592,2361,-2345,-5878,825,109,1635
2593,243,-3192,6488,-817,1621,-1178
2594,804,-2081,3812,1354,1332,-1935
2595,-1736,-6450,645,711,1868,517
2596,1703,4343,-4657,1877,-1518,1694
2597,7933,7182,1196,8,-1946,1303
2598,-1797,3369,-6764,1845,-1398,1470
2599,7799,-6370,-6708,-1676,1409,118
2600,-2451,4658,-951,144,778,-961
2601,-3518,7706,6745,1624,-822,1650
2602,4342,7829,7896,1113,212,170
2603,-4198,1213,-3368,1091,217,741
2604,-5054,6285,6218,-1209,-1606,-1053
2605,7857,-3924,-2115,173,-1031,-1296
2606,-4553,2453,-369,274,452,1063
2607,7149,1878,5946,73,-644,-1285
2608,7352,3131,1398,480,-1462,-1640
2609,-2558,4260,-7336,1983,-1988,847
2610,773,7512,-5447,1215,-366,-952
2611,-5656,6752,-7802,-770,-451,-317
2612,7396,-4007,-5306,-1393,-689,1957
2613,-5023,1631,6062,325,1727,1120
2614,-7471,4096,6218,261,589,-567
2615,2945,-2104,3906,1825,-1412,-143
2616,-2953,-6995,1510,89,619,1202
2617,3265,-2780,2003,-309,-638,177
2618,-991,5435,-421,1672,1680,-1909
2619,6688,-861,6876,-277,1092,1205
2620,6101,-6031,-572,-1672,-1323,-1174
2621,4280,-6028,2564,384,1210,-1001
2622,7356,-7287,-3463,-155,1567,1714
2623,3076,-4269,-1496,-294,1232,-1524
2624,-2061,-6066,1233,-250,-838,-802
2625,274,2918,-5836,-640,-689,-929
2626,-1380,-1216,3081,-1350,-1536,-992
2627,5813,1245,4043,-280,923,1568
2628,3384,1125,-1557,-359,923,243
2629,7158,7239,-1918,104,1572,1835
2630,7035,-465,7238,-1478,572,-437
2631,5443,6473,-6732,-1481,747,-589
2632,-1327,6556,5044,-914,1297,290
2633,5121,5169,-6188,1372,1718,-1531
2634,6649,6869,1613,-1910,771,-1040
2635,5926,-6407,-1101,285,179,451
2636,-1711,-1250,-1437,603,1709,-287
2637,7927,4269,2565,-813,1906,-1890
2638,232,-4079,6316,-1606,-1888,-1775
2639,-1579,-5354,1915,308,-127,1549
2640,3453,5523,-2776,972,1447,-1068
2641,-3808,-1099,-2439,1161,-1698,255
2642,6570,-4532,-4326,980,-488,-31
2643,3324,7419,-3214,39,1035,-1809
2644,7131,4914,-3531,1116,260,34
2645,4052,7714,3617,-83,1207,-185
2646,1580,-3536,7109,149,683,722
2647,-7143,-1676,-925,764,1813,-135
2648,-2647,-2567,-6371,1112,1725,1816
2649,3293,5900,2866,1258,-591,258
2650,4981,-7673,-3889,1606,-1419,953
2651,1762,7089,-154,1236,775,-1333
2652,7575,-3245,1659,1608,-771,-1077
2653,4929,5407,-2480,-109,1895,-1291
2654,5286,5990,-1099,-1609,-1785,-362
2655,-7738,7047,2690,1561,-1667,111
2656,-4863,4242,-276,1664,-1775,-1881
2657,-4203,2907,-3755,1163,1632,1327
2658,-2433,2796,5480,1041,1652,-1595
2659,-3258,-4405,3770,-888,549,1449
2660,-1887,6533,1316,1422,-1894,-1159
2661,5557,-3599,-6318,-944,-413,939
2662,2071,-2032,-7879,-1469,-828,-1333
2663,83,-4542,-6818,1333,1576,-1427
2664,1395,-7704,-3576,-1105,1499,362
2665,-3828,7926,-4676,-757,1617,1523
2666,4391,3730,-7034,-1859,-1699,-1963
2667,4277,-5207,-5154,1161,1442,207
2668,5402,2602,-4071,-1061,479,-1195
2669,4815,-5124,6219,-72,449,-1491
2670,-3556,2437,-3757,904,1213,72
2671,-5962,-3334,5724,-1530,-1116,-1219
2672,-6222,-750,7960,1476,-722,-1145
2673,-7648,807,7048,1055,-1921,-1571
2674,2276,405,-7908,825,-512,-941
2675,-608,7024,-5255,-690,297,-1021
2676,5036,-386,-2269,-275,1828,-1681
2677,-616,5492,-214,88,1837,1758
2678,-2298,-5133,241,1736,-721,1381
2679,1273,-1469,-7957,1534,711,-166
2680,-6072,-1267,-227,-233,1475,-662
2681,1336,-523,6917,-868,149,-739
2682,2615,1146,6845,-893,-1780,-1209
2683,-6848,7246,-4896,1969,-1716,-335
2684,-6643,5509,7297,-834,1194,-1985
2685,-3833,4329,5023,-29,687,1013
2686,2934,5405,1954,-1054,-1273,1140
2687,-24,-7057,-3685,1814,533,-934
2688,358,-3140,278,1024,-1660,1927
2689,-7691,-1709,4600,-1298,928,86
2690,4843,-6619,-4602,1818,-144,1198
2691,-2844,3474,3588,-1151,-1942,1775
2692,-645,-7267,7484,131,-1429,1400
2693,7036,4349,628,890,-191,739
2694,-5036,-2727,-7713,1745,-182,-1640
2695,3536,3064,3930,220,-564,318
2696,6623,-6905,6865,-1488,300,-1807
2697,413,7687,-5318,816,1979,1203
2698,4302,5708,2388,-681,-1251,-1706
2699,4155,-7869,7251,-354,1572,-1134
2700,-4574,6196,-2584,-738,-1165,1073
2701,-1608,-800,-5105,-1518,-1524,-790
2702,-5919,-4558,-3544,1732,346,1
2703,-3075,158,-5204,-677,238,71
2704,6103,1337,2000,-454,-697,1387
2705,7353,-4526,5912,387,989,1879
2706,1106,-1359,7148,-218,1930,-1044
2707,-1698,5442,-2949,-540,-101,-1684
2708,6004,-764,-1800,530,-1116,462
2709,5746,-5694,5859,1112,1621,-299
2710,-6580,-2454,-3865,-1725,1903,-1485
2711,6913,7951,1849,-1637,1053,450
2712,7243,-3950,-2360,-255,-974,1612
2713,-6192,-1136,-6589,1727,-1801,677
2714,-444,-5635,6422,1781,-1120,1109
2715,2524,3673,-69,41,75,-567
2716,5839,4622,-1492,-1259,711,1639
2717,-7972,-2535,-6151,-1221,-686,-1343
2718,-5200,887,-7801,-1549,1324,-1250
2719,-5206,4535,-3741,950,1463,1651
2720,5952,4120,-6274,-483,-1331,-629
2721,6990,-707,-1650,1802,192,-802
2722,-2278,1794,-4965,611,-1608,1721
2723,-4364,-1563,-5960,-318,1970,-1824
2724,-6085,-6744,2001,-718,356,1876
2725,-6615,-934,1982,1684,1512,-640
2726,-2675,-7417,-7385,1049,-1190,-166
2727,7146,-4540,6364,-752,-66,-1566
2728,-6347,-3305,-2597,1908,1428,-1897
2729,1481,948,-98,-607,-98,-37
2730,7182,4423,1680,-1171,-1070,1136
2731,6238,-5519,1240,757,-852,396
2732,-6301,3382,7928,1902,601,-258
2733,-3796,-2060,-6639,1150,-1416,1761
2734,-7731,-37,-2659,-271,-1122,40
2735,-548,-7799,6141,-127,709,-122
2736,-6398,-1394,6962,-224,1907,1761
2737,2112,-1907,5529,1589,405,1972
2738,-2360,-4185,2163,808,1915,1194
2739,-158,7492,5488,222,729,-1108
2740,-3200,6046,4282,-1021,1169,1840
2741,-5337,-7914,-675,1774,-1004,1854
2742,5871,4313,-4958,-1165,1722,852
2743,-6330,3435,2997,453,-839,-1013
2744,-767,-2044,5896,1239,-1883,287
2745,-4243,7505,823,82,1531,-1363
2746,-5274,6070,47,-713,-834,422
2747,-2896,-7606,-3112,857,-55,-254
2748,1150,4441,5232,-1696,-609,-557
2749,-6347,4254,2016,-68,737,-159
2750,-2916,-636,6016,1504,251,-806
2751,4607,-3441,3661,-1012,81,1834
2752,666,-3326,-17,-873,-2000,-380
2753,6635,7237,360,-1367,599,241
2754,7492,-3951,4206,1716,-1880,-787
2755,-6703,6096,-2882,249,-1139,-1120
2756,-1849,4985,-6599,-1492,335,-1483
2757,-7550,4917,1676,1815,-1943,-1919
2758,-4748,1167,5795,1008,-343,1230
2759,-1337,2985,1254,-616,-3,-794
2760,4199,6566,-1121,633,206,-1073
2761,-459,-5657,4924,-977,1865,-1073
2762,-6091,-4313,-2896,-540,-1640,-219
2763,-7650,-4978,4393,-1633,-1983,-1813
2764,1976,3837,7182,-1365,-761,-1438
2765,4883,-3378,216,1916,-220,1251
2766,-3320,-3644,-3053,130,-784,-697
2767,5527,-3290,-186,1743,1559,-669
2768,-3435,-2294,-5851,-814,-1342,-937
2769,7271,-5030,-5925,1013,1586,134
2770,3605,7693,6133,-1996,1605,-56
2771,2649,3921,4721,137,1576,-870
2772,7539,-4455,1141,68,-1321,198
2773,-7139,6664,6207,-1155,-1867,13
2774,-2465,2044,-1218,-539,202,-143
2775,-76,-6113,4833,-566,-1038,-1979
2776,6467,-7989,-6285,-896,1862,1231
2777,7047,1112,-1199,934,-491,-1815
2778,2349,7973,-4864,-199,-558,1902
2779,4282,-3374,-7290,647,-1770,345
2780,-894,2163,7832,490,-1282,-689
2781,4441,-2412,-261,587,223,570
2782,4620,6078,-321,-1208,535,-165
2783,-2880,-2101,248,638,835,-1708
2784,3353,7132,-1012,-325,1768,-580
2785,-1857,-3027,-5321,-1477,405,-579
2786,7359,1718,-895,1905,525,1937
2787,-3952,-3473,-4116,-876,1404,-1915
2788,-4592,7567,-6968,-1380,1075,-1247
2789,6771,-899,3486,-611,-562,-1242
2790,3211,-2804,-7541,220,1767,790
2791,1286,-5073,3744,126,-1038,1400
2792,-31,3139,6724,-670,-1641,620
2793,7692,-2884,-2807,-775,-1909,-1483
2794,7823,2507,1905,-1672,1643,348
2795,-6392,379,-2328,-1847,-1693,-1938
2796,-2363,2098,-7728,-1691,573,1251
2797,-5760,7594,-1603,-318,-610,-1132
2798,-7043,-3559,-6135,-711,-1028,-1001
2799,2970,7697,2364,1177,-1682,-1769
2800,-1312,-3656,-6513,-184,-873,-569
2801,2844,163,-7766,1162,-1055,-380
2802,-2560,-5769,-6661,-1319,-583,1578
2803,-4649,-2092,5412,1469,1037,261
2804,-7236,3716,-5693,1619,-1975,1375
2805,-2643,1676,6774,1614,1145,-466
2806,5787,-501,-1249,1357,-1026,1905
2807,7384,3562,1956,81,1270,-616
2808,-3249,-6086,748,-1633,-1174,-173
2809,4637,904,1417,-790,657,939
2810,-1009,-1694,-2386,-21,-26,1465
2811,-7362,-7922,-4060,333,-1089,-391
2812,-6442,-6852,-4226,-1277,-254,-1220
2813,-2766,2767,-234,-1502,-990,-1938
2814,-2472,-6671,2418,-1898,-1545,236
2815,-152,-5533,-2802,-333,-863,1206
2816,513,2615,2088,1957,-137,1010
2817,2905,-501,3558,-1661,64,-1155
2818,6340,2227,-4984,79,810,1832
2819,-5309,-1450,4574,249,-1341,-1860
2820,-1555,-518,612,1839,-613,-1507
2821,-2183,-5892,-6513,58,-1245,-1486
2822,7368,-5570,7873,662,805,467
2823,-6900,1264,-5084,1242,1963,-902
2824,-2920,7754,-969,268,1122,447
2825,1297,1687,7330,-851,56,-416
2826,777,-809,-5551,-1207,1678,-1773
2827,-1844,-3947,-5630,-765,-783,-635
2828,-5680,-4663,-1371,333,1690,538
2829,-5126,-3275,-7695,-1211,131,1750
2830,7395,-4291,7315,-1235,-1317,1492
2831,-7738,3008,-5156,911,958,76
2832,2776,-471,365,-1158,-318,1890
2833,2358,-1907,5154,-561,-1597,-289
2834,820,3371,-2270,-238,-418,-248
2835,6208,4109,-7729,-1826,-1201,1763
2836,-2223,4859,-3973,1813,141,364
2837,-3868,-2299,-2770,-1606,-802,-1605
2838,-5466,-1228,1406,-1025,273,-1726
2839,3894,-1975,5751,-1099,-915,-187
2840,-973,-5223,-2832,-1886,952,1383
2841,-3422,-2838,7126,1827,1399,526
2842,-3400,1587,-2488,547,-1912,-404
2843,6469,4800,-904,-1532,-571,-1941
2844,5057,4527,-2535,-854,-1778,15
2845,-2661,-7059,5469,950,-61,1380
2846,2920,5219,-7431,448,1273,-1208
2847,4793,4526,-577,650,-804,115
2848,45,-2638,-5829,1893,-1818,-118
2849,-2261,4311,4920,-988,-1902,-629
2850,-5170,-2616,6958,365,-1786,460
2851,5904,3280,5146,382,1787,-398
2852,7866,6529,2394,960,-446,954
2853,7336,5663,-1170,1405,1427,615
2854,-5402,-1653,-4649,-1627,-1018,-715
2855,-3978,2086,-7787,1781,-1459,-1684
2856,802,-2030,-6219,-1426,1476,707
2857,-278,-4047,4724,-189,26,1315
2858,2682,-7954,-2010,-368,936,747
2859,4644,-3201,816,1595,941,-200
2860,-4513,373,-6212,-990,-284,-340
2861,-5313,-1069,3770,-789,836,-570
2862,-1160,7039,-5805,-1833,513,824
2863,7353,-833,2600,857,-890,-523
2864,-1950,277,-7593,1716,1623,18
2865,6465,1337,7023,-618,324,-447
2866,-5117,-643,-7902,1598,-503,-228
2867,2287,-4585,4579,-818,1414,-1813
2868,3655,-980,-1362,-1419,-1168,-1105
2869,5262,-767,6510,-1064,-793,-652
2870,-6786,6201,7800,1938,1359,1190
2871,-3158,2073,-3524,-739,945,-1508
2872,4272,2481,-296,-1505,-730,-1292
2873,-596,3637,-6126,1282,919,1194
2874,-3208,-2018,7439,1314,1651,764
2875,-6170,4707,-7894,-366,-472,1189
2876,7086,-2126,-759,-1758,-1264,-1422
2877,6335,6406,3615,805,764,1325
2878,-1776,-5465,-5891,450,-1349,1613
2879,-5774,-3951,-3354,1172,-408,169
2880,-5006,-7130,6257,697,-1291,1716
2881,2013,-515,-341,-1702,-217,244
2882,6850,-1621,6122,1250,1751,133
2883,7277,-5128,-636,926,1375,-212
2884,-1436,3462,-1715,-1590,483,166
2885,4121,-2831,4151,-1015,1882,120
2886,3796,7449,4899,1205,-799,-1842
2887,5858,4193,5119,1964,15,-1617
2888,432,3332,6038,1938,-1931,-1448
2889,-7488,-4721,1246,277,-447,-650
2890,-7701,2410,-5690,9,298,1474
2891,5463,7990,-3947,392,-426,62
2892,-7945,2869,-1773,-927,227,-1815
2893,-4621,1569,565,-574,795,-1814
2894,-858,701,6936,703,1842,-1529
2895,-5335,2869,-180,-37,475,1090
2896,-3263,-3641,-6073,-1771,-1204,27
2897,1445,1425,-4127,157,-422,1399
2898,-731,-1217,1360,-1209,515,1325
2899,2870,503,-5618,963,-275,1056
2900,6213,1029,-2327,-582,-1347,1453
2901,-2649,669,279,661,1034,-1767
2902,4091,4330,-120,-1678,-41,127
2903,-1365,-7595,7308,744,-111,-957
2904,6306,-7767,3277,-128,1082,281
2905,-2600,1099,-5040,-1033,-137,541
2906,-3426,7570,6675,1479,845,1546
2907,-7357,-4428,-6448,1237,-1332,-1250
2908,-6872,148,-4268,-1943,-975,1635
2909,4650,4729,4318,1068,1288,-699
2910,-3488,-1111,-4382,-1211,-994,1192
2911,7919,1906,7741,1103,570,-895
2912,7008,1038,-376,1064,1159,1212
2913,-3147,-7823,1123,-1542,-1388,-1153
2914,-1672,-7314,4975,1297,-1151,1726
2915,-540,2541,5563,-1028,-778,1157
2916,-6656,-6166,-4814,-113,1232,-1252
2917,6883,186,4391,-1777,-619,-656
2918,6081,4105,-4661,-409,-728,-759
2919,-7888,-6097,-6093,366,913,60
2920,-3381,786,6482,-658,-1239,-1290
2921,2736,-5662,-6230,-392,740,-555
2922,5706,-3586,-2744,495,-761,836
2923,-3025,-5857,-7664,738,-26,-971
2924,-1044,-5897,844,-324,1388,-1179
2925,1995,-6121,-1643,-1980,1792,29
2926,-7781,1108,7095,-1321,-1081,1294
2927,804,109,-6720,364,-1067,-1848
2928,4474,-4093,-922,-1679,-837,479
2929,-6326,4736,-7067,27,-1723,-1071
2930,-718,5129,1342,-698,-1204,1049
2931,6609,4750,-6839,-116,1341,1554
2932,1782,-3826,-6131,1316,-249,-835
2933,-8,-6202,6678,128,1465,853
2934,1042,-6802,5161,1953,1990,1879
2935,5031,-590,2501,287,305,-1451
2936,-1201,-2609,4790,1698,638,1323
2937,3808,-5281,976,1698,1070,1468
2938,-6717,-5371,5606,1675,-1989,1471
2939,-660,-2474,-4857,-624,-1500,1981
2940,3279,7277,-6576,-1919,70,76
2941,-524,-1457,-3166,245,-420,1833
2942,-34,7005,-994,1151,1550,274
2943,-3431,-2529,-5946,583,-156,646
2944,2123,4254,5647,1894,-1556,324
2945,-367,-813,1353,1418,-1789,955
2946,-561,-4437,2782,1757,1093,1604
2947,-5336,5665,1403,1755,-1864,1497
2948,1898,-2158,1341,-1117,-237,-309
2949,4013,7421,6167,-57,1743,-587
2950,6720,-5355,-3453,-245,1673,209
2951,-4715,-1187,272,-1886,-1664,-1163
2952,863,-1974,1936,762,764,996
2953,-3221,5067,-2119,-189,1922,1397
2954,-2470,6213,-7307,-1350,-1201,-1698
2955,-6711,7744,-1394,572,-652,1772
2956,1359,-4539,-4841,-1429,-330,-1336
2957,5910,-7241,7761,-1459,1407,-934
2958,-1762,-4472,1593,-362,-1251,-841
2959,2824,-5819,315,949,-1617,-413
2960,2359,7862,506,-183,-564,-1548
2961,902,-6907,-6600,1095,806,267
2962,1409,5714,2310,-1245,-387,-1316
2963,6935,-2305,5560,1154,-447,-164
2964,7135,-2952,-4055,-1273,839,-1930
2965,1983,-5324,-5726,-752,-1667,-1384
2966,1506,1078,3930,-923,-500,833
2967,-1890,382,119,1794,340,-1678
2968,4046,-3346,-7525,-778,-1865,583
2969,6788,-2617,1002,438,738,1961
2970,-425,597,-2519,-1764,-504,-279
2971,-1107,6884,-5412,-272,1679,-1601
2972,7306,-5638,4628,-651,-919,109
2973,-3095,-4457,-5973,926,1795,53
2974,-1804,7345,-6653,1056,-117,-231
2975,-3899,6399,-6023,1117,-1798,-1597
2976,3923,-5299,-3889,747,1928,-294
2977,-2835,-7178,1036,-1405,1560,292
2978,4347,1257,4878,483,953,68
2979,5356,-6104,-4840,1002,1440,-1349
2980,-6296,-815,-2553,567,-771,-424
2981,-6508,6029,6238,1850,719,-1245
2982,4885,6352,-2038,1154,1157,-684
2983,4799,2259,-1215,-1485,452,1588
2984,-697,4655,-2067,-1079,-1716,-1940
2985,6601,-1874,1831,1220,1420,-1290
2986,1498,-1287,5336,1083,691,1159
2987,-4111,1262,2947,-724,-1692,27
2988,721,-287,3932,-1331,1928,1339
2989,-1688,383,5692,-1770,494,-1014
2990,-4825,2302,-5517,1104,1742,561
2991,1388,1188,6125,-1895,700,271
2992,-2086,430,-5882,409,1446,1028
2993,-5073,-3596,1721,1692,1335,-767
2994,6034,175,5470,-685,352,64
2995,6782,6269,6446,-800,1653,745
2996,802,-5128,-3823,-228,362,1377
2997,-3454,-7825,-2982,1765,617,1992
2998,1045,-5496,-6951,-1906,-1298,58
2999,5783,-3537,4305,1792,1912,-561
3000,-6779,-3732,2227,-1471,-577,114
3001,6759,3999,-5126,468,-377,-13
3002,5918,-273,-4120,445,740,1217
3003,7009,4940,5883,1910,160,-1238
3004,5599,1680,-5061,168,-1148,-1286
3005,-2711,-1801,7334,1685,-413,-391
3006,4551,-721,5891,53,466,912
3007,-1528,6813,4411,93,462,-793
3008,2833,-5231,-4063,-1347,-1787,-1377
3009,-2125,6223,-4303,1595,18,-246
3010,-3399,2667,3239,617,-1209,683
3011,-3864,-4803,-5826,-1999,-854,-663
3012,4621,-995,-2455,-1319,76,-1438
3013,-3044,-7851,-3051,1229,-754,-1948
3014,-6178,635,-112,-1269,-655,-371
3015,-4038,-4723,5410,1431,1319,839
3016,-365,-4370,-5878,1344,1688,1936
3017,5234,-4106,256,-1308,-1651,-362
3018,-4084,-2243,-3592,-1158,-4,-998
3019,1628,2023,-6879,-1593,-946,-1118
3020,-2129,-5073,-4719,-1626,-1986,-344
3021,3926,-4529,5389,1228,1776,-468
3022,6588,4209,4803,70,-1393,1552
3023,-3082,-1100,6502,-1540,1031,-1405
3024,1656,-1952,-622,1828,377,75
3025,-2818,2051,6437,1259,1384,1209
3026,3301,-492,-2570,-775,823,55
3027,4738,4655,-1764,923,1298,-1655
3028,3100,7796,6093,196,812,521
3029,-1961,-6306,3787,639,-1917,751
3030,-7938,-4353,3524,-980,1860,1459
3031,6315,-3930,-7000,-1502,233,524
3032,5830,-2317,3476,1772,699,558
3033,4165,-4587,6371,80,1252,1490
3034,3018,-4608,284,380,-703,483
3035,7654,3469,5794,-302,-150,-315
3036,-591,4853,-3212,-728,165,-339
3037,-1985,1400,3976,-1032,275,-1627
3038,-1744,-1579,-6066,-1318,1305,2
3039,-4395,3616,-5309,275,730,1828
3040,-3794,5454,6724,-1314,971,-946
3041,7533,2910,-2317,-966,811,731
3042,-5615,3721,-1551,-1488,497,-1765
3043,-4068,-7307,1563,65,223,103
3044,-713,5749,-897,-1737,-1064,-558
3045,3110,-3461,861,-586,1511,-81
3046,-6494,1728,-1037,179,18,1500
3047,-5210,6892,-4843,-1526,986,-179
3048,-1475,2478,6682,1091,-1111,-519
3049,6239,5826,998,1679,-466,602
3050,-372,329,-3549,389,-1423,1160
3051,4946,-6863,5860,941,1921,1535
3052,2781,-1887,4555,-213,1269,412
3053,-2818,-1383,1587,1463,-836,-875
3054,6175,5874,5598,1993,-444,-1435
3055,-4287,-7999,-2031,446,872,-302
3056,-5957,-6428,2617,428,-79,-923
3057,-3809,-2907,-4584,-1768,-1795,-397
3058,-2517,-1887,2488,-1967,1118,-1325
3059,-2451,-2840,5924,-1962,586,589
3060,2027,-2581,-1210,-539,-282,-1128
3061,102,-917,-6667,-1159,-1171,-612
3062,7077,2174,-5816,497,-511,-424
3063,-4857,-2836,-3530,-1150,-720,146
3064,7993,-6360,-5112,942,224,1414
3065,269,1696,-2914,1152,1702,556
3066,3328,1624,-4108,-1943,-1188,-1150
3067,-91,3950,-6105,1582,927,-1334
3068,-4090,-2966,-7099,-1889,770,97
3069,5394,3874,-3054,1778,437,1285
3070,2384,-7331,-3052,-393,-521,-1516
3071,6570,537,6824,1777,524,-330
3072,-1415,-7933,1045,341,-515,-528
3073,4176,-4282,-6159,92,65,346
3074,-1385,-1902,4742,-928,948,1408
3075,-4044,4874,-2347,972,227,-959
3076,4910,5961,1494,-867,-801,-272
3077,-1928,-954,5667,-1497,-1151,-173
3078,-7461,4519,5993,1549,-972,-350
3079,-1592,3274,-7605,135,-997,-809
3080,1460,-440,-1275,-1658,-577,-979
3081,3164,1262,-2838,483,-854,701
3082,-3980,2806,-630,-1608,1875,-1474
3083,-5916,3340,-6479,-1059,447,1002
3084,7842,-3710,-2848,-1739,-430,-448
3085,7460,-5858,4438,18,-1849,1113
3086,3333,-5039,-3785,-1643,961,151
3087,-7671,-738,7564,148,347,-1588
3088,5199,7254,3488,-856,-677,-1971
3089,7441,7867,-4849,863,521,-813
3090,-7252,-6111,4662,953,-563,-894
3091,-3918,-3987,4502,795,177,207
3092,-572,3415,2027,177,1000,1308
3093,-2124,7097,-1624,522,-1398,1651
3094,-5115,1583,-5875,-294,777,-1373
3095,-1583,-6307,3078,-1787,1720,150
3096,5086,5230,298,-1317,490,-1671
3097,-5095,1869,-2854,1822,-1343,-1327
3098,-1142,177,-356,-79,-195,-914
3099,-4571,-6227,6745,190,1469,1932
3100,2888,-6153,1970,1427,1144,-937
3101,5000,-3107,-2909,-478,-1996,-862
3102,6267,2443,4886,-854,-1097,-1242
3103,-7587,-2067,-4498,-1727,-1904,-700
3104,-2401,-1220,7055,1588,-511,-1839
3105,-4010,-5858,5771,1654,1623,13
3106,-3387,-2935,359,1058,-798,1521
3107,5438,1377,-1878,-634,1691,-789
3108,7865,2866,-2735,900,-828,-1168
3109,4492,2151,-4415,1474,239,60
3110,2186,2473,-6896,107,-1468,-901
3111,2590,-3476,2776,-674,1960,-125
3112,-3285,6061,767,1539,601,-1234
3113,6799,-6392,-280,1973,-713,495
3114,-3945,-1336,-3225,-999,-1257,1375
3115,4640,-7953,-1423,-370,-1941,-413
3116,-2019,-2105,-7206,1973,-1862,-92
3117,-5456,-1957,-4772,1026,-666,-1790
3118,1761,-7933,-1161,-756,-131,1187
3119,-3161,-1653,4200,-1695,1923,-411
3120,-1241,2255,1103,-1554,-1938,-479
3121,-3054,-292,3122,1378,979,-606
3122,4345,-3021,1702,-445,431,1739
3123,-3785,-76,7551,-907,967,101
3124,2974,-647,-1464,-644,-1910,1554
3125,-577,2717,-7957,-748,-27,-161
3126,-564,-4434,1707,-1393,-413,1889
3127,4512,717,2379,757,-1812,-615
3128,2622,5149,-3917,1685,-548,-1522
3129,278,1298,-7205,1173,933,-1939
3130,-4564,3923,-2425,132,1297,1798
3131,7701,7562,-4342,717,-468,1959
3132,-6333,3415,-5676,-1257,-1469,-1276
3133,-5635,-2405,-6469,-1106,456,-472
3134,-5670,5001,-6336,-1664,889,-639
3135,-4225,-4048,-5482,1327,1012,44
3136,-3589,-537,-5566,494,1196,1038
3137,-496,-1561,-6586,1625,-1346,1468
3138,2595,-2899,-6419,-1661,-1286,-955
3139,5684,2562,-4470,-427,-738,-1385
3140,-1389,-5285,-4530,1907,-376,304
3141,2043,5994,7584,973,-392,-921
3142,-2686,1990,-6220,-860,754,169
3143,-7476,5516,1218,-1554,4,-538
3144,1906,2781,1639,-1429,-1755,517
3145,4257,5880,-2697,-612,1743,1765
3146,3479,4368,3502,-94,289,-603
3147,3691,4233,797,983,1257,473
3148,-1694,-2207,-1026,227,1100,388
3149,6105,7571,-2511,-14,1099,-1990
3150,-6479,1847,6621,-855,274,-207
3151,356,-5187,6221,1823,-1099,1352
3152,-567,3376,-5483,64,-1936,-71
3153,-1698,4571,-6637,-1260,354,1017
3154,1169,4330,-628,212,-1772,1989
3155,10,-1314,3789,1334,1798,535
3156,-4009,-2602,1282,5,205,1871
3157,-5798,-6810,-1952,296,-488,821
3158,-4096,-7316,-7126,897,169,-901
3159,-1028,-2633,556,-1416,368,1236
3160,-551,-7959,5932,-998,611,875
3161,-2171,-7132,5600,1518,1781,1358
3162,1703,-88,-1979,-1495,-355,-1261
3163,6895,4527,4644,1112,1915,1141
3164,6897,7342,3047,232,-510,-1346
3165,-588,-6095,-1322,-1468,1405,639
3166,1627,-5235,5438,-1179,-1165,1529
3167,999,2891,4489,940,-869,-66
3168,-2048,-6738,7730,-909,1736,-1747
3169,-5969,1413,1656,1311,-1849,1532
3170,7207,175,-2092,1640,-1845,245
3171,-293,3221,9,-56,37,26
3172,3770,4467,-1380,-186,-1515,-429
3173,-3501,7126,-6460,556,-1088,-1583
3174,-2317,1605,7421,1784,-631,-1245
3175,-3843,6989,-458,-386,1334,-1871
3176,-2001,-7214,-7115,189,-211,-1901
3177,4099,5586,7794,998,-1944,843
3178,3359,2429,-1409,-572,-1175,1139
3179,-5247,-6133,2322,-328,-1469,378
3180,-3558,-5662,1142,200,633,-969
3181,-6159,-3809,-3891,1676,319,-597
3182,-765,-2091,4892,683,-676,265
3183,5640,-6036,-1624,-898,64,617
3184,-1519,1182,6953,473,-1610,-1625
3185,2180,-5366,-3313,-1512,-836,-699
3186,4847,-4911,-5134,-655,-120,1104
3187,6042,-4140,4390,-1923,-260,1206
3188,-6667,-4230,487,-1857,-81,359
3189,-979,-1134,2459,-1595,-1963,217
3190,7243,5671,-3810,-1237,1883,1812
3191,4328,-4891,1101,1764,-1758,995
3192,-5271,-6924,-5933,-561,1226,-1079
3193,5438,531,-5362,441,-1041,567
3194,-1783,1356,1383,397,1519,1783
3195,7395,1966,-5510,-20,-14,934
3196,-3734,-4956,3717,34,160,-791
3197,4425,1057,6527,1756,-578,1642
3198,566,-7080,2765,647,1443,-1153
3199,1294,4163,-7060,1171,1560,-1841
3200,391,7739,709,393,-1388,-1739
3201,-5718,-1100,-840,-215,-1806,-321
3202,4969,-5725,7780,-1980,-101,-522
3203,982,1878,-5269,1955,-869,1139
3204,-5874,3363,-3005,1704,166,1888
3205,4085,-3939,5709,-1335,-541,-1261
3206,5732,7988,67,905,-739,-472
3207,5615,-6152,5965,788,672,-1993
3208,5050,3836,5538,-906,60,1423
3209,3607,6276,2091,-1419,-1062,1157
3210,5871,5330,-7921,387,160,-1659
3211,-5706,6202,6715,141,-1068,-952
3212,3423,6412,2378,-1917,150,-1510
3213,-1084,6829,-4812,-1482,-1397,-570
3214,3406,6491,-4362,210,-1478,-1874
3215,7724,-2704,110,-887,-853,-1236
3216,-1701,7304,6386,119,359,1230
3217,5976,2006,1211,582,337,-1180
3218,-7445,5473,5589,-866,-1398,871
3219,-2752,537,-4544,-13,-82,772
3220,3719,-6562,-1093,-1160,410,1665
3221,-187,2857,1465,-875,996,827
3222,3966,4289,-4174,957,-1337,522
3223,-3356,1012,-2095,-533,-730,-660
3224,-6364,6442,7647,-1691,-304,1727
3225,-6971,-6631,2970,254,1218,-363
3226,-6051,4695,-340,1571,1930,-262
3227,7286,-442,2098,-967,-1897,-114
3228,-3642,-4303,5391,1335,1400,197
3229,-5119,7309,4684,1362,1352,-1907
3230,436,-51,5876,-10,1058,-424
3231,-547,4987,-6388,-281,-1140,-1193
3232,-1625,-7378,-4822,-143,-32,-65
3233,-3496,424,6631,1976,-439,-248
3234,4209,-2878,4614,475,627,-463
3235,-4369,7101,-6482,-1590,-1184,-1019
3236,2237,1180,4844,-546,-1363,-1127
3237,-3332,5749,7378,-1983,1600,558
3238,2166,-7849,-6107,-325,-874,-1537
3239,-5518,6253,1727,-478,1927,402
3240,7455,7868,3866,-798,-1294,414
3241,-4447,-155,-2784,1520,-1954,187
3242,-3416,6888,4880,-756,-131,1238
3243,1291,6019,-6096,170,1678,-258
3244,-1374,-135,-3587,1248,1695,716
3245,-2480,-2828,-6645,-1715,638,-807
3246,2296,-3799,-7381,625,-1247,-1115
3247,7595,-1915,1601,770,-132,1764
3248,-2137,334,5782,796,572,-1770
3249,6930,46,-6289,-358,256,1485
3250,-7335,3762,-2724,-899,787,1418
3251,2341,463,4423,-919,1318,-1668
3252,7731,-4965,4258,-1806,-310,1427
3253,-2099,-5471,6861,-603,-1421,1275
3254,-438,941,6916,-964,-929,85
3255,-5372,-3721,6638,-1141,-889,676
3256,3369,1883,961,-346,-1155,1103
3257,-5405,-7688,-6838,-543,-875,-801
3258,-4440,-5056,-6392,941,1354,-1749
3259,3072,7127,3764,-1244,228,-1910
3260,5004,-1140,-4209,492,1811,460
3261,-5146,4740,7347,1898,1361,-1201
3262,-2430,-5069,1668,1745,964,-1064
3263,-4882,7013,-203,707,-673,-1130
3264,4551,-3044,-4344,-1594,71,-1574
3265,5126,-4997,-75,1927,1014,-561
3266,-4671,-7810,6041,1269,-1616,963
3267,-6401,-2988,-1442,460,1814,1836
3268,2190,-934,-2601,-1661,-1600,469
3269,-2600,-3917,-2078,-1444,1092,-147
3270,1125,-4081,711,1275,-1828,-930
3271,-2765,7895,891,-1734,-1247,1399
3272,-6475,-7143,1430,147,797,-2000
3273,-82,-7249,7357,146,1458,973
3274,2030,7034,4680,-305,-1586,1840
3275,4820,-5834,2691,797,1694,852
3276,790,-49,3907,-1374,-1500,-1508
3277,-7263,-393,2602,617,1040,1655
3278,5644,551,-5518,-1947,642,1823
3279,-4281,-3381,-4617,1141,-870,-843
3280,-3213,4923,-4082,1455,-1551,307
3281,6970,-3717,3573,1855,-1421,-1067
3282,290,857,7909,67,865,1229
3283,-6597,-287,1638,-1994,-723,-1992
3284,6672,-464,7988,-1918,1259,-1828
3285,-816,-2303,-5814,-1838,-901,-1384
3286,4684,-4088,-1584,1909,1044,-1442
3287,4956,5104,-6443,987,-598,1588
3288,-6125,-5335,-3309,1512,-678,-848
3289,5656,6908,-960,896,-1574,-712
3290,-2348,2903,-4083,-1204,-1173,-1422
3291,6490,5004,-867,584,-520,610
3292,634,6016,853,-639,-1951,-810
3293,7534,3059,2869,1511,221,-827
3294,2991,1100,-1837,-1822,569,-611
3295,-3381,-4136,-7930,835,775,118
3296,6342,-317,149,-442,-292,-637
3297,-3347,-122,1430,949,-395,1958
3298,278,3548,6659,-1371,519,-1596
3299,4933,1826,-3574,-1179,-402,1762
3300,3121,3455,-4292,534,-814,-233
3301,-433,6035,6948,1880,1570,951
3302,7034,-1512,7558,1105,1718,1032
3303,2922,4521,-1467,121,-19,501
3304,-6250,-5068,4489,-1566,-8,705
3305,-973,5099,-6343,1668,1495,-993
3306,6567,6142,7719,1947,-396,1857
3307,1048,-3670,341,-433,-1330,96
3308,1863,3560,-2928,-1455,258,374
3309,6321,515,7516,1691,660,-1111
3310,2537,4649,-4886,-700,-1275,1143
3311,-2716,2507,-6198,-1396,1685,-1514
3312,1811,4605,1181,1582,-389,-1859
3313,-7214,-1019,-3783,1992,1518,-1948
3314,-7235,3029,-7160,1009,-499,503
3315,-7772,4713,-4064,-1494,-1068,-938
3316,-3599,-1191,-6440,1740,-1051,1084
3317,1760,-1233,1515,439,-92,-1168
3318,4271,-4204,-2457,-1243,-450,453
3319,-4857,260,5524,-1420,760,1989
3320,-7172,-2126,-5120,-482,1531,-818
3321,-5979,6909,-191,187,-1571,-869
3322,4577,-4258,5041,-368,-1615,-1695
3323,-3852,739,-3782,1992,324,-768
3324,4233,-7867,125,438,-1094,1663
3325,-1338,7850,2372,-1350,832,362
3326,758,-3465,3389,-1193,1085,-1598
3327,2607,3088,1330,263,-1248,-655
3328,1982,21,-7353,-815,1423,-193
3329,6442,2557,137,-737,-1543,-45
3330,7536,3478,2613,-810,-1689,328
3331,-3065,-4629,3805,1904,-1522,-994
3332,5407,1936,2667,-145,-734,541
3333,5506,-3551,3404,-269,-955,1908
3334,-486,6500,-4735,-1551,215,-1388
3335,-6581,-1843,7211,190,1120,624
3336,5374,3693,-1277,-1928,-304,1204
3337,-5831,-453,6424,-817,-666,712
3338,6022,4651,5410,836,9,-452
3339,-2175,7191,892,-1843,1533,19
3340,7945,-2615,-5831,1052,-1379,-1440
3341,-2319,-556,-6788,-1296,378,-1428
3342,-1138,5866,-3607,1382,-251,753
3343,5601,5124,6193,660,878,-236
3344,3281,6730,-7535,-1199,-318,306
3345,4835,5641,-760,-709,-1641,1216
3346,-3824,7435,611,-801,-783,-443
3347,6171,7612,6009,-593,-617,-449
3348,-5070,-3746,3977,-201,1082,-323
3349,-6428,7241,4841,614,-317,-398
3350,5826,-1572,-2232,742,-1037,-97
3351,1929,1097,6102,402,1044,-1832
3352,7153,2167,-3542,-1261,-1201,-272
3353,-6786,3757,-1333,1312,-829,-614
3354,6608,-6820,-4833,-1404,-1792,-1269
3355,5418,6650,-2562,-1829,-514,-1388
3356,-3125,-497,-3493,-1332,-680,-1494
3357,7527,6549,-456,-751,221,189
3358,-4321,2305,-2690,-824,1374,-1171
3359,-6479,-4800,-7165,177,-1236,-1377
3360,7013,6986,-7265,134,440,700
3361,2585,-5878,4599,-83,1720,1532
3362,2808,2413,444,-852,-486,-472
3363,5628,-6466,3963,-546,-1792,-1825
3364,3257,5311,-6339,-953,-704,-1911
3365,4695,-3641,-854,-1004,-1592,-1610
