Sample,Ax,Ay,Az,Gx,Gy,Gz
0,-7060,-4285,4076,150,661,327
1,-2446,3901,-3187,-405,-781,1682
2,4951,-3820,-661,-1740,563,-1361
3,1491,6635,166,-284,176,-561
4,1109,7440,-6960,1158,-1900,-1386
5,-5787,-7167,5836,880,1916,356
6,-5244,6775,-7575,550,-1476,-509
7,-1805,-297,-7000,-1758,-1421,-1023
8,5506,5924,3756,1030,1673,-1216
9,-7742,-4083,-3506,-1665,-431,-1040
10,-2711,-6532,4531,716,-935,-25
11,569,4523,4468,42,-559,-1145
12,-338,-7474,-2709,732,230,181
13,-1566,7691,2846,-1551,1108,1837
14,6415,-1779,5985,257,-1826,-1878
15,-4291,431,-6130,1047,73,76
16,4944,6082,-4477,-1516,-1181,-79
17,-7900,-31,7693,-1863,-1471,185
18,-3922,244,7011,-582,-1201,-268
19,-3498,2490,-3428,-1998,-856,-979
20,2662,-5670,3407,934,1234,1178
21,-2792,2368,-5615,-1562,-1500,-920
22,2608,3159,416,26,-1377,-1601
23,3256,3845,-5741,-447,1748,596
24,-7242,1365,5210,1131,-711,766
25,3199,-2714,5934,740,1469,210
26,5988,986,202,1027,1412,1947
27,-5886,-5819,-4231,1061,1433,-903
28,-7705,-4686,4989,1842,-343,-1833
29,-946,6919,-3300,-552,687,-909
30,-6588,-5506,7823,1714,673,555
31,-6559,5309,-5333,1829,376,-1336
32,-1005,-370,-5787,-196,-842,-1300
33,6114,5938,6118,1084,-1978,897
34,-1966,3478,2987,-172,-1480,-322
35,4326,-3485,470,583,1486,1251
36,3976,-4099,-5435,-1011,1329,807
37,1644,-3796,-1221,-138,926,-1162
38,-137,4916,-7768,1638,-819,-1916
39,5987,-7808,-4306,1008,-1809,-351
40,-3931,3075,-5869,397,855,769
41,-4659,2209,4355,-507,1780,-1476
42,6104,-2162,-4021,-547,1515,-1163
43,6807,72,356,906,762,-911
44,-5661,-261,-4299,-1571,1868,-1289
45,2691,7261,5533,1361,-369,1772
46,2712,-6960,4263,452,-1311,1847
47,5919,7772,-4207,1401,1634,379
48,3828,-833,-116,1352,1917,985
49,-4381,3814,3818,1838,-1816,-714
50,-2682,-6291,3877,-1278,-1445,-766
51,4685,6735,-1544,276,-238,875
52,749,-7505,-6832,20,-170,-1450
53,-7037,5183,-1746,1903,-740,1830
54,6355,3342,-2572,-319,-829,72
55,4673,7369,-5955,1109,540,1521
56,7851,4485,-1383,-734,1219,-488
57,-62,-2731,4399,-1924,-1822,-969
58,3382,1687,-7669,362,409,539
59,-6349,-3980,-152,1857,1115,-208
60,-522,-1845,4655,1946,-702,-1307
61,-160,5317,-7101,1410,397,858
62,-3601,2556,-6766,-1826,-1573,1385
63,-1868,2957,-326,-1884,756,1242
64,-119,-1693,-2006,-1763,670,-1625
65,4192,5450,1596,1166,1273,-1065
66,-3612,-3550,4483,-1242,-914,-1221
67,-1996,-4144,-5963,745,829,298
68,-159,-6593,3273,-843,127,937
69,-565,-7502,-5795,1207,675,1014
70,-5423,3285,-2683,-759,69,879
71,-3435,5182,-4032,1187,-151,160
72,4266,7171,7802,481,-493,1590
73,-7828,7327,4188,-488,1,1001
74,-1554,-5559,2924,871,-1110,-515
75,2310,584,-596,-1890,-1362,14
76,7505,384,3511,-169,-1114,617
77,-3534,-5400,-6968,-1689,-1905,-1706
78,5060,6985,-4441,76,-802,-1375
79,3146,1590,-1075,1421,-533,285
80,903,-6773,-7476,1466,555,1631
81,-7896,-4835,3555,299,-1298,-322
82,5281,6089,5325,-1252,1887,-23
83,-7346,1345,-4088,-1244,-273,-740
84,4076,-3277,5695,-1675,1835,-445
85,1532,-5547,6131,472,1476,-1867
86,5660,1232,1444,-1986,80,-491
87,-6106,-3682,-1118,1152,-174,-1325
88,3321,-2163,315,221,1181,-953
89,-4841,130,-1730,510,-493,366
90,7965,4434,-7615,-1667,46,-1783
91,7651,3262,6096,-1515,884,-42
92,-2185,3851,3976,1115,-1534,1369
93,-282,7080,2709,-113,-1395,-1672
94,-4502,-2378,5443,1248,1681,-514
95,-6219,5230,1172,-580,-132,671
96,595,7625,2816,672,1407,-1429
97,-7812,-1947,2901,1170,-1648,1626
98,-1607,-4902,2335,-1984,355,1209
99,6259,2027,-968,-1140,-1078,-190
100,2582,7541,-2549,1112,-207,-562
101,4891,6786,-5195,-578,-782,-1049
102,5233,-1262,6072,-1340,1197,1383
103,-2189,7289,-4969,-696,1076,412
104,-2276,-1982,2376,1141,-387,712
105,4190,-3776,-3944,17,-1740,-693
106,219,-4526,-4725,-1435,-1078,-1532
107,-6026,6542,-1997,-1997,847,576
108,-6579,2034,6146,1498,-867,1150
109,2965,-3063,6991,-953,1033,237
110,4346,6582,-6537,469,-699,-1051
111,5425,4915,-297,1190,-1544,1229
112,2608,7348,-5045,729,-729,-623
113,6083,7007,2590,1160,1203,1136
114,-3406,-5189,-3403,-1572,-944,1848
115,-2325,-3362,4241,893,-1778,-1204
116,-6829,-601,3721,1465,707,-1337
117,6417,2725,2445,1431,-1015,1764
118,-659,-5482,-2591,1932,-775,-1052
119,-5165,7870,1203,136,-522,1997
120,7044,-6764,-5616,1117,-195,-19
121,1609,4242,4865,185,-451,-1594
122,4331,-1359,116,596,-1476,267
123,1452,474,7029,-913,-624,1033
124,-3716,7684,578,1892,-1041,1706
125,1671,-4816,-4789,-1115,-1430,1864
126,-2978,-902,-6645,163,245,900
127,-6972,-5004,-665,-467,511,-1466
128,3411,6143,-1252,-678,-164,-1943
129,-5399,-5145,-4257,-809,1131,26
130,6444,-5676,6075,902,17,1083
131,4682,-3177,6383,1150,1687,-446
132,-6361,4934,664,169,821,-963
133,-928,-5044,-506,-1358,-1198,-320
134,-1429,7547,-3654,816,1988,-1755
135,-2366,-4079,7484,988,1684,1045
136,-6738,2984,-6465,-1776,1800,810
137,-7693,-7202,6860,-705,-1716,-717
138,-7220,3541,7142,-1233,-530,1105
139,5483,-6170,7223,39,783,647
140,3241,3835,931,1747,-1358,-1900
141,678,-813,-3694,1349,-142,-1847
142,-194,4973,-813,-1727,168,224
143,-7000,-4817,-7670,1109,928,894
144,-6745,3649,-6911,616,-10,-109
145,6946,-2831,694,-1261,-1992,-655
146,694,1022,3977,118,-1542,-1820
147,6321,3130,6070,-1251,-1668,1860
148,-679,4002,1056,1031,1937,-1225
149,-4440,-3014,2326,-1059,958,-1233
150,1310,784,-4756,-1214,-1179,1641
151,3977,542,-7078,305,-1356,1857
152,-1953,-5275,67,1193,1050,-925
153,-4596,-6614,-3742,-1223,654,-212
154,2089,620,-5101,622,-1310,1961
155,-1681,3523,-7396,96,269,-1052
156,-3974,7389,3930,1810,1454,1269
157,-7022,4394,3714,548,916,1984
158,-1032,2669,-1628,1853,-1311,1014
159,2412,-621,1878,711,80,-1077
160,-6202,4216,1525,583,866,-445
161,3169,5503,2099,1523,1922,-951
162,-6624,-5957,-3341,101,-1169,435
163,-730,-3088,-4376,890,1692,-933
164,-5397,-4756,2867,-1428,564,-1313
165,-5228,-3464,-5716,1438,876,1714
166,4446,7974,5036,305,974,287
167,-6016,-1386,212,-1040,-1469,60
168,-3726,-7248,-1661,942,1263,464
169,-2134,6024,5517,861,-331,-1857
170,-7698,-6722,-4823,-1965,-786,1001
171,2770,-2142,4458,810,735,1389
172,-7273,-1058,4859,556,-371,-652
173,-3645,-6994,434,-432,-715,1089
174,-7002,-6448,4778,1339,-1204,-1991
175,-2308,-5988,3383,168,1850,-1093
176,7826,727,-7140,359,-1912,-1184
177,6440,-7215,-1096,1180,-279,-1296
178,2924,2758,-5561,-16,-1856,-670
179,2683,6544,7533,1454,-1370,890
180,4012,3080,-4511,-416,-632,120
181,-1080,-152,-2553,950,674,-1411
182,-6119,5015,676,347,-716,-1209
183,242,3710,-1150,-463,94,423
184,3396,-5951,5780,-198,849,-712
185,-2935,-7129,-4402,-1775,-1219,144
186,2231,7404,383,-741,-81,-1381
187,-6619,2419,-5087,1010,1519,-1041
188,2550,2722,-5790,-1950,-150,-1341
189,-2855,-5468,5597,-1947,-1931,-424
190,6865,7450,-5596,902,93,1194
191,3543,-1399,-7269,59,-943,224
192,5880,-6412,925,397,143,1356
193,-2537,-3057,1569,3,433,-1845
194,7710,-1783,5224,1057,-176,202
195,4510,-2318,3637,1474,-1192,1314
196,-6086,-788,4507,33,-1771,-607
197,-2904,-5326,-5629,463,-1820,-822
198,-5284,1139,6851,391,60,-546
199,-4922,3317,-5688,-1471,426,1043
200,-2804,-4833,-7228,-1045,1936,-966
201,5216,4945,7241,1913,-687,427
202,7265,6826,7570,-90,-1110,1847
203,7266,4981,3503,1455,-294,-58
204,-4820,-4151,-7417,304,1583,1799
205,-5568,-1523,-6676,-1179,1424,1869
206,6856,-1113,5168,-36,-1265,-1524
207,1346,910,7152,1482,-732,-302
208,7856,1136,7857,576,1633,-1604
209,1531,4573,-51,1798,655,12
210,-1501,3722,-1811,-1926,-599,-808
211,238,-3615,5159,678,-1914,1710
212,4114,3035,3835,638,205,537
213,-1714,-389,5365,88,399,-1555
214,7830,6703,-808,836,-563,-1524
215,2425,-3820,-2643,-1938,1957,93
216,746,3332,-6962,252,324,1311
217,-6008,-1770,1148,-1907,-1332,-1432
218,-5176,3838,4043,-762,542,284
219,790,1264,-1276,-1487,407,-1342
220,1448,-200,5286,1698,-1678,888
221,-7207,1635,-279,915,1515,-1449
222,5842,-603,4169,505,57,1112
223,-2054,-1251,660,1296,-312,1730
224,6671,7032,2988,871,1158,874
225,7074,-1609,-3173,170,-10,990
226,-532,5054,-3847,239,238,-1760
227,4382,4215,-1551,410,523,1399
228,7801,-4998,-423,-83,-1501,-539
229,-5557,2014,-7541,972,-1408,-565
230,1652,-443,-5527,1064,-713,5
231,6445,-1175,-4007,-748,1082,-952
232,-2644,5226,-1026,84,-1777,-1161
233,-4458,3165,-3136,-1187,1355,-1239
234,-2968,7399,554,-412,-1951,-1599
235,-46,-1266,-7041,-929,474,1288
236,-6257,-4039,-3030,-1512,185,-1641
237,-239,-2393,1364,-143,-1337,1799
238,4627,2945,6488,1103,-1203,1223
239,3678,-1421,-4028,1901,-295,-1570
240,351,7652,249,1740,386,1486
241,7565,-7705,7768,1372,38,235
242,2478,5693,-728,-1173,1061,-1985
243,5086,-4028,-1791,1035,-254,1037
244,1466,-6750,-7989,1097,-1031,-1527
245,-2776,3606,-7504,234,-1163,-1263
246,-7086,5965,2272,5,-1802,839
247,6884,-98,-7103,-174,-1468,1067
248,-76,7308,2970,-736,1575,1905
249,-894,-2999,-6970,1930,548,1919
250,3383,2737,5129,-811,-1367,-1836
251,-3092,-4504,-5068,52,339,833
252,-818,3607,6029,-593,-445,536
253,-5777,5400,-3493,-1637,-596,1292
254,-4516,762,7805,-303,-1491,-148
255,7850,-3982,972,-310,1377,-569
256,728,-389,3792,935,-1223,-624
257,759,4336,-1671,376,-1668,-270
258,5474,3438,-7368,-868,253,932
259,5206,1268,-4711,109,760,-409
260,1392,-5783,-1633,-1081,1401,-1552
261,-24,7040,-5787,1285,1055,-751
262,3201,-3399,-6996,-1463,1124,-1877
263,-7623,7307,-5185,137,-574,-257
264,-3988,-159,2345,-1876,-1400,1605
265,3064,-4558,617,842,-1191,-666
266,-6662,-935,2589,-240,-1093,1617
267,-1438,-3226,-6349,622,-736,1671
268,2934,-4587,67,760,-891,-1806
269,6080,-67,6507,1735,1162,-1164
270,-2912,-6027,-4402,169,1545,-1002
271,-6573,7977,-6976,-584,-363,-120
272,496,7591,-1324,1301,1925,-391
273,1401,-5573,5580,435,1708,1734
274,7099,1552,5428,-763,202,-140
275,-284,-7769,3033,1964,1649,1793
276,-2276,6528,-1134,-598,258,1926
277,-4703,-1390,-1050,803,-409,-962
278,7261,284,760,39,229,-1639
279,-195,4549,7836,228,-1328,1133
280,4034,5164,385,-332,-1842,1225
281,2224,-4164,-125,1128,1041,429
282,-4305,-3571,-5882,1701,-600,-1146
283,760,-944,-4311,1814,-1105,-736
284,1594,-5046,-2443,419,-1622,-234
285,507,-6697,-6693,-437,763,-1228
286,2006,-7522,-7693,1684,-1734,90
287,-304,-7192,-7014,-1357,-203,1089
288,-6387,2201,5669,1704,-57,-1536
289,-6262,-6276,3141,605,349,-1212
290,-4578,7651,-5911,867,907,-859
291,7044,-7432,-2115,-1051,1135,1852
292,-7653,181,6113,-1569,1863,-408
293,-1043,-1158,-109,-1840,1751,1139
294,1923,-7047,2519,-1295,1535,-1333
295,2250,-6637,4097,1532,1723,9
296,810,2671,4016,-1144,394,1689
297,6386,-5499,-6337,984,-1420,-103
298,-6187,-5659,-1803,1112,1326,399
299,-2648,1570,-6718,1200,1615,1593
300,-965,1759,-3490,-1501,87,-1671
301,3088,2197,5987,1502,-1382,-242
302,-3304,-7838,-1270,1805,-721,-1241
303,-40,-3294,1689,1886,-1605,1270
304,6186,-2484,810,1746,322,-1187
305,-798,7821,7921,-54,-1593,-438
306,976,7611,3140,639,1705,-1674
307,7130,5672,-1030,-1422,207,817
308,-4893,2544,4818,-711,665,-417
309,-4421,5164,-1840,926,-1968,-565
310,1038,2685,3402,1527,-874,-1927
311,3020,6938,-2126,-963,989,1372
312,5400,3651,-5445,-597,-117,-118
313,863,-3793,-48,-1837,1046,-273
314,-6635,5388,326,-1448,-134,344
315,-5436,849,7995,1934,-1553,-1060
316,-4059,2633,6343,-1531,-1358,1134
317,4735,7573,45,1917,-1729,678
318,1693,-2928,1303,-1706,1498,-1985
319,-1824,-6929,-992,258,1660,137
320,-465,-4365,-877,-1380,1377,1517
321,6311,871,7468,1869,-254,99
322,6303,632,-5145,361,-1114,-931
323,5738,16,6956,543,-1065,-1331
324,6463,132,1982,227,-1389,-975
325,7036,739,-6767,779,-736,655
326,-977,4974,-4389,-1181,1123,1550
327,3752,5461,-1549,1081,488,1391
328,3048,111,-1609,1644,-1029,-979
329,7362,773,-227,519,99,350
330,-3029,-398,3679,602,-64,1348
331,-6578,-3387,7181,1133,-588,56
332,-6302,3105,200,1336,796,1758
333,3372,7331,-1968,1760,699,268
334,6584,-855,7998,795,931,-69
335,-7990,7055,1151,-911,998,-788
336,-3795,-7887,-6022,304,-1299,314
337,2494,495,-6841,1814,-1679,-893
338,-5445,1160,3067,441,1960,1281
339,952,6571,2068,-1593,-1214,94
340,-4510,-811,-1828,495,-1504,1691
341,2382,-2715,7413,1842,-52,931
342,-7021,-2745,5319,-850,-651,1724
343,-7634,5609,-2274,-400,-1619,1946
344,4303,-1641,-7922,-855,1619,33
345,-7923,-1951,5951,-1431,-1708,525
346,-263,-2542,-1423,-1095,-1371,-1172
347,6327,-5297,-2958,-563,-46,-1346
348,-1179,2757,6962,1966,741,217
349,-6625,2281,-2864,115,-1774,338
350,3906,3375,1884,-1008,1044,-895
351,-293,-5532,-2606,325,534,940
352,-803,-3365,98,-1816,-148,-1286
353,747,7506,-5437,-1463,1601,463
354,2872,-5638,-2197,-666,-1915,-106
355,6452,5415,750,-1872,-361,858
356,-4869,548,-5532,1422,-1603,988
357,1129,5740,-4102,-1775,11,-541
358,-429,-4035,-5001,-786,-1878,152
359,6583,-4582,2449,-1596,73,-1663
360,4118,-2567,-6717,310,1637,350
361,-354,-7996,633,-1919,-1662,-1395
362,-4041,5036,-4160,300,-1367,1186
363,-2118,5827,-2154,792,-1477,-1383
364,4416,5705,-4813,484,-77,-1822
365,3908,-4920,-615,-1338,-1441,1533
366,1580,-6790,1359,-262,831,771
367,6907,7072,-6939,1739,679,409
368,-5611,3755,-3389,795,96,927
369,-2789,-2518,-4039,-621,-1016,858
370,1374,-1375,1046,-1414,-396,-97
371,-2272,-1273,-232,-981,-900,-616
372,-6837,-395,-2009,1411,1883,-877
373,2411,-5947,-6772,668,-1548,724
374,-4394,4235,-1009,-1221,830,226
375,-273,-2606,235,-1405,-601,-404
376,7377,-7981,-6664,-421,-1133,1230
377,7378,1924,6677,-3,17,-533
378,-6637,7318,77,659,0,-1279
379,1787,5307,-3315,-1573,-408,-781
380,293,-1390,-3509,1989,874,-1198
381,-4044,-2972,4743,-1591,323,368
382,4801,-6778,5863,1954,555,643
383,-205,-7512,6778,1958,-877,-229
384,1848,667,7726,-1310,1288,-1548
385,-2145,7395,-5085,-1597,-1255,1877
386,2477,1578,6965,-1970,-1897,11
387,3651,-4660,-5048,-104,781,555
388,1890,-7768,-4260,638,1920,1800
389,-2167,-531,-3629,1857,-951,-1029
390,5752,6305,-6023,1187,403,-141
391,6973,-7395,514,1966,1630,-1916
392,6196,5880,1731,-1751,1098,1043
393,3344,-4124,-7381,195,-803,1360
394,3762,-6636,-7651,1250,545,-942
395,-1247,-5440,-3120,175,857,-1092
396,7378,1220,-2150,571,1533,-1225
397,4760,-1427,-510,-1578,1728,1862
398,-7748,-7726,163,-772,-940,-1076
399,2144,-4124,5972,1865,-1482,-1341
400,7004,-6734,-6927,-416,-1493,1443
401,2999,-4836,373,1729,725,-483
402,-6395,7543,2771,1650,50,-1831
403,4,811,6145,454,-10,1849
404,-3386,6809,-4094,1123,669,1917
405,3505,-1429,641,-200,-861,-352
406,76,3096,851,629,-704,-1153
407,2159,-3210,5619,604,292,-773
408,-4369,-2472,-2714,-674,267,-817
409,-2626,-3542,1824,89,881,-636
410,7592,7697,3767,27,-149,1211
411,-7792,3117,7370,-121,1970,-1176
412,7614,2660,-883,558,-1262,-1272
413,-5598,1223,4784,-1655,-53,-1500
414,7312,-2297,642,-292,-765,1977
415,5717,-1565,6101,1432,988,438
416,843,6715,6118,-1634,1397,-1715
417,6189,-4567,6038,-1560,1590,1465
418,-2789,-1673,-3852,239,-766,374
419,7760,5421,4495,264,1557,378
420,6758,4547,-4104,1954,583,-1873
421,6427,2818,-4970,-1671,944,-1804
422,-5064,5310,-2513,-1655,-365,-1318
423,7352,3425,-7372,761,-1803,1249
424,4615,-4849,-4765,-1581,621,-380
425,-4280,-2534,-5128,-1570,515,422
426,7921,729,-7916,-388,-1843,1679
427,-5505,-3111,-1680,-128,629,77
428,5610,6189,7999,-958,-340,-486
429,340,1539,1834,-1043,45,960
430,1524,3489,4741,1029,-482,-1886
431,-3820,5644,-1704,-979,-1139,1003
432,-1949,-6506,3098,-276,-149,1646
433,4198,-4397,6692,1927,518,954
434,3548,7772,-7498,-1906,-992,227
435,2125,539,3690,-701,-301,-266
436,3917,437,-2492,-1133,1421,-1266
437,-2077,-4469,1988,-970,-393,1323
438,7265,332,-4499,-880,226,-560
439,-2499,5962,6656,-307,1728,-744
440,3350,-5874,3822,1816,315,104
441,7067,-6465,-1294,-1055,767,-1897
442,-2950,-4044,6533,1489,1926,542
443,-4883,-7580,-2179,-1261,532,-1111
444,4996,3275,-7139,-1432,1939,-1560
445,-4830,386,-2266,470,-1306,1916
446,5797,7588,-3756,785,54,-1352
447,254,1695,945,244,1437,1393
448,-4403,5095,4844,-1692,-1419,-1589
449,6055,-5829,3403,523,-997,-1869
450,4915,-1316,-7957,829,-1691,-1505
451,6967,-6041,-6977,825,758,1619
452,3422,602,-6146,-1071,-1369,1365
453,7441,4675,4993,1987,818,930
454,3590,747,6327,-1945,-401,1234
455,4965,-6362,-3267,1823,1177,-934
456,2272,4930,-4671,1849,1548,1327
457,-6091,3659,-5954,1325,-1405,-1245
458,-5653,6360,-1989,-154,-1176,-644
459,-417,6354,309,-1412,-772,-479
460,-4392,5274,2231,1908,-1476,171
461,1781,3784,7388,623,-1302,-455
462,2436,3860,-7654,1120,1310,-1300
463,-19,-1467,777,-32,-110,-1029
464,4006,-6608,-5523,-1963,1962,1670
465,-4398,-3152,6420,-1984,-296,1779
466,1851,7315,-1179,929,955,927
467,906,2967,-2598,306,1001,1542
468,6669,4888,-2647,1189,1159,234
469,-813,3541,6205,-1415,-593,101
470,-6765,-6286,-4692,234,1154,1389
471,710,-2237,5998,808,1981,-1362
472,-304,3508,1503,1505,-341,-918
473,-7287,-1771,7997,-1425,630,-620
474,-1214,-4514,-756,-1627,135,-1368
475,6483,-4594,-7925,-1314,999,877
476,3878,4892,-2149,-1589,-1437,832
477,7350,-4103,-5361,541,590,30
478,-6028,3453,6052,591,-554,-276
479,5489,2116,-1038,994,-169,-1188
480,-1552,742,-7333,-156,-753,1642
481,4370,1171,-5577,1766,420,-201
482,1975,-1398,-481,-980,982,346
483,-6980,810,5464,1729,260,1281
484,7337,7952,2265,820,772,-1375
485,-6964,2759,-352,463,-847,-292
486,1113,5412,-1719,-1747,1546,-565
487,-5786,5173,-408,-1036,-865,-1101
488,7488,-3038,3093,-54,-1526,-277
489,-6660,4931,-7780,-791,1966,-331
490,3965,-902,-1343,-990,-1720,-1619
491,2134,5609,-4084,-965,-1473,-1917
492,-4228,-3741,297,-440,1583,419
493,6039,6320,-870,-1826,310,-1617
494,1837,-6657,-1177,851,-1775,457
495,5157,3602,-6949,-344,-695,58
496,-6858,2882,7912,-510,-233,84
497,-6442,-902,4072,842,-1448,-1074
498,5161,-2653,4182,1303,-93,1218
499,-5318,3022,6564,24,621,1177
500,4159,-7664,793,654,-1382,-1846
501,-5639,5728,3467,1338,501,-881
502,1482,-7411,-1454,-413,1392,-881
503,-2650,204,4607,33,1640,-205
504,6300,5832,1256,722,95,1500
505,7051,-3440,6874,-101,1011,744
506,3918,-7101,-1813,-1905,1017,-1491
507,2074,2324,2153,-1616,1327,-1136
508,1399,-267,-4858,-483,-1468,-1738
509,4046,-5093,1564,-1376,-841,-1076
510,-1463,-1545,3713,296,1197,-1001
511,-6077,-2895,3071,-1617,-1959,-1369
512,4374,7803,5838,1532,-66,804
513,2567,-5020,3257,-1523,250,-1405
514,7380,6019,6606,-923,-1159,310
515,-4203,-7717,3025,-326,1890,-1528
516,621,-5356,1160,-1230,-625,-140
517,-427,-6195,7612,-661,967,-346
518,7746,-2148,-6477,1115,-1848,1978
519,6970,4209,-3678,1876,-384,193
520,-4839,-5235,3410,245,1574,1063
521,2290,-6135,3920,347,1785,-1068
522,-2184,5280,-6680,613,932,612
523,-5077,6437,1581,426,-1138,-1830
524,-471,-996,-1969,-176,1375,-888
525,7729,-6182,5270,-1,-1609,1638
526,2712,355,-6275,1581,730,1879
527,3082,817,-3954,1818,-1370,1336
528,1670,-6963,-7505,-578,604,-1130
529,7438,6420,-3504,173,1293,-896
530,-498,7426,-1518,-1291,-167,-1048
531,1273,-7151,6763,-1452,1271,1724
532,7829,4712,4686,593,-1477,248
533,-6671,2193,5706,-517,414,-707
534,1131,-303,-6676,-565,-1952,-915
535,-2765,4025,7383,453,-913,1683
536,-2095,6167,-6427,837,1645,-1792
537,-5351,-3770,4549,-1048,1340,220
538,1614,2443,4598,-880,653,-992
539,3211,-6554,-5576,-776,-1859,-1763
540,1606,104,6741,-291,478,1392
541,-6954,4339,-5977,958,796,215
542,6244,-1669,987,1312,-443,8
543,-3593,-3736,-5964,1183,-1791,-1811
544,319,-4064,-7188,1238,1146,1081
545,-5504,550,-7393,1303,255,-1914
546,3413,-5524,-2744,-990,-1269,1990
547,5838,549,548,-1328,1480,204
548,1942,3939,7488,-573,-135,-5
549,6422,-2434,5544,-969,-527,-1504
550,4468,1306,5496,-571,198,173
551,7258,5970,-3514,-1706,-1622,-1990
552,4454,-1120,339,1906,794,-116
553,6624,7075,-6273,-1330,1506,893
554,1145,3331,3658,1255,-469,198
555,-2367,-3684,2825,1754,244,1909
556,-7367,6107,-957,-929,-288,40
557,-4391,3649,7790,-808,-564,1086
558,1671,82,3040,1871,-35,-1882
559,4089,-4239,5886,-670,-1672,1788
560,3330,-4817,3603,79,-1308,-1248
561,546,-345,3166,1710,1037,1141
562,537,-6186,2696,1612,-1135,1224
563,-6905,1812,302,-1087,-1315,-1221
564,4537,-3713,3629,-1964,1784,-1653
565,2234,989,-6922,-1609,1500,-935
566,2276,-2536,5746,-987,1375,310
567,-5076,5449,-6240,-1188,-206,-698
568,-4674,-1151,-7382,1002,-1328,1546
569,-7776,-3012,-609,-354,-965,-1708
570,7935,-2757,4113,-360,-1523,423
571,-446,576,-5511,-103,1291,1529
572,-3756,-5078,-5228,757,359,-1221
573,3070,-6989,-1648,-91,-1535,-294
574,1858,-5709,2753,820,-404,-700
575,110,-7758,7488,1503,1499,-299
576,-3658,-328,910,-433,1535,1581
577,7956,-4978,1243,-1334,1089,1056
578,7109,4185,3424,-1819,-1312,-577
579,3450,3411,-3397,-1829,909,1277
580,-5580,-4802,-4484,-904,1501,-1741
581,-3534,-4708,1046,-1554,-906,1868
582,319,4952,6106,1890,114,314
583,6317,-1488,5400,-928,-529,-1113
584,-5583,679,-88,1237,1750,-1408
585,6344,-5370,7677,1634,-1298,1729
586,-7460,2684,5156,-1726,1656,-1472
587,-6296,1243,-6721,411,-1662,-1436
588,1767,7888,5659,1373,1287,386
589,6963,-4108,-4978,-1390,-1760,-153
590,-7686,-2250,7191,-242,-710,1816
591,-408,4702,-7204,-478,-1299,-505
592,-2543,-7672,1414,-61,-1368,362
593,2558,2086,2848,-230,540,-1905
594,-6098,210,-3721,-1664,-616,629
595,7739,-2449,-4286,-1796,-566,-143
596,-6769,2668,896,-1131,-1247,-329
597,-1461,6724,2609,826,-729,-201
598,3812,1571,-5083,1957,-964,504
599,4373,-6671,268,-758,-428,1256
600,-4781,6655,7425,-976,-225,-497
601,6458,7843,-7502,920,-1988,895
602,-7991,4162,-3061,-1266,-499,-1120
603,-4508,-4507,-2434,-1690,-684,-1127
604,-749,-821,3873,1340,-455,-1725
605,1821,5749,7714,1587,1437,-480
606,-612,-529,6540,1940,1446,-72
607,7410,-4170,-902,792,1663,-1516
608,-2107,7595,7511,1885,1653,-868
609,26,7258,-1668,-461,1046,1048
610,-3672,7310,-6008,712,-1902,405
611,-2907,-1696,1990,-780,274,-327
612,5180,-7458,-7179,-1516,593,413
613,335,-1738,3984,-1253,-502,34
614,6683,-7898,2440,-66,-492,-760
615,-1905,4060,5264,-1297,-201,220
616,6970,-6535,4376,414,275,1022
617,-5086,-2457,6047,-397,-104,517
618,4626,-3926,-2366,-1447,-1181,1651
619,5450,6958,254,480,1774,1575
620,-1884,5556,-419,474,-1824,1381
621,-5792,-672,-6556,-122,237,-471
622,4545,4222,7319,1372,-600,1838
623,-4343,5259,-83,1701,223,-1282
624,-6314,-3119,-2968,698,1773,1581
625,5509,2457,-1885,-909,32,-810
626,3457,5744,6822,-1063,298,1500
627,-626,5862,-6310,605,-381,475
628,-7358,-1177,4235,-962,-313,435
629,-1402,2694,4327,-1574,245,-1907
630,4598,-7823,6409,-1810,1735,-1494
631,-6266,-5647,-2202,897,-1685,813
632,6197,-3111,5522,1135,-1499,1927
633,6477,4692,-161,-1745,879,-572
634,-7048,-6256,4812,-1796,1585,1987
635,-143,-3176,-3680,292,1408,-414
636,-2508,-3636,-537,713,-1697,-1617
637,-4667,1669,-6742,1089,-1376,76
638,3043,-4226,552,-119,-1978,-1143
639,-5239,-1715,-897,-167,-1158,1645
640,6334,-3803,1729,1180,226,-1761
641,1194,-3984,-1066,205,1763,-1820
642,-2623,-3118,-113,-1492,-1541,616
643,-4532,-2014,783,-832,423,-867
644,3529,809,-6863,1964,515,-1565
645,645,5593,4955,178,28,-1704
646,7875,-6456,-4708,1662,-205,-503
647,-5947,7929,5918,-313,1979,489
648,-1848,-5731,1023,1178,524,305
649,-6927,6004,2855,-1702,1954,534
650,6320,-3747,4872,1782,1322,-419
651,-6739,-3109,70,-737,-1685,794
652,117,308,-7602,-765,-1083,97
653,-7805,3390,7295,794,1304,814
654,-1370,6042,-5679,-1130,-1759,-1531
655,-2026,-7387,-3519,672,146,48
656,-2285,4495,-2471,-1764,-1538,-1527
657,7489,5640,-6126,817,590,-1281
658,-3640,-6052,6053,1376,-722,1257
659,1370,7557,6407,-1948,1266,-1228
660,-5067,-3354,468,-1407,36,-1944
661,-6064,-1526,6447,248,-1865,-944
662,2398,-6781,2947,-1998,856,-925
663,6157,3277,164,1112,604,-1489
664,7675,5756,-653,-1848,-1454,-1939
665,1365,1134,4923,-1423,-1284,-1886
666,937,4020,7213,-242,-1510,-427
667,6601,-2843,-2236,859,-1086,1462
668,1770,-3327,-4633,545,1172,908
669,-5184,2577,2449,1131,-267,271
670,-3571,3171,7621,1448,-554,-1831
671,1172,2836,-353,40,1099,-1597
672,-6141,5752,4782,-1313,103,749
673,-1254,3683,-7385,-681,1982,1909
674,5254,-2336,-7042,-1897,-649,300
675,-3861,-6787,-4350,1973,-1680,-1405
676,-3241,-2243,6767,-1700,-608,-1085
677,3390,-7810,-1315,1661,-1116,-4
678,-3769,188,7558,-1238,931,-35
679,2070,1797,4440,695,-1904,836
680,1559,2718,-5035,550,-208,827
681,7069,3292,3891,1621,-1896,-1834
682,2427,-1343,-201,-907,-566,152
683,-916,3919,-5054,1686,327,741
684,-7546,-6254,5907,1201,1823,1050
685,615,-6822,7846,971,-1728,441
686,1627,3376,-1774,962,1464,1165
687,-348,-3404,-3378,-1120,967,1727
688,1381,7225,3035,-426,1900,-362
689,-852,4229,-1821,898,-608,434
690,-1862,4299,-4157,-1971,1884,-1959
691,4532,3649,-316,-797,-798,-1998
692,-5552,5578,1710,-1632,-306,-646
693,-1828,-5487,3169,328,-1290,-490
694,1351,4988,-5227,-126,1663,-1608
695,6380,7043,7851,1012,895,1960
696,-2263,-2497,2355,-203,1059,1211
697,-992,4243,-43,-34,1982,275
698,-6298,-1737,-2753,602,151,-1303
699,-2665,-7619,-1664,1251,284,392
700,-1332,2859,2985,1107,594,-1214
701,-6394,-231,6571,-542,1922,-1171
702,7329,4428,7769,202,328,-347
703,-4289,-5213,3042,-348,953,-1561
704,306,4070,-5296,833,-1002,548
705,4952,-4957,694,1124,-1038,36
706,6603,-2124,2471,1938,1713,1437
707,-1149,-102,-6825,1072,1127,1744
708,4997,4872,4549,1099,1861,306
709,-314,936,-3071,946,-1627,769
710,116,-2998,-5080,1249,514,1625
711,-1514,3206,293,758,-928,-516
712,7951,-4337,4886,-1866,1045,-583
713,-5106,5976,5481,-562,-1308,-419
714,-735,-5940,-4220,1044,860,-280
715,-127,3409,-5885,1326,1733,1718
716,-326,-4059,5041,1803,-1222,-157
717,-1481,-5525,6906,-527,1560,-1699
718,-2472,-3991,1055,-1099,-1489,-217
719,3487,3195,-2656,-1621,-1559,-1477
720,-6333,743,-646,941,-583,1322
721,3221,3839,2842,-1107,-1048,901
722,-5420,-2279,-6617,707,519,418
723,-2578,4655,4354,-328,-1795,-1405
724,-6605,-5820,3597,-824,-1706,-923
725,-5739,-7866,3711,-700,405,-902
726,1021,7878,-5153,216,1875,1647
727,7594,4215,167,-1086,634,-1050
728,3947,7561,-4983,-1676,1257,1002
729,2778,-715,-7721,-1469,-268,1522
730,5788,2763,-6327,-1778,-1780,1456
731,-4347,830,-7957,899,1601,-1410
732,6556,3486,-1411,-1792,1153,450
733,7850,2690,-1794,1667,1840,563
734,6842,-7663,-5816,-897,190,1571
735,6568,680,-1237,1365,-711,695
736,1838,7440,-1620,-1014,1737,-360
737,-673,-570,-2609,-1886,7,-262
738,7284,2591,-5211,-463,1095,1697
739,3819,-6149,-2064,1613,1222,-1403
740,-7485,-4047,-2619,24,1165,1508
741,-5890,-2094,5033,-1553,-560,855
742,2224,-6503,5100,-607,-1262,1703
743,-883,-237,-4356,-545,-1312,1515
744,5569,-4456,3913,-671,-235,-1506
745,2972,2731,-7694,21,-250,88
746,-2086,-2766,5710,-395,1615,-452
747,-7445,1426,7236,12,44,1687
748,-3891,5510,-2268,-1355,-1854,-1282
749,-402,836,677,1726,-1174,-812
750,7056,1808,-1754,-1522,-127,-643
751,-172,-4364,2302,290,-1613,-514
752,2745,-197,-3241,1443,1139,-560
753,2361,-5463,3052,1795,1406,-1553
754,-2642,-3168,-5936,-972,878,-1809
755,-1398,-4798,-2834,-591,-1070,540
756,-4445,7462,-5296,192,889,1023
757,1041,4869,-4943,-1698,-1785,309
758,-5411,-6664,-7257,-1243,1847,1852
759,521,2190,6804,-814,-1063,690
760,240,3162,-1710,200,-1183,-1793
761,6270,-6530,-828,-1703,-1584,-1008
762,-5668,-4246,6633,-1183,-421,-886
763,-5808,-3888,-7939,-5,1961,1889
764,-347,6204,-6040,775,-895,861
765,-3022,2926,5100,-1760,-1376,868
766,-5895,-5849,-744,-1855,-1531,-449
767,6707,-2009,6741,314,1223,129
768,5955,-7080,-2959,1246,-259,741
769,1055,1149,-7727,-286,-935,1604
770,816,-4399,4018,-1318,-707,-386
771,616,2111,7566,-1019,-500,-1102
772,1462,815,7986,-1277,-1777,-1343
773,-3806,1323,7993,1564,1043,-1788
774,-5690,1489,-6442,-230,-707,-132
775,-794,2090,4683,-1816,-1707,-109
776,6758,-3487,1705,300,1709,1309
777,-5295,-1237,7588,1135,-1671,-510
778,7466,-931,5047,1986,1569,510
779,562,2024,-6551,-1788,428,-806
780,6542,375,6837,-484,-749,-51
781,-2066,7552,6388,1439,-1010,-235
782,2703,-5376,-5595,-1080,1812,-1456
783,6316,-4152,-3039,-838,1431,147
784,5963,1689,5834,1838,-313,1537
785,-891,6988,-4809,1256,-794,639
786,-3292,-1993,3220,-1769,-1532,-1417
787,-2572,-5848,-3804,-1157,-1840,1994
788,3911,3979,-6434,-1657,1183,865
789,-4760,-569,-2826,-994,1311,-1551
790,6926,-7187,3514,1912,573,-1267
791,-2387,5747,-491,700,249,1292
792,-961,-3459,-589,1986,833,-521
793,-7870,-6443,-3149,1233,1630,599
794,-4457,-5972,1431,642,-1919,423
795,7476,-2582,-4620,1081,1729,-730
796,-4664,5527,5281,714,1732,-1855
797,-3878,7719,5685,1596,-919,1515
798,-41,5942,-7229,1413,259,-1049
799,6617,-4149,6631,262,-1682,-1656
800,7458,4612,4908,88,-742,1185
801,5642,5264,992,1533,1561,-752
802,6346,208,-369,1245,1502,838
803,5804,-3569,-1395,-892,251,868
804,-7573,-3434,-5136,-1026,1336,-1453
805,4682,-2471,-2980,1731,1937,-398
806,-4398,1854,-2425,-1572,672,-262
807,7500,1558,-6408,-1867,1147,-1295
808,3551,-7078,5586,-1915,1923,-805
809,-1187,1027,6249,1799,1115,-201
810,2307,2925,-2634,-1576,-475,1582
811,5315,-1135,7793,1160,-926,1484
812,2807,4886,1020,-434,-1544,1422
813,1528,-742,2982,1595,-1062,-239
814,-2854,1090,-4374,-1221,-359,-374
815,-160,4940,-2609,-542,-577,673
816,-5338,-378,-5931,-497,389,-607
817,5262,4733,-4464,-1625,1905,770
818,-4747,7568,3419,443,990,1157
819,-2610,7928,-3437,1149,889,-408
820,2601,4656,-3010,1406,-152,1161
821,635,-2253,-7956,-465,-779,-461
822,-613,3695,-3639,-1299,-279,-1147
823,-5536,-927,1140,-1647,-1587,-406
824,1171,-6962,-1625,1547,-444,411
825,2831,4154,4689,1304,1715,1188
826,-4066,1448,-4412,-1713,1315,807
827,5307,-5349,3984,-418,1892,-791
828,7133,-90,-5286,-1357,1930,-1453
829,6382,-7416,-7484,569,1971,1804
830,5024,2803,-4280,-612,-1786,-1790
831,4794,3998,7271,1646,1067,-370
832,-803,4335,-7621,-1969,-1227,1454
833,1649,234,2108,-1223,682,-1140
834,-6742,-4642,-4497,-1878,-1864,-795
835,1148,313,3847,-1396,547,-57
836,-4302,-1769,-4,1498,-1156,-1758
837,-7364,7910,-5749,1353,-139,-166
838,3735,-7388,7072,1592,-1179,668
839,7540,-4626,-3582,-1229,-628,-1015
840,2808,864,-7604,853,452,1401
841,-7685,-6029,6457,763,1961,1530
842,-6748,-6808,-1485,1230,1265,1549
843,-3892,-600,-7919,43,-216,383
844,-5104,5746,-7632,359,-110,469
845,1121,6997,-7699,-723,-1104,-1079
846,-2005,2072,5132,-1175,1024,-117
847,974,389,2018,-534,461,-109
848,-2275,6560,-7229,-1242,-161,-846
849,-4985,6553,146,-40,-1092,-142
850,-1908,329,7984,979,-746,1295
851,-3582,7119,-6409,1396,-1751,-1943
852,1661,-1588,2119,1200,123,-178
853,2816,3508,-3224,-782,-865,465
854,6083,7497,983,1000,19,-903
855,-6432,5710,7341,-1177,-722,1292
856,6156,5045,-5100,798,-1296,-850
857,5357,-3986,3388,1243,-1597,-182
858,-6874,-7080,-4214,-1030,-414,-1852
859,-7082,-1813,-6833,-1089,598,-1600
860,5,-2710,-7789,1398,-1892,-410
861,-6883,-4805,-4089,-1257,1823,-1698
862,6107,5382,-2549,158,-271,739
863,4841,-7429,-617,603,-1187,1275
864,4389,-6104,6219,-1467,-1558,1715
865,1704,612,7002,-211,-1143,1909
866,-61,-7828,374,556,-1286,1453
867,6137,7791,-4549,-1013,-1058,169
868,2447,-641,-1643,936,-1818,136
869,6076,6532,-983,697,645,-1657
870,3438,7616,-2141,-517,1676,1752
871,3060,-3303,1231,-49,853,-1933
872,-7569,-5012,496,-468,-810,-1032
873,6077,4475,-7871,1987,1329,1610
874,-4848,7818,-3382,997,337,-1703
875,-1063,2615,-2344,-488,1278,1645
876,-2857,-7695,-6267,-1401,1018,-747
877,-7125,1601,-1566,-1215,67,-480
878,4157,7116,2356,-11,1019,1260
879,-1231,-2881,1631,-1192,-1674,-1421
880,-4665,2555,3162,-1098,-550,-1213
881,11,-4907,6025,159,-1189,415
882,-2677,2481,-4726,-1617,1960,-621
883,2841,4377,-4716,-742,1244,-950
884,-6346,6025,-4674,340,1616,-914
885,5161,-5948,6203,-1976,-1272,908
886,-7833,113,-1446,-1748,525,512
887,-3347,3523,2509,-412,52,298
888,-1247,-13,-5583,759,-768,-803
889,3058,-5480,1028,-366,-1557,1312
890,6218,3625,-2637,309,-1037,62
891,537,-7758,-4719,-212,1595,759
892,-1340,3889,-3249,1170,-621,351
893,4373,6526,2040,-1691,-1382,-972
894,1385,-4868,904,198,28,705
895,-843,782,5907,1751,-107,-270
896,1858,-713,-3630,1008,725,-166
897,1601,3913,-878,1366,1415,1288
898,7177,-3107,5945,-1093,1753,815
899,-5079,-783,-4776,-408,-1279,-1396
900,-7696,4683,6116,-834,1759,667
901,-1363,6036,-5939,-543,-888,-1039
902,6780,-5816,5037,-460,-744,-97
903,1530,4356,-400,-1935,-1616,-1934
904,-4051,7764,6712,-504,257,1131
905,-6839,-955,2727,-805,-1114,-1000
906,199,-4559,-7372,-1932,1689,1593
907,1067,279,4079,1654,-1101,-1841
908,847,6339,-5033,25,-101,185
909,7047,-5754,7693,169,-174,-230
910,-2625,-3475,-3742,1827,1703,1178
911,4334,-6957,6159,-304,1588,921
912,-3875,1618,1777,-1149,-1141,-1881
913,-704,-6730,4545,-74,-418,-201
914,3607,-5002,424,-1743,-1706,352
915,-6568,-805,-3162,1433,1677,1354
916,3264,-3565,-7939,-1364,835,-104
917,-4938,1122,2424,1156,-200,-958
918,6242,2446,1813,-1007,1113,-1254
919,-5786,-1608,-6847,399,-1993,1815
920,-3634,-914,-7156,539,-1634,-1571
921,-4088,475,-4135,1278,775,1880
922,3617,2846,-3798,1290,-1114,-1471
923,-1484,2567,-6954,-793,1592,892
924,4268,4916,6649,1939,-684,-1898
925,-1244,1487,6788,-563,362,-698
926,7778,-1594,-5354,399,-429,1415
927,-7277,1852,1427,1756,1791,-1019
928,2190,-7756,-2297,-796,-1750,799
929,-1809,-6654,-2176,-646,-593,-243
930,7258,-3270,-430,1545,1431,1647
931,5559,1511,6882,1316,620,116
932,4758,3764,6231,-1032,282,558
933,-319,-6979,-3400,-98,-1550,-1417
934,2060,-1963,4567,886,409,-309
935,4135,-891,-3510,-731,-1,1741
936,4224,1501,6304,133,-9,1447
937,-2776,-6353,1063,1258,-1060,1362
938,-6348,-665,-5067,744,-1512,1053
939,-6838,3173,-2947,-1388,1115,-1120
940,730,6539,-421,437,291,1589
941,-7221,6675,5937,1197,-600,977
942,-4484,-4789,910,-1130,-864,-1706
943,6979,-7773,4439,835,-1333,1762
944,270,-523,6991,-1527,1881,177
945,-2590,-5528,-2722,1965,1674,349
946,-5886,-7957,-4392,1882,-198,1697
947,922,1593,-2541,953,1998,1980
948,4892,1146,-193,-144,624,-965
949,-4087,-4614,-5669,-757,-1255,-1420
950,7942,3645,-4546,-1830,-945,1468
951,3560,-3632,-7007,-1359,1431,-976
952,1085,-7685,1127,-368,-1018,733
953,6058,-7384,3461,-803,1018,1289
954,-6935,-4044,-1137,958,1442,1019
955,-371,1616,-153,1488,1518,138
956,6855,-2870,396,-197,861,-710
957,-746,2478,-2799,1941,167,-1162
958,-1607,-7182,3266,-586,-1323,-1246
959,-6960,-5303,826,301,1821,416
960,-220,2009,-2916,552,-1998,-1034
961,1883,-1632,-3102,139,314,678
962,-834,97,3834,-726,-588,1885
963,6679,-6970,2517,1812,743,1645
964,-4895,-6238,3124,196,-1440,-410
965,5895,7056,-1712,-202,-1055,-1230
966,-6097,-3765,4071,434,-1052,-213
967,-763,1171,6464,-235,-906,1158
968,-1440,4575,5562,238,1579,-310
969,-7514,-7221,2968,1452,-449,840
970,3067,2724,-3059,1491,1572,230
971,3409,1062,382,1863,1762,-545
972,-132,-2032,-7134,-169,-439,1390
973,5180,5851,-4853,1942,1930,-1763
974,-7342,75,4304,1916,-599,674
975,-764,3651,-4470,-853,-964,-1046
976,-7199,-6081,1573,-254,-1115,775
977,-387,6254,-5014,-1767,1445,164
978,496,4601,-619,1886,-1033,505
979,-2353,-6173,-1016,863,830,-1319
980,-581,7950,-4434,-1603,-1821,402
981,-6338,-86,3611,-344,1168,-911
982,3451,-596,-3070,1851,-13,-1624
983,7070,7669,-4705,-762,1179,-469
984,-3393,2108,-5995,1053,1841,-740
985,-639,1267,-6181,1535,710,1211
986,7102,-4568,5079,971,421,1553
987,5470,-5992,-7492,1773,1285,1222
988,-5189,2063,137,-792,-383,-1654
989,6571,-532,5797,-1811,-765,1348
990,7305,-2355,2002,1378,5,-599
991,-4122,533,2204,711,-1774,-1647
992,5800,2983,3354,-1031,232,-450
993,1817,-1048,6041,-981,1389,-1090
994,-76,-984,4472,-686,871,-1375
995,-3071,2360,1311,-1000,56,-1108
996,3922,-3334,3902,957,-403,1622
997,3840,-2573,-4690,1555,-238,136
998,6471,3727,-6292,1575,-1517,-1840
999,1592,2524,7124,1520,156,-1934
1000,-5185,-5457,-3086,1389,68,1612
1001,7167,2676,-123,761,865,1481
1002,2851,473,3471,1340,-1777,-965
1003,6118,-5112,-3360,-829,-1720,70
1004,-1837,-1812,-6177,-1152,384,-1811
1005,-5132,4653,-2505,-1948,205,1028
1006,1561,-630,3977,1271,1122,-749
1007,-5210,-4471,1984,-1670,-724,1242
1008,1289,7352,-4838,-758,-393,-996
1009,-4039,-6491,726,224,-749,1999
1010,7207,7722,1683,-112,104,1290
1011,-4969,-3817,4414,1177,-492,-718
1012,-968,-3625,-4657,1975,8,-1766
1013,-2103,1439,-3442,-1682,-439,-1214
1014,3063,-5394,-3652,-587,154,-1122
1015,-3163,-1356,5342,-1154,1812,-659
1016,-1572,6894,-6264,-1967,-140,511
1017,3208,-2843,7869,33,-565,794
1018,-7614,3199,2554,-1280,-591,812
1019,1222,-3490,-36,-1217,-954,499
1020,-2700,7677,4585,-910,-1728,-217
1021,7392,5687,2534,543,821,534
1022,3609,3602,-4662,-964,-1369,1988
1023,5135,1162,7649,1298,-862,-56
1024,1821,2992,1625,463,-245,-1471
1025,-6093,-299,1270,-1690,1862,233
1026,-1663,6523,-7721,-1119,868,-558
1027,404,-7602,-4543,862,141,329
1028,6552,-6377,-7713,-1080,185,-511
1029,1005,-6653,605,-368,1429,-20
1030,3424,5626,-3184,1141,1701,-343
1031,1533,5544,604,-1252,1611,-733
1032,6393,-2560,4141,830,-1543,45
1033,-7923,-960,1136,30,-415,926
1034,3401,-955,2965,1527,42,-79
1035,-112,-5725,-832,-584,-665,-212
1036,4190,7700,4095,-319,-1970,-698
1037,1129,-6187,238,-17,913,-1791
1038,4361,-7261,5877,1717,521,1440
1039,-2069,838,5546,1100,-1921,-886
1040,-6193,-260,5548,-495,1841,498
1041,4714,5285,2336,-857,648,1542
1042,7432,-5814,6680,777,-486,1167
1043,264,-6940,4538,747,-1729,-221
1044,-6111,-2798,850,1652,1376,24
1045,-3304,14,291,728,90,-874
1046,-4960,4838,-3470,-1819,-539,-91
1047,169,-1995,-2207,1497,891,-1655
1048,1601,4917,7864,-655,-212,-1279
1049,-4982,3934,-6014,-1987,-560,-1654
1050,-36,-1876,1523,-800,1247,-1232
1051,-285,-389,-4917,-1564,-407,179
1052,-5373,-5111,-1780,-844,1469,-1022
1053,1124,6368,-6844,844,-441,-360
1054,-5052,4413,-6055,-1485,684,-1904
1055,1793,-4714,-6722,1367,-1354,1026
1056,3409,-7393,-6094,1715,380,615
1057,4953,-1341,-4563,999,-1414,-115
1058,3592,-1690,3444,790,94,449
1059,7431,-603,2404,-327,1937,-255
1060,2844,4624,1881,-538,-1751,1911
1061,-3812,-750,-202,-114,185,111
1062,-2034,-6231,-2941,430,1928,-1279
1063,5397,-7210,-1632,-203,-1552,1414
1064,5167,-897,-1013,-1301,-1357,-1415
1065,-4522,-3352,-2164,1189,475,-575
1066,5164,-5491,26,136,1024,1807
1067,-6471,4225,-187,-1961,1380,683
1068,765,-4369,-7206,-1362,-840,470
1069,-7891,-4972,157,1917,387,-1036
1070,-4637,1963,5890,363,1833,1145
1071,-1763,-5144,1909,171,-1410,137
1072,1789,-5772,-4448,-1960,821,947
1073,-6449,-5193,-2855,1445,-416,-1191
1074,-7765,6790,4915,-1106,-809,280
1075,4718,-5650,6348,555,-223,1138
1076,515,-7976,-7478,624,-640,-1981
1077,6680,5263,5599,-1374,978,233
1078,-5472,6754,-6956,936,-1009,433
1079,6566,-1270,5639,425,643,-1014
1080,-5200,-828,-131,-1145,-200,-1044
1081,-6698,6470,1765,1204,-229,1810
1082,-1515,4892,-712,-1557,936,1618
1083,7804,-1758,3472,1938,-791,385
1084,5605,-6459,5407,293,1961,-1333
1085,3080,-6866,-2249,620,1169,-1169
1086,93,-4429,2032,-212,319,-754
1087,2334,4919,-6567,1426,-771,-723
1088,-1929,-3095,-4803,228,-33,-891
1089,-2063,70,-4546,-496,-893,268
1090,3237,-4647,-7351,-1053,1892,1878
1091,5973,-4732,-6413,-1117,325,-1403
1092,1430,-5099,-3416,-254,-375,1289
1093,6701,5194,1711,1913,1665,-49
1094,965,2446,6761,1481,1977,1723
1095,-6113,6067,368,1056,1709,-1977
1096,1093,2552,3982,1182,1178,1480
1097,-7470,-5718,-5709,-1941,392,1108
1098,-4877,1785,-1179,1150,-1875,-238
1099,1244,7787,4413,1927,1686,480
1100,-7377,5616,2948,1715,-559,1974
1101,6858,-4464,5490,-1787,821,-1631
1102,2547,-7623,-5275,-1110,-1318,-304
1103,7081,-5313,-2776,-1734,775,323
1104,4389,3063,1053,876,1110,-1518
1105,-7667,-7085,7325,1285,-1207,1983
1106,3717,6003,-150,1202,473,-912
1107,3415,3311,5654,401,-1175,69
1108,7165,-283,1403,-132,822,-1953
1109,-5258,3913,-3963,-1535,-1792,1600
1110,-1281,-1524,-4156,1699,395,-708
1111,-3839,1556,2195,1700,-1911,1980
1112,-4058,-5315,-370,865,641,862
1113,-4086,7540,814,-1777,855,484
1114,-6116,-4591,2712,-193,-888,1469
1115,-3280,-4206,6096,672,-1159,-652
1116,-241,-6623,-3262,-1269,360,547
1117,6374,-6613,-5419,1460,230,-337
1118,-7385,-5039,424,1794,1866,711
1119,3515,4400,7615,-14,-11,556
1120,-4560,-5031,3597,-653,1956,1963
1121,2248,7548,3518,1887,-84,-487
1122,-5849,1507,3823,379,-1521,-1313
1123,-4664,4621,-575,-1734,-833,-1150
1124,4744,4293,-6670,441,-1032,-1916
1125,-210,2700,6206,-406,873,663
1126,6735,4847,6716,547,487,1940
1127,4147,41,-1329,-364,1789,920
1128,738,-3311,1318,-1958,-1512,1577
1129,5467,-262,5123,411,-859,-1859
1130,-4846,5440,490,-1079,1200,-763
1131,1765,7791,-2678,-633,680,-798
1132,-1052,-7389,-2172,-1701,3,1940
1133,-6646,2728,690,1095,-379,-240
1134,-996,2477,-5867,382,1748,-1205
1135,3064,961,-2139,1414,-126,-738
1136,4670,6412,4205,1147,1766,-640
1137,181,4348,3510,1574,1264,-695
1138,-7181,-498,-2721,-1075,-1906,-1114
1139,2273,-4617,-2194,-1263,136,323
1140,2830,-7147,-7155,-1747,-876,314
1141,-5754,3144,-4101,-1687,-1198,397
1142,-5506,3955,5861,525,-814,1182
1143,5811,2847,-2483,-79,-160,-1429
1144,3519,-2412,1999,-448,-198,342
1145,2326,-1707,-1093,551,1620,1958
1146,1937,-5354,-2848,-1580,1968,1955
1147,4549,-5261,757,806,1392,1768
1148,-1203,-583,2627,651,-410,1235
1149,1536,421,-5238,-875,-1200,-5
1150,839,-1752,-138,601,93,1940
1151,7957,-3271,-2056,19,537,-1010
1152,4800,2532,3015,-917,-1058,-1707
1153,1948,5549,-7506,1575,-1308,-1337
1154,-4511,-2743,6730,-1145,-544,1756
1155,-3632,-6489,-1877,-519,-1610,-1849
1156,-6752,-1815,-6745,-39,-1222,-1268
1157,2076,-6470,6957,1918,1621,1522
1158,7142,7707,-4073,-1137,-1400,-1049
1159,-6414,-2444,830,-788,1635,309
1160,-1786,6615,3831,708,-768,111
1161,-6294,-5825,203,-552,-704,-123
1162,-428,-6719,7184,233,732,1911
1163,385,6664,-5602,76,-1237,-1848
1164,4984,6839,-7900,1167,-35,-1341
1165,3493,-3848,-4034,760,-1502,-703
1166,-4361,5967,4844,870,1216,256
1167,937,-1523,6509,157,244,-1501
1168,1958,3329,6552,-793,1449,-1665
1169,7220,-6323,-6804,1787,730,-867
1170,-1049,5146,2450,-504,50,-1844
1171,2219,-4072,5806,-1420,1923,-1023
1172,-4735,2397,-6933,1621,-724,-743
1173,363,4674,1666,-1135,301,1301
1174,2670,7462,3596,-1227,204,1369
1175,7602,719,7018,-1576,1514,353
1176,4966,-2408,3612,616,-1242,1898
1177,2262,-6675,-6886,-784,-627,807
1178,3814,-3816,282,34,91,251
1179,-7253,3059,4525,1314,931,-834
1180,-3057,-6098,-1797,-614,108,1315
1181,-393,-593,-3016,-999,266,1340
1182,-1632,5166,-2977,1683,-616,-964
1183,-4353,-3660,7034,1485,1743,-888
1184,5020,-3969,7704,465,-1429,-734
1185,-607,3117,-3522,411,-1499,-808
1186,3,6798,-3470,228,1531,144
1187,-4014,3115,7561,-142,1768,-1175
1188,-1007,-949,-5926,-185,630,1833
1189,-2093,6045,-3834,-1709,-289,218
1190,3949,2600,1904,-1314,-1032,-963
1191,-7364,2587,-957,-1597,1067,-902
1192,-1055,3335,1062,1497,258,-327
1193,1646,-2762,-3118,624,-216,1524
1194,7844,-6786,-5014,-1677,347,-37
1195,-4036,-1444,-5313,1244,1638,645
1196,4090,-7156,1006,-1555,-173,-775
1197,-5809,5458,-7019,-1421,1786,1601
1198,-1053,2397,-2882,-316,-749,320
1199,3316,6885,-3856,-1006,1068,-1338
1200,6188,220,6005,1272,1962,-122
1201,-7351,-6162,-7387,-460,-1845,1286
1202,-7646,-2520,-258,-498,-1263,964
1203,533,-2269,-7603,469,-677,476
1204,7375,-7994,-3281,675,-1536,-1291
1205,-1770,-2773,-1367,1957,726,913
1206,-970,5049,6484,-575,35,798
1207,852,-6057,-828,-332,-798,-615
1208,-1296,2063,5482,1892,1867,-424
1209,-6900,5734,7738,-1980,-1215,-538
1210,2170,7843,5354,1328,-839,536
1211,-6259,1011,-1569,-210,200,26
1212,7324,-6717,7240,1107,-893,-596
1213,-1585,754,-4121,1076,910,1634
1214,-3798,-5832,1196,-1961,-1430,-709
1215,3712,1084,3225,1874,1975,1097
1216,877,6134,-4726,1480,-1456,-1277
1217,-5530,-3841,215,753,-886,-584
1218,-7884,3698,1006,1522,-606,-234
1219,5248,4333,4636,-1157,1795,57
1220,-5433,-221,3833,-106,-1818,1410
1221,243,4465,4155,-765,790,1324
1222,-7312,-6662,4936,-1705,-1039,-513
1223,-3662,-1978,6040,524,-580,-1196
1224,-6019,5605,-792,-1021,1596,-1280
1225,6706,4053,7294,-790,1198,249
1226,-7850,-6862,1223,1233,1194,1569
1227,-5143,-11,7243,-1428,1472,-631
1228,6184,-4080,-7711,-832,1723,-707
1229,4074,7319,-6634,-1301,-1197,1678
1230,-4482,-7051,-3579,-1511,1453,-1127
1231,-2839,-4725,7968,494,1748,-613
1232,5251,7286,4512,1404,871,-1128
1233,2885,-5135,158,-925,-1448,101
1234,-2890,-2691,7013,1690,541,-1266
1235,-5324,5102,-1580,592,404,1724
1236,6646,-7524,876,-1965,1084,1644
1237,2429,-6571,4344,171,-1274,291
1238,128,-5028,7115,-7,-596,619
1239,3057,2715,1301,-325,-1390,1438
1240,261,-890,3805,1913,639,1443
1241,-6447,7356,-2413,-368,1432,1001
1242,3995,7050,3363,1190,-823,76
1243,-7274,-4512,-5042,-1800,268,755
1244,-1572,5975,-5739,1766,479,879
1245,-4853,-1115,-3865,821,-1541,1319
1246,-2208,-7070,-223,-449,1697,465
1247,2824,-3392,4070,-591,158,-457
1248,1112,1707,5575,1477,-250,-505
1249,2533,-7538,-5202,1793,125,-793
1250,-6466,-3518,5733,1454,-650,-349
1251,3554,-6902,-3375,-597,1607,-1809
1252,986,1014,2013,-1509,-942,792
1253,-1064,4314,-4896,-443,-1374,-1428
1254,-5981,-5888,-6824,1748,-927,1865
1255,-978,1182,7954,-1903,-800,-1234
1256,5396,2388,1449,-1321,1665,-1646
1257,587,-856,-3622,1801,-1542,-1382
1258,2666,4882,-7363,-269,-1869,10
1259,-6224,-5771,5794,1275,-1870,-1946
1260,-3223,7480,-2340,1017,-1995,-510
1261,38,935,-656,459,1820,-17
1262,3146,5590,-3506,-556,-330,107
1263,-4960,4920,-2693,-1977,-1614,-649
1264,4900,7248,-4696,977,-55,1243
1265,1177,-2520,5039,-727,918,1415
1266,5668,5974,4598,-50,315,-622
1267,-6936,-1571,-961,696,-614,801
1268,7552,2649,-1020,1084,451,1986
1269,5559,-7563,-277,-738,-1632,1404
1270,-7621,-6513,-4069,-527,-921,-447
1271,-1879,-1146,1986,-96,-798,629
1272,-4804,1821,3123,1952,1916,773
1273,-6273,486,3933,1711,508,108
1274,-5925,-546,-293,-996,52,-1930
1275,-5468,-4266,6892,768,1095,-894
1276,2294,-6819,7390,705,1884,1708
1277,2787,6884,-3972,-1963,-1606,-1979
1278,-2345,-3370,-3174,-1227,1019,-355
1279,-1020,-4844,-7799,-777,-712,-1732
1280,5014,71,-5207,640,638,-1372
1281,-6231,5647,3874,1056,1735,-1907
1282,7913,5570,-1340,559,798,-586
1283,-5050,-4959,-2253,-1543,-1438,265
1284,-5529,3397,-4156,-1068,-688,-454
1285,-3346,4992,3291,162,-823,-1461
1286,7440,1629,3125,159,156,133
1287,2384,-2872,471,1,495,211
1288,-4902,-620,-3342,122,-1016,139
1289,-1651,7819,-2827,1737,1802,-843
1290,1551,2991,6806,111,-46,-154
1291,2518,-4024,-2018,1190,187,1787
1292,5873,3085,-4001,237,766,578
1293,-3958,2074,2339,-1803,1079,-92
1294,-3419,3192,-5552,-943,13,-1967
1295,1244,7988,5362,-599,-857,-150
1296,-1298,-4158,-6641,-110,-992,-1006
1297,-1225,-7619,-3801,1063,-1831,1508
1298,6991,2933,54,943,1887,1474
1299,3705,-4295,-3696,-1847,660,1987
1300,3886,-7160,-7086,-1643,1387,1174
1301,-5909,7210,1116,1348,-1057,-1124
1302,7844,7760,-171,-964,-212,1404
1303,3514,3833,-2892,-1711,-1133,1105
1304,2597,3394,-4584,950,966,-1653
1305,-1624,-3035,-2295,19,1530,-1166
1306,-2202,-6968,-5163,-201,982,-826
1307,2131,-3310,1161,1348,350,912
1308,-1827,-5405,3207,-53,1374,-429
1309,-2915,2637,149,-1026,619,-1134
1310,-4334,-1121,5209,398,1870,-650
1311,2289,-4152,-2653,4,1637,257
1312,-1979,-4413,-3472,1359,1566,-1344
1313,-3086,768,-6601,-1921,-570,167
1314,-6337,1981,-3819,-836,1034,-1423
1315,-5894,2026,6172,157,1259,651
1316,7476,2856,-3413,-1950,58,-692
1317,3321,-6700,5438,649,-122,1763
1318,-6116,2975,7373,508,-442,-884
1319,3576,3616,4034,-230,583,974
1320,-5944,-6387,243,391,1411,1269
1321,-6486,299,726,1483,-917,-955
1322,-4553,-923,6031,-121,-889,439
1323,-18,-5604,2547,916,1570,1547
1324,1601,5747,6708,-1896,-1159,-266
1325,-5853,3153,-2027,-1458,643,1660
1326,-3304,6842,-5340,777,1603,512
1327,6183,7242,-6314,1312,662,-1834
1328,-3351,-5086,6747,-1128,778,1151
1329,-2141,616,-4694,-1716,382,502
1330,-5456,1317,4053,236,-1343,1301
1331,-1272,-5838,-1934,-1195,-1834,176
1332,-5252,1930,-6856,1229,652,-494
1333,3210,5359,-5070,1823,1239,1467
1334,5596,3143,1297,1181,1104,494
1335,3748,-1954,-6124,445,-670,838
1336,-2986,1800,-7184,-1218,1707,-1360
1337,2430,-2821,5419,678,-707,1937
1338,2472,3984,-3825,-1022,976,1170
1339,-6447,643,2518,-1345,-794,-482
1340,-2315,2018,-7839,578,125,-1809
1341,-6124,-2532,-976,-687,385,70
1342,-105,7833,235,353,673,1695
1343,-3463,5132,7037,-1080,1344,-838
1344,-796,5895,-5935,-1118,-445,1865
1345,-7084,1156,2835,-362,-1200,-633
1346,5480,-5423,6280,719,1990,-96
1347,4526,-4898,-2466,-886,846,-1298
1348,1277,4921,-2945,1034,327,-159
1349,-5260,-1416,3988,-189,-970,-325
1350,6863,5401,-7252,-1207,316,730
1351,-4773,7980,2737,-1830,1653,-1080
1352,4559,3382,2957,1655,999,-1388
1353,-99,5507,-4401,674,321,354
1354,-5938,-2648,3287,714,563,443
1355,6386,31,-5377,-1316,-1351,-1904
1356,-6966,-3974,-2269,-55,541,823
1357,-6341,-390,5494,-763,1469,1241
1358,-3961,-2426,-1473,-782,-1425,1194
1359,-4542,7765,4304,115,1031,615
1360,7987,4781,-7950,1057,-1107,-146
1361,-2351,5166,-4586,749,283,-1558
1362,527,2099,2317,-1240,1971,956
1363,7393,-6821,0,-210,819,1774
1364,-6538,-3488,-1187,-1579,1521,983
1365,-4043,674,5443,1392,-225,1017
1366,7398,-2545,2288,-1225,1573,122
1367,2196,-7316,-809,-358,806,-503
1368,-7154,7964,-5786,-1442,914,-703
1369,6193,4011,-416,-1065,70,-1006
1370,-6957,-739,-6440,-788,-1699,-1555
1371,-7434,-762,4564,355,-596,-171
1372,-6595,5164,-6825,433,-284,-338
1373,4607,-6461,-189,-1719,1661,1331
1374,-3617,3879,7927,-1742,-1837,398
1375,7356,-4284,3418,314,1465,1899
1376,-4288,-3852,-2156,1175,-1975,-1289
1377,297,-556,683,-1505,699,1869
1378,-6497,3750,6610,-1412,427,-433
1379,491,-6185,-7936,-749,1009,-1661
1380,-5650,5714,-2367,761,1181,-897
1381,5726,71,-3714,1251,-500,404
1382,5805,-5681,-7254,1647,-568,1464
1383,-3999,-2708,2065,-192,-1858,-867
1384,-3424,655,-1541,-287,-880,574
1385,7377,-3730,1166,-1350,-637,-901
1386,6932,-3262,-4791,1642,1813,-818
1387,5079,-7833,7840,818,-1548,1253
1388,5291,2318,7659,187,-800,-1253
1389,-5897,-3160,2600,-1089,-1743,1013
1390,1952,-3629,7178,1323,179,-775
1391,-3965,2781,-3171,-365,266,1365
1392,4505,3944,-3991,490,1689,666
1393,1070,1689,1917,1968,-936,-460
1394,-3831,1275,5042,-490,-788,-650
1395,3105,-2732,6538,553,-937,1065
1396,-2861,-6485,-3983,1436,1139,-191
1397,-4830,-2993,487,472,1728,-1753
1398,-221,3872,7022,1528,103,473
1399,2844,7170,-4774,-1618,1200,-1926
1400,5126,665,-7986,41,10,1252
1401,-1803,-5610,244,1818,-157,45
1402,-5652,-2243,256,-612,-1844,1793
1403,7662,-4510,5280,1788,-18,841
1404,1080,-520,5825,1345,485,-1042
1405,-6110,-7744,1883,-952,-1110,1648
1406,6869,4335,-5039,301,-1948,675
1407,2420,-818,-5315,882,284,-797
1408,6230,1245,5934,-1264,638,-1720
1409,5398,872,1467,-513,277,-1987
1410,-4875,2943,-2287,1096,-847,-482
1411,-829,6876,2371,-1329,-494,-801
1412,5576,7808,-6739,-55,1191,-1762
1413,2498,-2328,-3363,386,-1766,-814
1414,-4997,-6878,1211,-364,-1695,-1017
1415,-6004,-2333,6032,-60,-1859,-645
1416,-3484,7513,-6647,943,-1533,429
1417,-5827,929,6902,218,-1147,1253
1418,-3453,-823,2135,-413,-1868,-533
1419,-6017,2338,-302,-1289,939,1849
1420,-1834,4547,-7086,-199,-1596,542
1421,-3496,-2184,7359,1198,-60,-591
1422,4749,2932,-3850,-665,-164,1430
1423,5449,-1389,2112,1759,-1842,-1687
1424,-5997,-3117,3081,1360,-15,-349
1425,-2424,-5327,-6788,-1016,-1703,-1329
1426,5323,2058,281,-261,890,1087
1427,-4849,-7020,-3039,-163,-170,-1324
1428,2172,-2250,3078,543,-635,-1166
1429,6972,194,-6862,634,-534,1222
1430,6750,-918,-2689,-1773,-274,900
1431,1659,341,-3571,948,-1756,-1367
1432,3316,822,-7051,1665,-1535,-1177
1433,-1544,3653,1578,537,-830,1415
1434,2452,3814,5529,-518,-2,1887
1435,7750,2390,3754,-254,-1494,1092
1436,2249,208,-249,375,-128,-588
1437,-7416,-5592,-6312,1419,-618,-1204
1438,-7668,5248,-6030,1464,-1920,-1302
1439,6898,-3313,3990,1196,-1093,-579
1440,-1152,-1548,-4138,863,-699,-923
1441,-1455,7753,-7970,-1871,-69,1323
1442,2820,2117,6618,1441,1585,-1075
1443,3364,3976,-7790,-746,-1868,-848
1444,-3505,-6460,6693,8,-1270,1078
1445,-7280,-2547,3085,765,45,-95
1446,-7249,-5961,-1984,-1725,-1059,39
1447,2135,1791,-669,1480,1394,-499
1448,3113,3084,-4438,-1404,-780,1111
1449,5337,6902,-4526,-1430,1713,-892
1450,5011,7167,-7778,-104,-838,-369
1451,-2726,-7373,-2562,1919,-1187,99
1452,7737,2294,-4441,1126,1200,414
1453,-5276,-1628,853,-1253,1672,-745
1454,-1107,-6533,4969,418,-467,-562
1455,-3463,-4537,-4810,872,136,-1925
1456,-3898,4213,-7197,-1309,-316,223
1457,-6123,-371,-3536,-482,-110,1015
1458,6687,7873,-4362,-1973,20,373
1459,-7349,5191,-2261,1649,1582,162
1460,-3039,-5662,4747,306,-904,1095
1461,-2885,6051,-6165,-561,1878,882
1462,5817,-6755,6975,-1365,-1270,-1734
1463,-1484,6929,7243,-709,1551,1019
1464,-152,-2520,2079,-881,-5,1999
1465,-7805,-7636,-4210,1250,-1165,280
1466,3277,1963,3757,-495,424,898
1467,7381,7518,-3569,-742,398,1855
1468,227,3611,-7657,-1295,-1104,-490
1469,1573,2102,4481,914,-650,1021
1470,4729,-528,7400,1807,-1974,1248
1471,-4282,569,-5144,-939,-19,274
1472,5444,5376,-4338,1648,464,813
1473,-3928,-6635,-2754,-1523,-1556,1994
1474,3979,6964,-4891,-1619,1876,1399
1475,5048,-5260,3803,-446,1643,-612
1476,5984,6499,6778,-599,1644,1510
1477,-4856,-1687,-3701,-336,-265,-716
1478,6412,146,3037,836,962,1502
1479,-2678,-5899,-2896,440,676,-1108
1480,-4965,6664,2445,1515,-280,217
1481,-571,-2828,6995,-946,1770,103
1482,-1561,-4032,142,-1360,1126,734
1483,3591,-7701,-3955,-1688,-694,-1625
1484,4649,-5953,4115,1096,1204,-359
1485,-4959,-2174,4211,528,-1541,564
1486,-4641,-764,1460,-1236,-448,1726
1487,2861,2092,-1738,-315,-64,-759
1488,6444,3314,1138,1080,1707,-1690
1489,7605,-2721,-2507,1331,65,1095
1490,-5184,-3396,-5712,-118,1118,-1421
1491,7666,-1587,-6773,815,1037,-419
1492,-667,3636,-1689,1643,-1173,1541
1493,5119,-4947,-3806,496,1092,-924
1494,2138,-398,-5748,-1458,1541,802
1495,3336,-4056,674,1431,279,-276
1496,-5841,-1332,152,-1688,-203,778
1497,-7390,4200,-218,300,-1956,-725
1498,-2470,655,3009,1045,-26,-588
1499,7114,-7431,-1499,-849,848,-103
1500,-4140,-4401,6718,-1512,-777,-1921
1501,-4372,3254,2452,1917,1328,1561
1502,-4308,7921,257,-1646,572,-360
1503,-1848,1801,671,-1316,1422,-1205
1504,-4541,6337,-6580,82,534,1794
1505,-1214,4783,1481,240,628,-1829
1506,1472,3705,2584,338,1647,459
1507,4390,5364,-3501,361,-1399,-62
1508,-6180,-4667,3227,1729,1502,-759
1509,-6915,6317,-258,-382,-1808,857
1510,854,642,-1573,587,-234,-885
1511,5621,1515,-2590,770,1724,612
1512,-4451,3543,6516,-1872,631,-1344
1513,7213,6017,-527,-482,549,355
1514,-3245,5525,4120,-1895,-1636,-212
1515,2868,-3460,-4952,1700,-1938,337
1516,-2462,7228,1115,113,-227,93
1517,4627,5774,-5041,874,1102,-1443
1518,149,-3023,7558,-161,-1456,635
1519,-415,797,2439,916,-1758,-949
1520,-4220,3947,-4542,249,-1742,-1448
1521,-3845,-7445,4680,-239,-376,630
1522,1387,-3359,-7343,1540,1660,653
1523,-1742,-4806,3127,-1180,-1174,355
1524,6206,6795,5157,1064,1500,1424
1525,-48,6865,-7863,-1637,-598,330
1526,1577,6141,5105,1511,-146,656
1527,6483,2308,-1899,-212,465,1057
1528,-1854,-3275,-3245,-1417,-1296,-1684
1529,-1102,3095,-6661,-1528,-1216,326
1530,-2,6051,2300,1908,1144,-1594
1531,7917,726,-2143,-892,-1941,275
1532,3520,6106,-498,-1178,-1085,-5
1533,3162,1146,3874,1659,-708,-1320
1534,5303,-3484,1991,-1911,1348,246
1535,-3972,4463,2204,55,386,19
1536,-7551,-929,-6225,-499,1346,-1675
1537,-4561,-1359,-6911,-687,889,-678
1538,-6840,7890,-7280,-1515,590,-1513
1539,3529,7042,-3834,-583,-1066,-766
1540,3982,3258,-4689,1620,-831,1273
1541,6730,6761,-109,776,1676,1101
1542,-5172,1425,-6190,-972,-847,1850
1543,4293,2700,1495,1492,874,185
1544,3282,7149,2459,-1016,1162,559
1545,3617,1050,-889,1729,-197,-775
1546,-4731,-6482,-1675,180,1589,-472
1547,2676,1559,-3094,733,1660,993
1548,6050,-1499,4735,-729,-1630,-1336
1549,4671,1132,-2292,-995,-1584,534
1550,-7521,-253,3941,289,1781,-1754
