Sample,Ax,Ay,Az,Gx,Gy,Gz
0,-1425,6417,-3228,1513,217,-1949
1,-924,-1761,3175,1930,-1902,-1404
2,6971,-3971,1654,1996,1383,1940
3,-3975,-3764,973,-1831,115,1496
4,1606,392,-2001,-1996,673,-1452
5,7555,3379,1640,-1607,-1429,1593
6,968,611,-7781,548,-195,-249
7,-6470,2317,-5694,1021,392,1723
8,-1574,5636,5222,-1600,-484,-456
9,5839,214,-1242,1731,1690,1927
10,-3045,-2039,-3598,-1391,406,6
11,2141,-7601,4502,1915,1889,800
12,-3229,3138,5448,1697,701,-1002
13,-1044,-4644,4956,-1383,1261,-1482
14,-6454,-4038,6523,-276,-638,1229
15,7668,-6953,-2464,-255,404,1450
16,-7766,-5236,-5800,533,237,-1081
17,-4215,-6882,-4563,-824,-597,-441
18,-2866,-1305,2687,-59,1294,1470
19,799,-7300,335,-1107,1137,-1269
20,1944,-5858,-6378,-504,-1264,307
21,2819,-397,-6252,-772,2,-1920
22,-6019,-4161,-1208,-189,-18,172
23,-4623,4380,-2706,1291,-358,1409
24,-4517,1162,4058,-1744,1355,-1056
25,-541,2956,3377,-553,1264,-1348
26,-4723,6188,6713,-984,-1841,395
27,-6641,-3432,-936,-1694,829,-576
28,-854,-3664,-2418,-493,1473,582
29,-7654,7121,5930,-252,-1269,1720
30,-4953,6953,5780,-395,1200,-1199
31,151,1753,7911,1604,1021,-1689
32,-306,120,-1560,1723,-641,-1767
33,-3660,376,19,-1786,-111,1432
34,1067,1864,1110,972,1982,-390
35,-5631,2242,-7978,-1310,-144,-1436
36,-3482,3821,994,-1877,-1088,-1741
37,-5420,3196,-764,1775,59,1547
38,523,3830,-2650,1779,1728,-1984
39,-4725,-1064,3447,423,1312,-1528
40,2746,1639,4609,-1625,-185,1972
41,2942,4894,-4122,-531,-127,258
42,-5424,-4261,-6319,-780,-287,1369
43,3827,-6496,6684,1725,-1178,687
44,-2967,5662,5977,1848,463,883
45,3420,79,-3320,1926,-728,-1725
46,4405,2595,3385,-1082,-247,1830
47,4839,-3201,4090,910,397,835
48,-1006,1038,-3897,1031,1458,345
49,-2047,2618,3827,-145,-804,1368
50,2540,-3801,466,188,-413,443
51,-756,6086,276,1174,457,870
52,-1130,-3308,-6219,171,-658,-18
53,893,4365,5379,-671,1559,768
54,2444,2996,-3218,-1970,1346,140
55,5336,1109,2367,-1,1169,1473
56,4647,-7701,3223,306,940,1858
57,-7292,-4248,-2185,1486,349,244
58,1710,-499,5263,91,-1566,465
59,2658,7417,7138,-587,1431,-93
60,-2473,-2735,-6119,553,-1796,-534
61,-5533,4496,3323,-1857,213,-727
62,-6369,-6248,-7893,-1437,-882,-1631
63,1630,-1771,-5145,1902,-1055,-1113
64,2281,-7146,-1218,730,-1774,1685
65,-4850,7752,3309,1211,140,-350
66,5163,-2130,-7148,-967,-694,-1824
67,-7759,158,-955,196,1419,792
68,-3108,7680,-3717,1767,-1341,-1129
69,5948,3255,-2080,506,1604,-1081
70,7974,3952,1947,1195,1094,-529
71,4060,4907,290,-1150,1122,1468
72,5762,-1586,7204,-662,1808,-840
73,5397,-5023,4456,-652,824,1832
74,4011,-5879,7222,-940,-1449,-653
75,-1816,-5203,-5081,648,1978,1418
76,-1158,7799,6566,729,1983,-491
77,-3050,4733,3724,1453,-870,1440
78,7679,-1816,-4785,1758,-1799,1821
79,6606,-1476,-5410,-73,-931,-119
80,235,-4562,-2533,-777,1188,746
81,-7124,6784,-128,1919,138,1195
82,-3107,-7844,-3404,1484,-1737,-61
83,4637,-3733,-2478,-930,1632,-1002
84,5741,-6914,1532,144,1982,-322
85,-1884,-3876,2852,613,1887,338
86,-2313,-5037,3313,1463,-57,-399
87,599,3459,1542,-1041,541,-1602
88,-5758,-3087,-7748,1410,-1912,1639
89,2187,-7348,-1484,-598,1858,-936
90,1207,4500,-3872,1655,1539,-366
91,4977,-6665,129,1382,1098,1187
92,-3060,7328,4910,1358,-1576,405
93,-1901,-3917,-2938,-359,-452,1420
94,-5507,-486,3541,-692,-1573,816
95,-161,786,1974,-1479,-579,1526
96,6663,-7000,-7735,907,1210,-291
97,2096,-5338,5584,-481,474,-1600
98,-6278,504,2164,-1902,302,1967
99,7601,-7895,-1291,209,1337,-1367
100,751,6416,-3407,1975,729,1071
101,1425,7302,-2543,-1400,-1368,-1344
102,-3852,-4690,1746,-1556,-1075,1911
103,3373,3425,-1783,1082,1891,-1917
104,-5819,815,-189,-1711,-430,-324
105,-4709,418,3916,1582,220,-197
106,-2588,-7609,-6042,230,587,106
107,7413,-2636,-1810,-1293,982,1928
108,-3132,-5076,-4134,-1839,-1652,-1982
109,-4730,7068,-7227,935,-256,1262
110,-2794,4197,841,1578,283,149
111,-340,7752,3830,23,-284,169
112,-5391,3616,4303,499,-144,1339
113,111,-3642,-5819,103,1391,954
114,-1224,6644,4458,-281,-834,-1845
115,3161,-3771,-4646,836,-1074,-1179
116,7022,-643,2564,-351,474,-1406
117,-5017,-5795,-7745,-1630,-1837,-145
118,3968,-7400,-7580,1216,-1554,-124
119,-6688,-5031,3655,-535,-1680,726
120,-1789,-6299,7460,-236,1588,-119
121,128,815,-3404,1080,1593,1688
122,1662,-4162,547,-1464,-43,-558
123,-6869,5580,-4570,-1356,1047,144
124,4896,3896,-3336,1731,923,1945
125,987,-1112,-4779,-1210,-1492,157
126,-2178,643,2796,80,314,1654
127,5252,-3944,-2047,1396,1134,252
128,5901,-2555,3809,-1866,672,-568
129,7150,3156,-5355,650,470,1589
130,5946,404,-2554,1334,1800,1488
131,2731,-2333,652,864,267,-704
132,7581,286,7989,413,1968,-1432
133,2734,-5203,1489,1948,680,-73
134,-6743,1246,3503,-1353,1444,-1533
135,-1438,-859,3371,181,-177,-503
136,1933,6038,-3282,-535,-1877,1426
137,3959,6220,-3544,-1425,-1018,1310
138,-490,-5017,1207,-446,-1750,-1781
139,1917,-4672,-2085,-62,-554,1045
140,-3061,-7108,-3572,-1306,675,1537
141,-2433,-2184,7745,990,-1416,-1270
142,5026,2000,4010,-1113,917,-414
143,3782,2164,-390,1353,1630,-2
144,-6750,93,-5784,-556,818,-524
145,-4015,546,-4470,1809,-1126,-1217
146,-1826,-2656,5084,1758,995,619
147,-4182,6298,-5751,-1819,-996,-259
148,-1593,-1171,-7615,-1318,-1888,-1293
149,-7669,-7433,4965,-126,692,34
150,-3402,-1154,6472,-673,-658,1619
151,-5566,-2422,-4317,522,1789,-328
152,-3353,-1111,-6263,-227,299,-917
153,-5802,5565,4007,1195,-1445,-1588
154,4232,4203,6120,-1698,649,-1595
155,-6912,3702,5325,79,1331,-1010
156,4840,-2032,2870,-844,-1512,-1941
157,-1126,-2322,2051,1384,753,1637
158,-3069,-7141,6164,327,1420,652
159,4544,2958,6418,-983,699,-73
160,-3392,5487,632,-883,836,345
161,1833,5140,-4980,-305,-1048,1992
162,-898,-4786,7447,1672,-744,232
163,-279,-3602,645,-339,144,1923
164,-2683,-1174,3778,-2,-694,908
165,-3076,-1196,2653,-232,-1743,68
166,-6908,-1348,-3384,-1286,-1660,-1945
167,-7947,2816,2821,-1339,1311,659
168,-5036,-3992,-978,671,-1740,-346
169,2326,3504,-7732,935,672,-173
170,-5780,7949,-3061,-1603,-1374,1254
171,3269,-6256,-5367,-20,-962,-1845
172,2082,-5050,-7176,-1858,-1356,411
173,1883,5381,6627,219,-722,-1417
174,1868,1439,-5298,-763,-1447,-932
175,-7718,-5483,-2004,-639,1059,505
176,-3522,6827,3800,-839,1021,1921
177,2318,-418,4734,1608,846,-1423
178,88,-8,2611,266,123,1588
179,6018,-2384,-5038,1817,1639,-1713
180,-2754,6799,-6475,1030,-498,89
181,-4592,-4142,-7265,-304,-328,-517
182,-6933,-4292,6547,72,324,1069
183,6298,5695,-7782,-1047,-727,-84
184,5152,-4524,-4923,-346,1982,-285
185,3221,1472,2468,-1028,-1736,1456
186,5125,2071,-2218,448,1114,-1233
187,3686,5047,2197,1683,-960,1668
188,2217,-5128,-7031,155,1081,-129
189,1876,-7531,-3610,543,-1777,882
190,-3528,4231,4637,-1805,-941,-1952
191,1981,2099,-1111,-1877,1210,1373
192,7325,5280,685,653,-1601,499
193,-421,408,2102,-87,-354,-1275
194,6079,-6937,7281,-1163,-825,1940
195,-141,-4894,5566,1955,847,1935
196,-7809,2887,659,-1694,-1994,-1879
197,6708,-7902,949,-115,409,300
198,829,6483,-2364,1605,-85,912
199,-1393,-3497,6697,1985,-1256,-2000
200,-1120,-4670,-4258,116,611,-1975
201,3556,-4286,-4468,-214,1585,1006
202,6859,-3110,-6172,-854,-1067,367
203,3974,-1308,7092,1408,397,-243
204,-7257,4711,215,-554,-1303,318
205,2466,2282,-999,1461,-1322,-1064
206,-6719,1744,3775,888,23,1165
207,-7299,-4226,4168,-1461,1561,879
208,4780,-5205,2309,1121,1860,474
209,-6044,-4260,6654,-1270,-1012,-1156
210,4934,2279,2885,428,-1971,-48
211,-2149,-7814,3579,461,1209,404
212,3183,322,-2805,1984,1946,-1479
213,1989,104,5844,727,-1545,-76
214,6383,-5500,-6915,-1812,1128,-349
215,6807,-380,-2354,1138,-230,370
216,-7490,6368,311,697,-399,-722
217,6199,1808,-2701,-271,-1940,-75
218,-4103,4683,4344,1769,1290,1397
219,-4821,3074,1357,-1820,-1665,-402
220,3565,-497,-146,1121,-360,1057
221,994,-2477,6819,813,1548,381
222,-253,7718,-6719,748,-852,1916
223,-2056,-2158,-3774,-773,1845,1153
224,3774,-7844,-2762,-1812,550,-34
225,3911,2751,2796,-879,1220,-279
226,-7021,5541,2795,192,1251,664
227,-3527,-5062,-1497,1519,-1145,-1355
228,5254,-403,-7263,-1992,-662,-1542
229,2974,3335,-4985,1516,1306,-1595
230,-4039,-1899,4424,134,409,-1738
231,-2190,196,4445,512,806,1951
232,-7122,6790,-4003,-1551,1250,-329
233,-4333,-6722,6386,1712,-253,1349
234,-3025,-6511,4082,-72,-1655,1311
235,-6891,4999,-1369,-593,1251,51
236,-284,-2857,-1913,239,-746,-639
237,240,6128,-6025,-77,-1533,-99
238,3220,-3760,2361,-1418,-1648,1324
239,-1042,3205,-4757,-1547,-1133,623
240,-3575,-2510,7371,1249,-375,-608
241,-2931,-4600,1742,672,1532,451
242,7723,-870,836,589,1224,1326
243,-3373,-7074,-6009,622,1720,1084
244,2284,-4202,7110,-942,-856,-1676
245,7279,-1150,-7086,914,-991,-567
246,2225,-7240,-389,1226,-1341,454
247,-2009,4386,6895,-1585,-1728,-939
248,5574,-2163,-6957,-102,-1614,-1715
249,-5203,4064,-4164,-1815,1474,-1577
250,-3968,1274,983,-452,-1603,-672
251,5161,-1880,-4083,1823,-722,-1333
252,3184,-6430,4026,-1781,804,616
253,-7138,1116,-4010,-1032,-1679,1814
254,6906,2338,4072,-1751,-1534,283
255,-4722,695,-4771,875,-1489,-1427
256,6992,-3424,-7462,-1592,368,-1746
257,5072,-6768,5726,-1242,1493,110
258,-1102,294,4340,-810,-1502,-747
259,7850,2283,5746,1259,-792,-167
260,-1933,-2817,4700,-1537,-1920,-1800
261,-1336,-4137,-7417,1398,96,943
262,5426,-7419,7948,-1143,-1680,933
263,2087,6345,3167,-1328,1058,-387
264,4826,3548,-4657,383,84,444
265,-3425,409,-7775,-830,1055,-1080
266,7217,-4223,-6636,-1278,-714,-1650
267,-6876,-2406,5066,-835,65,-1403
268,590,6185,2496,-1443,1709,-1139
269,2771,6639,4291,1881,-1493,-1787
270,-5359,-3350,3433,-744,-971,18
271,5572,-2304,-45,392,-701,115
272,-6842,-5246,867,-1275,1392,817
273,-1169,6361,1426,285,-741,1696
274,-6003,1554,35,-1223,-386,-364
275,2785,-4473,-1471,-154,-1590,656
276,4956,-1584,-970,-830,-629,-363
277,3404,5952,7012,1827,-832,-997
278,5765,7822,7494,907,942,536
279,6840,-6033,-2215,1284,-1155,1215
280,6547,4289,-151,428,-139,-1732
281,-3011,6513,-2644,312,1722,288
282,-4791,-1563,-1422,-1412,949,-214
283,-3095,6680,6819,-897,1770,-353
284,-6980,-3649,6793,-1329,-1130,207
285,5281,-4497,360,74,-658,-1097
286,4419,-590,-5170,-1699,-959,33
287,3474,146,687,-1436,749,-1831
288,-6216,-4570,-4447,-1749,926,1615
289,6952,-5549,477,1893,-1661,-1730
290,-3920,275,2080,580,-222,-1241
291,6363,-5614,5845,863,1201,1034
292,-439,1229,-661,-1485,-262,-555
293,3669,-3051,5585,963,577,-1331
294,5557,-69,435,-44,419,-271
295,7744,-6654,-5126,-172,1105,898
296,-6021,3685,-4308,1972,-1924,138
297,-1,-1983,-687,365,-979,-1879
298,4964,7040,2052,1112,-1862,402
299,4153,5239,6403,909,-530,960
300,3817,-4566,-1351,-1910,1684,756
301,6707,-1411,-5848,-647,1365,1200
302,-2753,946,2841,-1608,1987,-1338
303,-2636,7006,-5947,395,-652,976
304,-3213,1889,-873,1409,1055,-939
305,5883,-3867,1569,-1826,-1782,-1495
306,636,-3077,5866,485,1684,481
307,523,5676,-7380,-1510,1377,1882
308,5774,3617,786,1716,1662,-521
309,6176,-4546,738,1973,538,1770
310,-7662,-5881,4570,1310,-311,-1261
311,1791,-6787,2662,-1728,387,-420
312,-2762,6328,2610,1306,-407,1538
313,-5245,-5249,2681,-1018,191,-1887
314,7673,-3699,-3406,1569,-1606,-1423
315,-7214,6252,7029,490,498,-1449
316,650,-2346,5583,-324,-794,1024
317,-772,2008,-772,-45,45,-958
318,-130,-4461,2799,272,-1516,-169
319,-3174,-5589,1489,-13,53,-1201
320,-3309,-4722,-2436,-807,-766,1333
321,-2379,6131,-5771,-115,283,1923
322,-4130,7275,-469,-1107,1388,719
323,-7344,1036,-7935,128,440,579
324,2969,1900,-3621,-828,402,-195
325,1950,-6997,5460,-1586,598,-94
326,1538,-4388,-2370,-1524,184,1285
327,2332,-7174,-2587,-1977,-851,-1482
328,773,-7599,-176,-847,-1350,815
329,2286,6037,-5989,1239,-1205,-544
330,-6407,-912,6775,-446,1875,-284
331,-1720,-2978,-1279,-1800,417,984
332,6636,-4382,-3330,-756,190,-1681
333,5082,-7685,4014,693,-1667,524
334,5238,3229,5478,1911,831,336
335,6353,4442,727,1674,914,1381
336,-3601,-216,3413,-167,1630,1699
337,2876,-4068,-5611,-878,27,-622
338,3133,979,5087,-1995,168,518
339,-1197,-2477,-2050,-87,-448,-1775
340,-3803,4887,-6464,1966,-720,1922
341,-6057,-661,263,1447,1428,-1993
342,-5636,5112,-4277,936,614,-1837
343,498,-465,-7588,1613,-367,1529
344,6773,-3305,7821,-1342,261,370
345,-6305,1188,-7615,-1606,208,-766
346,-3380,934,5908,-570,-1236,1958
347,-5083,-1861,-2881,-140,-853,-1396
348,-2059,3028,125,1540,-1206,-1272
349,-1519,-6186,-884,1263,1026,-1907
350,2210,5023,-6673,-801,-1519,1471
351,-2735,7526,-4528,-675,-1168,267
352,-1596,-1796,3681,1965,-1011,-1180
353,3423,5260,-52,1939,275,1225
354,-4309,5809,-2404,1425,-349,591
355,-5807,-3030,-6641,-850,-773,1819
356,-3714,3408,5933,1183,1068,-1843
357,7107,-2836,6908,-588,562,263
358,-253,-1728,-587,-1402,1680,-864
359,-2607,-2796,3208,4,-1744,-12
360,4606,5656,-5252,-1677,1887,-783
361,-2625,-3569,5573,-419,-1907,-127
362,-4183,-1771,-7038,605,-963,864
363,-4318,-668,-2986,1135,1801,1904
364,4269,-5947,2057,71,-1229,-1908
365,-4979,-5118,6992,1505,1929,-440
366,-3476,6992,-1461,-523,-1531,-1525
367,1318,1825,-2668,708,963,-1448
368,-5140,-3675,-1528,1958,-925,-76
369,900,-3971,3217,-884,1330,1667
370,1188,6442,-7863,-650,-1253,-375
371,5740,5929,-6411,1872,-928,864
372,7466,6595,5008,-1360,-1776,-258
373,3820,2807,-6218,-86,1400,-642
374,-5955,5562,6659,-944,-233,1040
375,-2701,-6802,-3009,1948,1460,-1885
376,2157,5458,6913,-1313,1251,1741
377,1655,4824,7064,-846,1259,-1992
378,6494,-3363,-6893,-1619,-881,1543
379,5610,6240,7386,-1982,-352,-959
380,4959,4977,-621,-605,-147,-261
381,1290,1305,2951,56,-253,-1182
382,-5049,7908,-6221,-1248,-517,213
383,1041,-1375,-3576,-1182,-1650,1996
384,776,-7716,3340,687,-378,748
385,2532,2954,632,62,666,984
386,-2906,-2945,-1661,204,863,-719
387,-938,2438,7244,-1744,1418,1841
388,-1757,-1116,3993,-45,-1817,1033
389,-3788,-7508,7698,1110,-658,38
390,5470,-6182,7482,-169,-1586,-608
391,4739,-3708,-3521,1742,343,-1476
392,-5950,-3612,-1785,945,1904,1990
393,4723,4038,1943,665,-1085,-1974
394,2028,5241,-1618,56,-227,-1760
395,-6789,-5025,-2559,-1287,-367,-644
396,-616,5293,3180,944,101,1895
397,4383,4434,-1938,-1560,24,1207
398,6000,-6672,3281,-1967,-1713,-1641
399,-2085,-5078,-2130,-1501,1755,1387
400,3088,2641,6936,1941,280,1113
401,2876,2200,-2762,1949,-1589,401
402,4676,5785,4008,1542,1122,534
403,-3730,-2364,1015,-1697,914,-927
404,863,-7253,1051,-97,1304,1582
405,-3461,7313,6255,-305,370,-472
406,6438,79,-1484,-1586,-135,-1394
407,-7897,1631,1387,86,-609,1317
408,-3721,-5463,308,497,-1091,585
409,1235,-4251,332,-1763,-1966,-468
410,2665,-112,-5296,-1453,1285,-275
411,4026,7074,-1919,-730,1800,-796
412,-4660,6725,-5849,-369,-1298,-1790
413,-2582,6456,1745,-38,438,-1943
414,-4455,553,7406,944,50,114
415,7447,7418,7309,-271,1483,1164
416,-5864,2889,7846,-560,494,-1920
417,1777,-7253,-1733,-1350,1634,1542
418,-380,-4683,4512,422,-49,-232
419,-6541,1253,-7242,-1242,-1574,-1481
420,4035,-547,5949,-1800,585,50
421,2810,4165,7738,1051,-514,1323
422,-6116,-7330,195,1154,-234,-1045
423,-5831,3742,7418,-1002,864,-1310
424,-240,-2959,3561,-433,-1939,806
425,-947,20,-2741,-368,154,1020
426,4795,255,7383,163,1997,-1928
427,-3597,-4700,-7042,-210,882,-1506
428,1894,-4683,104,50,-1839,345
429,-3493,2533,-428,-1743,-133,559
430,-1170,-1397,1349,1726,-441,-1107
431,-5039,3973,-207,-1586,591,1748
432,619,-7062,7262,1213,-786,-1442
433,-7050,-4126,1696,1850,1000,-483
434,4890,7989,5546,-555,-456,1509
435,6874,874,863,1975,1363,1648
436,5286,-5386,-6825,-1311,1588,-1222
437,-3977,4373,4824,-67,-1535,1688
438,-4909,6194,-2407,-1892,1040,872
439,-3357,678,-6669,130,1708,403
440,-3025,6206,7053,364,-1868,1495
441,-5484,365,-6752,-846,-1290,-1232
442,-445,4348,4078,1418,-610,-1047
443,-279,-4712,5755,-1462,-1519,-75
444,4372,-5448,3056,-535,374,-1149
445,6561,2012,1643,1913,-334,191
446,-3298,-7012,-7454,-1773,1630,-719
447,7498,-245,4482,583,757,622
448,-4736,206,2402,-451,-1756,-1236
449,-5100,-4423,-4357,-1458,1245,-504
450,914,-7582,-4050,899,-1409,-638
451,-4913,-5686,-6503,716,31,-1775
452,-6967,-4979,5347,1177,-1430,1907
453,-2502,7821,-2350,-1293,-1426,530
454,3652,3531,7864,566,227,136
455,5812,5484,-3702,-1848,163,-1444
456,-2761,-7977,-5947,-1058,363,-1473
457,3387,6819,-7902,-1658,941,111
458,4943,4791,116,-761,305,-1013
459,1798,5138,7819,956,-1082,64
460,4236,-3872,-3202,1624,675,385
461,6303,7285,-4223,593,-560,-439
462,1931,-5508,-7639,1566,1159,920
463,-747,4544,48,1743,1567,747
464,442,6113,7913,-99,1249,909
465,-3770,6773,-4590,-1649,100,1042
466,-2972,-6276,-4136,357,239,-1850
467,5743,7142,7471,-414,-303,206
468,-3168,549,1910,1857,133,118
469,-3003,7814,-7372,-456,-81,32
470,-870,-2029,5388,353,1075,-785
471,-1777,-137,-2160,1855,76,1414
472,5679,2940,-5890,-662,1310,342
473,4268,4736,-7024,1874,-1256,30
474,4183,6075,812,293,-1620,-1744
475,6282,-5082,-7072,-1467,954,-63
476,2018,-6686,-2992,-1760,555,-1692
477,-7546,-5894,-7062,-523,-1447,830
478,3692,7553,3063,-1918,-415,1168
479,-6908,-5540,4106,1413,458,454
480,7221,6932,-341,-568,102,-310
481,-7197,5677,2802,-1376,-561,1378
482,3548,6545,5473,-525,-1354,341
483,6035,7003,-5868,1464,-569,620
484,1425,2329,5185,-168,489,-1381
485,-4738,4138,5669,386,-1597,-81
486,-2727,-5699,-6672,-1646,-1496,-433
487,-6333,-1365,474,278,-1277,-960
488,2294,-6861,-7610,287,200,1348
489,-6778,-4284,2294,354,-1929,454
490,5791,-6689,3239,-1713,952,-1697
491,-244,-1206,2861,836,395,-965
492,3048,685,-7560,-797,1167,1309
493,-6082,5674,5963,-1626,137,1808
494,1199,5472,474,-1626,-724,-964
495,-4447,7553,1367,-591,1952,1802
496,3854,1997,-5853,-1232,102,-49
497,7239,3895,-2563,-1287,140,985
498,-5129,-6466,962,1175,184,177
499,-2558,-1382,4658,519,755,826
500,6566,-5983,-7388,362,-332,1637
501,-1639,5367,7242,-38,-665,1869
502,-1704,-1591,1189,1126,270,1198
503,731,3615,2214,1399,-1048,1767
504,-4173,-6031,6164,978,-1236,400
505,2291,-6814,-7041,-1609,-786,-1246
506,4467,-6800,-5080,-1747,-377,951
507,-6880,3865,-1009,-1618,438,-47
508,6770,1322,-245,-1935,-45,-705
509,-4161,-4009,3290,1042,1167,-1498
510,-6291,-802,-1296,-43,-123,-1176
511,4137,5385,-3813,1941,-1196,698
512,-6187,-6831,-2448,-1419,626,1028
513,2211,5432,6216,-1349,-778,134
514,-2007,4234,2344,429,-552,-822
515,1388,-3160,3559,776,-579,281
516,396,-1637,3865,1437,269,127
517,5155,-4183,-77,-1627,1742,-58
518,5198,1484,5005,-840,-1197,1602
519,2820,4966,2386,-576,1756,-905
520,7406,-392,4513,-208,-41,247
521,6351,-3379,7765,-283,1624,1481
522,1694,5315,-928,1959,-669,-1292
523,-2806,-3263,-6634,352,833,-212
524,6824,5610,3333,-496,-298,-1187
525,-1334,5759,1456,-1160,1031,-674
526,4263,1753,-7001,1932,-1341,-1213
527,-4544,-4614,3597,-138,1687,692
528,4890,-5366,-4308,-1117,1613,-1967
529,7291,1377,7935,-1894,-74,227
530,-6619,1750,-2369,-333,1895,-1166
531,-7411,-4921,2227,-1575,-1039,496
532,-2185,5411,-274,-405,-1363,-1874
533,1416,5529,2847,-279,-1644,1394
534,-6599,5181,-913,1719,1862,645
535,1234,-3507,3318,161,1062,-1118
536,-976,6615,6806,-827,-1648,718
537,7382,7210,5604,-202,110,-30
538,3243,7696,6158,-22,381,-896
539,7671,7966,2304,231,-1884,453
540,-6927,6986,-5410,1186,435,-1363
541,4839,-3397,3566,-666,875,1896
542,-849,64,5715,-217,525,-667
543,-2400,-679,5581,1205,1504,-1882
544,1091,806,-566,-998,-1012,-1124
545,448,-5270,5159,661,962,103
546,-4113,-398,-7223,-648,606,797
547,-7321,3970,6307,1680,66,378
548,-7106,5098,-1303,-1328,548,12
549,6210,138,6333,-963,-1820,-887
550,336,3501,5640,617,1201,-1051
551,724,3418,-6262,-575,-463,-410
552,2988,4902,39,-1240,-1223,-966
553,-5730,-6301,-4109,944,1028,-1770
554,941,-2021,2525,-304,-1349,1917
555,59,-1821,-7913,1331,-962,-1151
556,4618,-4385,2454,1450,1978,-1207
557,-7620,-5380,7017,1829,1619,163
558,7305,-6605,-2823,-1918,360,382
559,-5487,6036,4840,-1797,1202,243
560,-738,2205,-3722,-1788,-483,-1433
561,1607,-895,-5436,1993,508,-1217
562,-5578,-1527,-3501,-1352,-567,1092
563,6864,4171,-5538,-1556,-536,-1459
564,-7821,3972,37,1693,-1841,-670
565,-4055,68,-6676,-1413,1102,766
566,-6810,-1835,-4885,-1155,-315,-356
567,-2383,-1240,-7519,774,-981,-1602
568,2518,5093,5812,-1365,-1842,1330
569,7402,4563,-1518,614,-300,1863
570,-1895,4755,-2530,-1021,1931,1863
571,-469,648,5267,-1474,1078,1442
572,1690,-5332,1294,849,1519,-948
573,-2230,2531,-1969,-700,-787,-1105
574,1697,871,7856,597,-834,-1039
575,1267,-3961,5216,35,-970,-585
576,-1084,-5547,-4558,846,780,139
577,-7146,-4898,1720,-855,730,-686
578,-7705,-4662,2599,577,1591,-1983
579,4475,-2948,-7446,-974,-628,-746
580,-1782,4291,7842,-548,813,439
581,3419,-3189,1171,-1512,618,-818
582,5545,446,-1765,749,548,1610
583,2325,757,6555,1579,863,-185
584,3732,4265,7623,-16,-1226,1044
585,-4192,-4250,7005,-1747,-1352,-1083
586,5561,-1015,2215,700,1982,-756
587,-4350,4553,6496,1965,-328,361
588,3715,-4920,5603,-56,-447,-293
589,515,-669,-4899,697,1703,1308
590,-2597,7228,7667,541,-1297,-1504
591,2557,221,6061,803,-171,-701
592,-7575,-7971,-437,-912,-1927,1476
593,4457,2960,7629,477,272,224
594,-204,4331,5333,-1008,-716,1208
595,881,-6231,-7928,101,-441,1713
596,-2138,7665,5914,446,-1145,-1869
597,6225,7836,5761,-755,910,-1112
598,1042,-5356,-5322,-794,815,-1666
599,4144,-1969,4318,697,1914,-1005
600,79,-4828,-372,-1145,-1884,281
601,-2136,4584,7260,-828,135,1730
602,-1981,-1168,-555,-178,-1849,1172
603,595,3200,6262,-1875,777,260
604,2505,-6671,-4576,-389,169,-1854
605,-3315,-2534,-1400,1078,1021,1857
606,6888,2765,-7049,-596,1591,-1066
607,-6732,-389,-3695,1831,-1229,145
608,2600,-2618,7370,-1999,-1883,191
609,-2276,-7715,1683,477,1446,-1888
610,-5363,-2566,7159,186,-714,-1580
611,-113,1858,2025,393,512,-1688
612,-4713,-3889,-3156,730,894,-1609
613,5315,2417,-1151,-876,577,498
614,-2237,-7146,-6209,124,12,-1522
615,-7876,2633,-232,-898,982,1770
616,-6099,-954,872,-1178,-1623,-1973
617,5531,6516,-3365,-83,383,23
618,-7119,281,-7259,-946,-1741,-486
619,5001,-6107,-3345,-786,-376,1840
620,-6568,-5868,-7894,1435,1623,1445
621,7920,-4829,900,-567,122,943
622,-3647,6393,7367,-762,595,1215
623,338,-2059,-4666,766,-1990,-1143
624,5042,6848,4127,1433,750,599
625,7013,-4094,-7519,-1602,-573,-607
626,-6346,3824,-5148,1746,-1262,-360
627,-2202,-2559,750,1091,-428,-1500
628,6647,-1525,-862,1255,1888,1155
629,2290,2960,-6158,-943,1372,1263
630,-786,555,-7718,-1669,1944,775
631,246,-7284,4693,819,-1289,-347
632,-375,5263,6231,9,-1710,1222
633,-2204,6217,454,939,751,-129
634,7295,-1398,5244,-1917,-817,-448
635,7897,-1771,919,1011,-1890,-1667
636,3715,-1738,2589,1957,-1207,-1639
637,-3028,-7231,-2543,-997,1988,-617
638,-3659,5685,-6063,290,-1435,-1151
639,4696,2574,7432,1877,-1144,1859
640,-7608,3668,-2842,495,1986,310
641,7450,-274,1456,-1703,-1738,-373
642,-229,3817,-6562,-212,83,-405
643,4595,-3535,-255,-1124,1658,1800
644,-2563,-2269,-433,-1299,-1603,230
645,2915,4782,715,188,1678,-1458
646,5205,-5276,-6914,-38,-1142,-1502
647,1526,-7832,2204,315,-773,651
648,2211,-2835,1749,857,-659,-31
649,628,-414,-76,-1005,-1291,-1098
650,5292,5923,2197,1707,800,-1028
651,-7158,3310,-4774,-1623,-1980,-1632
652,1369,-2763,-2023,1586,255,937
653,7561,6690,2300,-1593,-446,116
654,6538,4945,-6223,234,-355,-425
655,-3381,513,2854,-542,-1183,1695
656,-5110,5054,2870,1314,-23,1509
657,-849,4776,5856,1145,803,1336
658,2728,-1623,-6425,1526,478,1769
659,-895,3648,-6090,-1833,-1886,-547
660,-3384,-3853,-573,-1934,1012,-1228
661,-248,4632,5021,357,-32,1677
662,6874,6985,5457,67,-1832,471
663,4509,-6320,-3086,-123,1011,1366
664,4634,-1596,-2350,-322,-1946,508
665,-3332,-7259,6930,939,1368,700
666,-4268,6308,-6460,-1535,-55,-1626
667,2231,5283,7699,-1647,1124,-4
668,-5096,6487,3350,1308,-1111,-344
669,3904,-7273,-7032,1141,804,-1889
670,3262,1067,-7595,407,-33,43
671,-880,-3067,6152,805,638,-1442
672,-5187,-6616,-3114,1456,-1618,483
673,-1878,567,-5362,1823,1295,-1443
674,4204,-179,6826,-406,616,1143
675,-5740,-6167,2373,656,814,-1009
676,-1495,-4900,-3031,-1300,-1327,-787
677,-6606,543,5906,552,-1175,-1217
678,4684,7005,7513,-1365,-1671,1865
679,6876,4934,-1800,-1984,1648,1160
680,2135,2533,5328,-1162,-1656,-1128
681,6814,262,3069,700,-524,-158
682,-2599,427,-6727,114,-512,374
683,-1747,-7994,831,-1196,871,912
684,-2829,-1260,-3232,-1395,251,-626
685,-6335,-7812,767,-226,1881,-667
686,727,740,329,-824,1212,-190
687,737,5678,2526,658,-356,-1925
688,-4255,-4119,-486,-867,-1016,1675
689,-9,-6398,5207,1269,427,-1376
690,3276,-2555,-5194,-1808,-1445,-403
691,5120,7463,-1008,1489,-1618,135
692,5214,-3710,3148,-1980,-565,-917
693,-2747,-5108,2231,1164,9,-1489
694,-7590,-6467,1914,-1595,1389,-1046
695,2478,813,-4325,1149,-196,69
696,-1182,-2874,5305,-1106,-1223,1292
697,-3082,6850,4197,-1692,-127,-1692
698,-583,-3170,-3865,1016,157,-1940
699,-5618,6686,-5031,-1500,-1460,-1917
700,-6625,3382,2045,404,1925,-1496
701,-3552,-2716,-207,255,1807,-782
702,640,-7652,-3384,1513,1037,1895
703,2823,-4867,3004,-682,-1763,1424
704,4510,7423,7608,-1666,1052,795
705,-2907,-6056,-2613,-1814,1699,-1862
706,-6696,-212,-2338,1303,379,1015
707,1853,-2950,-7162,-817,1697,973
708,3961,-1874,500,1980,-1909,-206
709,3785,-2220,5417,1896,1527,545
710,1800,5291,-3773,-1403,-1180,1525
711,-3447,4679,7366,482,1383,1577
712,4966,5858,4805,-1530,1068,1299
713,-3703,-2874,5969,1453,1812,-1869
714,5645,4250,-1504,767,-1338,1780
715,1383,1889,1641,1694,-830,188
716,-5505,-6789,-1842,-36,-1939,661
717,521,4487,-6421,-1196,-792,-1066
718,-4240,7467,-5307,1001,1036,870
719,7464,3318,4775,1459,-1230,-17
720,-7935,-607,459,200,-1502,1425
721,-2241,6862,5318,-1987,-882,1654
722,5749,6899,-3710,971,-1422,526
723,-2764,4248,3097,-1314,-330,79
724,5394,-2247,-7739,623,655,-194
725,5462,-7198,5055,-760,-1219,1907
726,4241,-5713,-951,48,1550,1108
727,-320,6835,-5209,1081,-1162,-618
728,-4865,-126,1014,-1087,-911,-1520
729,2116,-3090,4299,865,1563,1690
730,4752,4521,-168,1196,-1599,-1383
731,-4922,-3059,7578,-1146,-620,116
732,7617,2683,7840,459,-709,75
733,-534,-910,3566,326,-635,736
734,-4294,-4888,6439,1996,-546,1961
735,3377,2607,-3671,1197,-1726,1286
736,6372,5052,1474,-1649,-352,-1508
737,-7802,3374,-6025,-1028,-1367,1635
738,-4839,3604,-3048,484,1784,1130
739,-1113,6031,-7,-1916,260,1708
740,-290,-427,-7851,-1047,-1591,-178
741,4672,1916,3102,1587,460,-1851
742,-6515,-2895,1501,-1,972,-772
743,740,3968,6960,1499,-1197,1349
744,-4869,288,-4302,817,-1307,1721
745,-6036,6217,-6001,1169,-522,-190
746,-2066,-5596,-6838,-843,1044,-1918
747,6370,2583,3935,-373,953,1742
748,1855,4654,3349,1105,1781,-48
749,351,-3896,-4507,1146,1232,868
750,2966,875,6724,-940,-520,1146
751,-3637,6170,-837,-1097,-1675,1428
752,5967,-1216,2746,1629,1556,-490
753,2406,4912,-4713,-1476,-1905,-859
754,-4657,-2234,7963,-766,-799,-1843
755,4098,5651,-7011,-674,356,-1449
756,-3556,-2716,7075,-133,-181,-1313
757,-4450,2327,4749,-1224,407,661
758,-4839,-2041,-50,665,-1794,-999
759,4678,3044,-7096,1588,-521,429
760,-2074,1343,-4627,-1343,1757,1757
761,-3879,-5433,7860,923,1628,1914
762,-6496,6048,2680,-1844,439,608
763,630,-1471,4522,-803,-85,-380
764,6854,5628,665,-1174,-1590,-182
765,-7348,6618,-5535,363,1105,-472
766,670,1983,3635,50,1374,1864
767,-4664,7549,-7658,1517,-1910,966
768,114,-2876,-4241,1205,1643,216
769,-403,2682,6156,1825,344,4
770,-6457,-5730,-7775,1603,-1015,-369
771,-5233,2295,4553,174,316,1449
772,1244,4096,6590,32,1927,1207
773,5902,-2623,5423,891,766,-1224
774,3134,-5471,-5865,537,448,-1699
775,-1802,6920,-7646,-772,749,677
776,-2819,6069,6194,406,-593,-1408
777,1980,-2866,1184,-1865,335,-103
778,2003,-1344,5291,1291,777,855
779,-4423,7702,-21,47,-791,58
780,6446,1959,-4607,-544,1579,1026
781,3809,2395,-6314,1323,-492,1418
782,-8000,-3837,-3890,1815,1176,-760
783,4050,-2326,1057,987,-528,-140
784,-2287,579,3840,1931,-848,-1872
785,2326,-2973,3161,-1503,-673,-71
786,4562,-1495,-2056,1551,-275,1414
787,1124,-1921,1752,-106,1907,1339
788,-7699,4198,-7046,-259,1049,-459
789,590,4552,-6222,-1514,-284,9
790,-5214,7454,5915,-1331,-1596,522
791,-926,-539,2445,1752,1803,-1504
792,-5669,-4037,-2914,-1651,917,-1188
793,3836,-3864,6792,-477,191,160
794,4455,-1819,849,-1032,473,-1024
795,2092,1745,7106,-1428,1557,-1074
796,6785,-3489,2424,1265,491,-1056
797,1833,-2317,7988,363,-521,1900
798,3076,-1599,653,-627,-1449,-515
799,-2341,-798,-7587,-1113,-92,1750
800,3560,1193,-5482,-622,1188,-635
801,2004,1974,699,651,-130,239
802,6322,7973,-2943,704,1390,-1238
803,-5515,-4478,4259,-857,1896,711
804,6777,-2257,1864,-751,-159,-1776
805,7806,-5277,1928,1019,-173,617
806,-6710,4963,349,-1587,-38,-1461
807,1434,-1965,5229,-954,1824,32
808,182,2403,-1405,510,-1496,1731
809,-2708,-972,-524,1744,188,1866
810,-7228,5035,-5170,1638,386,-861
811,813,4843,-2785,-783,978,-741
812,-6238,5309,-489,1724,-1866,-1896
813,-1309,-3626,4776,324,1796,-1225
814,5625,-3543,-2389,-1495,400,101
815,-6197,-7417,-5190,760,-711,-718
816,5083,-5085,3782,-1028,-811,1009
817,3770,1161,2183,-1407,-1086,630
818,-6081,5815,-3671,95,-1225,-1014
819,4885,-6710,-492,-655,-985,-1270
820,415,-4397,6580,1254,801,-678
821,7042,-223,-2236,940,679,1391
822,-3443,4113,4220,957,55,1797
823,6396,1137,2710,-1249,1711,1666
824,-5599,-3973,-2165,45,1337,797
825,-7341,6703,-7946,318,1816,-333
826,-5539,6497,2971,1480,69,1729
827,-653,6565,-3258,-136,1799,-893
828,-594,6738,-4417,1771,-1472,1513
829,-1370,-5887,-3714,1648,-1263,-850
830,759,-730,7505,-1269,963,282
831,-2900,4179,-1145,527,-1007,-471
832,-6367,-4931,-4118,-512,1420,-366
833,4175,4238,-6941,1906,1806,-356
834,6222,7982,2978,548,104,-184
835,4996,7611,2406,1906,300,-703
836,-7874,744,4424,803,-196,-1174
837,-7281,5195,1228,1845,97,1289
838,-2366,-2838,-1857,1127,574,1359
839,6560,602,-7715,-1366,1399,-1931
840,7868,-3183,1896,-672,1554,1209
841,-3270,6218,-5032,1282,-1061,661
842,274,-7182,-3369,-1139,173,-1475
843,-4673,-553,50,143,-6,59
844,-489,6684,-3234,-718,431,-841
845,-6032,-3447,3520,1158,1806,1461
846,502,4331,7443,-1066,-1695,-1380
847,5234,-4174,407,-367,161,808
848,228,7259,5856,-847,-45,-1634
849,122,-1254,2273,678,-1862,-584
850,-3516,-1370,7014,448,979,-1983
851,2017,-3884,-5747,776,1636,-1489
852,7486,-137,6084,2,-1966,-1213
853,3321,125,5229,1621,-1458,-1413
854,-6983,-3628,-1491,-1634,1250,1003
855,7609,958,-646,-968,1062,1748
856,-6539,1929,6485,-1723,307,-1640
857,-2196,-634,-3713,99,1556,-1924
858,4019,-1824,7082,-873,94,-778
859,5364,-7042,-5519,-1112,862,1753
860,-3081,-3210,-15,-1331,343,-724
861,2381,-2083,6921,-760,1021,-98
862,-93,-6356,4097,-437,-1161,-1781
863,6891,-7469,7857,878,1978,-1936
864,3192,1626,-976,1022,904,-160
865,-1417,-7744,7608,-1407,784,-1909
866,2974,-1301,-206,-1728,-1237,991
867,3004,7720,6898,1492,794,-498
868,-4409,6816,2917,1532,-1002,1146
869,6410,5967,-2344,289,642,-1016
870,-2030,4254,-2605,-516,-765,1030
871,1475,7714,-3354,-692,-211,1732
872,-62,1309,4003,-1164,-845,-329
873,-7962,2709,6088,-1537,1423,1777
874,7601,3074,7923,407,-26,-209
875,5391,-5195,-2129,1573,-591,-1266
876,2153,-5697,-443,-1258,1479,-759
877,-711,-6181,-2370,-1580,-1255,-631
878,7807,3426,5284,591,-1154,894
879,-4476,884,6959,-851,-339,-1099
880,3429,2753,5934,-398,1333,-1779
881,-3346,-7451,5795,-1532,-1366,-950
882,7925,4612,-3358,318,-167,-975
883,7247,7310,5723,1333,1576,1917
884,-6200,-4342,800,-1951,-969,-101
885,-6504,-4055,3142,1183,261,1301
886,-2597,308,107,1964,-504,684
887,-2922,-2136,4014,-1749,-1818,1640
888,2687,-3435,-6458,-371,1738,-1972
889,1467,-4677,7610,1079,-52,1604
890,1047,-5784,-4160,791,1095,1811
891,5567,3688,256,1728,358,-291
892,7041,-2452,4398,-126,-1624,-312
893,2637,-7944,2183,-49,1559,-473
894,649,4366,7179,-660,700,1353
895,-6306,-1922,5861,-349,-6,-1233
896,7641,3442,2835,-701,1314,1087
897,-6896,6534,414,179,-930,-1131
898,-2463,-4851,1355,581,-150,1597
899,-3814,3123,-5291,-1744,-612,-628
900,1013,1571,-6713,465,-772,-79
901,7351,1439,3188,1847,1291,-499
902,2426,1415,-1255,-846,281,1614
903,-4717,-525,6095,1955,1056,295
904,-4163,-4143,-3502,1404,822,251
905,5868,7101,6490,-1313,1112,669
906,-3389,-7156,-2174,-940,523,-388
907,-5612,-7917,2152,-18,1874,60
908,-2355,-5060,-5229,1997,1603,330
909,7410,-5002,-462,-586,571,-420
910,-5410,6285,-2717,-769,-224,-1877
911,6476,-1171,1758,1938,963,-1794
912,1435,6197,-1106,1358,-79,-507
913,7445,-1563,-2106,1165,-1568,331
914,-2209,4110,7866,129,730,-1204
915,-6615,-4666,5978,-554,1601,-1277
916,-882,-7352,279,1203,-1799,121
917,-2937,-4141,3476,-1150,-340,1549
918,-6366,892,1877,1024,-64,293
919,-334,6796,-5796,-1356,748,149
920,4391,5125,5862,-1838,573,-1580
921,6583,-7096,2524,-1378,1601,-315
922,2203,3297,-5368,-1276,-1637,829
923,1141,1496,-1304,1769,-1903,-743
924,3978,-4842,-1813,1762,1602,1333
925,-931,5043,-262,-1791,-543,369
926,766,-4835,7238,-357,1633,10
927,-1340,1377,-3369,1310,-832,665
928,-4716,-676,-3175,1468,-1401,-1357
929,-3234,-690,-6797,1360,-1258,94
930,3773,-6166,-4397,1222,1424,-1305
931,1153,3562,2776,295,-1406,-1063
932,860,-2892,4039,1085,924,1569
933,-1269,-2294,-5178,-642,202,1385
934,7648,2724,3084,1622,-1360,1993
935,-6800,1340,-3819,-997,30,10
936,7571,1922,-2964,-321,807,972
937,5732,-3398,2740,-1224,-1840,276
938,-7923,-2217,2116,-445,1841,-1467
939,-2936,4713,-5125,1635,700,-1659
940,-1217,-3325,-4218,-1127,-282,-1012
941,-5563,52,-3746,-617,1287,-964
942,2855,-6605,5605,-573,354,1251
943,-5560,6080,1946,-1478,1841,1927
944,-6249,7448,1805,443,-330,804
945,-2608,5311,-169,-318,576,-1846
946,206,5282,164,1646,414,-1222
947,-2660,1119,6399,-1548,1820,454
948,7010,-879,-4585,475,-1541,1481
949,6119,1732,-1178,1485,-933,204
950,-4214,-4158,-957,660,68,539
951,2984,-766,4126,797,1884,-1208
952,-212,3940,-4900,841,142,590
953,482,7931,7225,-1030,-165,-407
954,2526,6214,-1413,113,432,-1334
955,7272,5916,-7763,-692,-1084,1879
956,560,3333,-7368,-330,-1003,178
957,171,78,-1601,-152,1232,-263
958,-888,-6741,5107,1902,-225,809
959,1853,1736,-7134,-1321,1185,-1562
960,4199,-5721,-3212,1697,-492,-1361
961,6682,5547,118,-565,-986,-791
962,-5572,7606,3238,-39,-1557,1775
963,-3010,-1723,6737,954,1177,-1954
964,-4873,257,6371,994,-234,203
965,1991,2999,6634,1144,822,-1648
966,-562,3258,6008,-815,1784,292
967,6859,6935,6568,-1314,1162,-801
968,7145,-2669,-665,1738,-1824,-583
969,-873,-2086,7401,-662,-1077,-468
970,-3153,-7669,2122,180,-991,1286
971,1413,-3664,2647,965,-563,762
972,-5208,-1020,-4599,-833,71,-427
973,4875,-7883,-5369,-1416,1199,1158
974,-2892,-6062,4175,819,-138,1479
975,-6774,-4105,-5520,-1834,-322,919
976,4890,-6674,3053,-1530,1378,1160
977,-612,5134,61,647,-1476,440
978,-7410,-4434,-7505,-1231,-1613,-357
979,6294,-1108,5299,-360,-900,-1124
980,-6503,-6861,5292,-1745,-618,813
981,-6584,-7095,-3829,-871,1326,-808
982,-6727,4427,-1366,1917,1929,1837
983,7636,-1545,-3980,1005,-1501,393
984,-1200,7599,-3883,230,1532,451
985,-1923,-7099,-4862,-1792,-1482,-1623
986,-5863,-5528,-3672,1354,-986,-1993
987,6253,-4608,-5953,687,-1768,256
988,2243,-5611,-112,1838,-170,959
989,2014,7974,5061,-922,1178,-308
990,-1313,829,2077,1143,-579,216
991,-6094,3221,-2380,-102,-1908,-1647
992,4870,-5671,7893,-815,-1803,-541
993,234,-253,7900,-1495,1843,792
994,-113,3931,-3614,-325,-1855,-1397
995,-7892,4895,-5437,-1037,255,987
996,4038,2762,-7556,560,-970,653
997,-4837,6798,5029,120,-934,-1275
998,2036,-6004,-190,310,-56,1123
999,2002,-6817,-5496,607,-1481,-39
1000,-7787,-4624,-5876,-173,-1969,-1384
1001,-6441,-6219,-7166,-109,410,-1591
1002,2112,4095,6436,1102,1007,-1832
1003,7928,-5345,913,-525,148,1813
1004,7412,3644,760,1367,-229,1517
1005,-6842,5712,7132,-1126,944,-1024
1006,-3164,7123,-2192,-1918,-1335,-992
1007,-4825,667,6349,1539,771,1847
1008,7986,-3718,-3917,-195,-1331,-183
1009,-6999,-1863,2182,-36,-406,1790
1010,-7366,2569,1829,1690,-1937,-1777
1011,574,-3258,7117,-912,-1057,1984
1012,-5110,1092,1744,-593,-1669,1211
1013,2676,2157,-7582,78,541,950
1014,-3184,-583,-585,1207,732,526
1015,-6811,5770,-4434,1220,-1090,-1385
1016,-2684,-5791,-663,-940,-1088,-1318
1017,-6340,2706,2716,-1681,1932,1236
1018,-1379,5600,1637,1066,1302,-147
1019,7616,7534,-7890,1599,1487,1509
1020,3172,-2908,1443,24,291,-1309
1021,108,3069,6268,-1577,-673,314
1022,-7929,-6531,1134,-144,594,-1730
1023,-2381,7172,7778,-704,-730,1702
1024,2529,-7834,-423,1651,-1149,470
1025,5531,2021,-3268,-789,1675,960
1026,-1717,5709,591,-555,-170,-1525
1027,-3867,7310,4977,-1688,-1839,-250
1028,-7734,-2772,-2645,1516,1172,1570
1029,-5564,1063,3050,-1833,-1205,-361
1030,-450,-5403,-619,-1353,-675,1930
1031,-4199,-6180,-4353,-1669,-710,1515
1032,1252,2365,3505,602,134,-1174
1033,-6851,-1547,-3015,296,-1696,-887
1034,-6259,-6032,-4321,-196,-83,704
1035,5836,3670,3163,-907,301,682
1036,2389,938,-1566,885,-1984,-1328
1037,-6798,-1521,-7857,420,-330,800
1038,-5421,2323,4213,-1574,-1895,-1841
1039,7691,4966,6843,1560,-763,-222
1040,-4377,3153,-6880,-1101,1946,-525
1041,-3969,2741,-5385,1695,-519,1497
1042,7158,5499,2693,-743,18,-977
1043,-2615,3687,2665,-1409,-1223,-131
1044,-1421,-1401,2292,1711,309,1765
1045,2045,-3854,1193,-1408,811,1559
1046,-141,-3033,2159,-1966,-244,-964
1047,7316,6046,-5087,739,-1972,-921
1048,-2632,-5427,-811,-1698,-1537,-1256
1049,-6855,2307,2839,766,-213,109
1050,3927,5705,-492,123,-894,-760
1051,178,-2229,-5127,828,-491,-1476
1052,6472,7433,-134,-91,-91,-1766
1053,650,7433,-4622,-835,-1823,1666
1054,4973,-588,308,-735,-794,669
1055,2173,-3225,-367,-201,-1984,1185
1056,2998,444,6737,-1092,1985,-1591
1057,-2328,-7620,6037,1434,1736,943
1058,6824,-3802,2543,-1861,1615,1500
1059,1193,1657,5970,-1543,-291,-802
1060,-4561,-2967,-3606,-1570,-942,285
1061,202,4688,654,-1033,-1138,-1821
1062,-3259,-7685,3828,9,18,-78
1063,3286,7493,3260,938,1326,456
1064,959,2223,6836,1183,-1379,-846
1065,1666,7514,-2942,-440,722,803
1066,-5382,1537,-235,-470,-1645,354
1067,-2367,439,3304,-1072,158,-54
1068,5215,-2557,-1035,350,-1607,-1062
1069,-6392,6286,7776,1471,-1886,-1557
1070,-247,-4207,6202,1945,286,1110
1071,-3992,2371,-4101,1060,-1137,1513
1072,-4347,2281,7847,1024,-1294,-1255
1073,852,3099,3590,1957,-1688,-559
1074,-4783,3036,7038,-1543,-44,1299
1075,-5968,-6939,-2191,646,-1168,-1033
1076,2000,4262,2054,-1216,490,313
1077,-4103,2779,-1879,250,-359,-1400
1078,-4307,-1051,-6286,-1592,1293,-844
1079,-2080,-4824,-3889,1305,1010,1958
1080,4438,4776,-1056,1099,-190,-1016
1081,4221,6418,1847,1004,1709,1875
1082,-279,-1345,2837,-531,-946,-1860
1083,-3334,7627,7719,428,-1356,959
1084,-5938,-6844,190,1544,836,800
1085,717,5956,-4269,1202,-821,-1962
1086,-4075,-1341,6484,-909,-1548,-529
1087,-398,1626,-1909,323,-366,203
1088,3801,-4756,3861,1745,1748,-1965
1089,3365,-3198,-5486,1171,-1089,-583
1090,7956,-6073,-1949,-1718,-404,-1307
1091,2983,1005,-7919,-954,-1191,-1198
1092,399,18,-5693,-350,815,911
1093,3611,-5687,-6047,-1898,-1732,-1570
1094,-602,5646,-1414,829,-316,-36
1095,-5802,515,324,-1790,1013,171
1096,-4592,-1227,3159,1532,8,1356
1097,6735,722,4812,441,-517,-994
1098,-5460,7744,5649,-1382,237,-327
1099,-3482,3006,5318,1450,-1570,1229
1100,6592,-482,671,1333,1336,1869
1101,4797,-4033,-495,-408,-1934,1627
1102,-1397,-7292,-1237,682,1069,338
1103,497,-4968,-4801,620,1558,-453
1104,-1645,4693,7999,-1868,-133,-1720
1105,1721,-6902,6815,1315,-598,-905
1106,-6214,266,2981,416,-839,-1475
1107,-3900,-297,-387,337,1241,38
1108,-7665,1486,-2310,-1193,1957,1750
1109,-6102,-85,-3236,695,495,686
1110,6899,-6474,7584,-206,-1751,1899
1111,-4005,-214,-7151,561,-1977,-1056
1112,-4838,7490,2767,-595,-287,-1708
1113,-5733,-2917,2369,-1833,-203,1385
1114,-5918,442,3292,-325,904,-1342
1115,-4170,-5091,3487,-1598,-555,-560
1116,7181,-2987,994,548,-1351,923
1117,-529,5922,-4656,588,225,-414
1118,-1635,-7764,-4690,-1845,200,807
1119,3814,-1108,-4858,-1700,1266,-484
1120,-4811,691,718,-1976,-23,-1372
1121,4443,-3279,-3822,1576,258,823
1122,6603,-4852,-1581,-13,498,395
1123,-5990,117,-6027,1149,-1157,-1722
1124,-496,-7162,-516,1722,700,-224
1125,-6326,416,7148,99,1665,-1008
1126,-339,-3322,-5798,-803,-488,-1954
1127,-2977,-2310,652,148,275,-293
1128,-1127,257,-5081,-919,-1964,-1941
1129,4241,-5607,-6587,-962,-318,-209
1130,3070,-5697,3275,-385,-1647,1089
1131,503,-5467,5465,-858,340,-1675
1132,2538,6919,-5639,-1821,638,-1857
1133,1806,-2029,-3136,335,402,-94
1134,-4659,-2465,7163,227,652,-1026
1135,-1563,-641,-3403,349,-1489,-1325
1136,-1800,157,-4610,1307,1995,1345
1137,-2573,62,-5119,1466,-802,-968
1138,743,-5107,-5848,-1057,-1610,797
1139,7209,6077,-7758,794,-1011,-4
1140,-2740,5798,-7696,1181,-303,845
1141,-6271,6238,7068,-1551,1487,-1157
1142,-5865,-4066,7866,-951,-76,-1007
1143,5996,5942,-2433,-1966,670,417
1144,-6154,6056,7212,-390,1803,-777
1145,5937,-1806,4148,-1110,1918,406
1146,3435,7536,-2193,-965,-1668,1544
1147,5496,-7390,5846,-178,991,1670
1148,3715,2808,1755,532,-1991,-705
1149,6431,-3184,-7635,-1627,58,1471
1150,-4349,1316,530,-1401,-827,-445
1151,-7340,7141,-1824,458,-1722,-1557
1152,-3601,2702,857,887,-955,-1814
1153,-3895,-5938,-2410,1341,-1642,979
1154,-1703,7918,7818,1706,280,-1759
1155,1003,6786,-901,-779,1207,575
1156,-159,2540,1602,-1532,1294,-1280
1157,-4515,-3405,-7246,-1541,-1771,455
1158,-6779,-3897,-5016,794,1962,138
1159,-5485,2347,-6703,1283,1243,-1984
1160,-4227,-7065,-6722,1629,-836,666
1161,-7990,-6650,-763,-1560,984,1396
1162,-472,-4082,47,-444,1432,936
1163,-496,2684,-7067,112,47,-739
1164,2641,-6545,328,-1619,1720,-411
1165,-184,1315,-3721,-1734,200,119
1166,6210,2991,-4139,1706,-1955,1157
1167,3995,4255,2358,-1030,871,826
1168,-6289,-6635,4914,24,1946,860
1169,-4511,1069,-662,-98,1039,1925
1170,-3459,-6720,5267,1558,1118,-1033
1171,5901,-5992,-2194,1773,-1248,-1995
1172,-1653,-223,-212,-555,1112,805
1173,-2835,3985,-5137,1539,-55,-43
1174,-7402,4498,-2125,1192,-864,924
1175,-1952,5732,-5350,1354,1373,1090
1176,-1293,-2377,1808,-1836,-807,1039
1177,7811,171,1892,1753,990,1736
1178,4039,-4844,6882,-1104,-625,827
1179,96,-5688,3165,-1796,-533,-1954
1180,6291,6984,-6019,1854,1998,1237
1181,-788,2656,5122,-344,-133,-208
1182,4524,5976,-4486,-1216,594,1028
1183,5073,4158,-4360,-1282,-923,1300
1184,-1702,294,-3662,-712,-999,1525
1185,-244,3029,3462,1667,-1026,745
1186,-3723,-2158,-4107,-1551,-1797,1415
1187,3092,-203,3074,153,301,539
1188,3444,1631,658,705,-1671,-932
1189,-5974,-2072,-4058,-83,-1671,359
1190,-7328,207,-174,-1133,263,1404
1191,6707,3232,-6872,-1784,-493,383
1192,5032,-3451,4331,1931,1533,-1932
1193,7590,-1978,-1054,875,-67,-1975
1194,800,-6106,2961,237,-699,760
1195,6793,-3665,5265,-258,1988,1163
1196,-2503,-3324,4369,1879,-881,-1831
1197,6650,-5982,-4504,1203,-751,-104
1198,3260,-3701,648,-1455,-1130,32
1199,2061,7854,2255,-620,498,331
1200,-5828,-2985,4491,-1322,1751,258
1201,-5894,-1157,-8000,1200,-1031,29
1202,-4485,2131,3641,-1114,311,839
1203,4455,7846,-5805,-1449,-467,-1195
1204,4662,-6434,-6549,153,-297,1355
1205,-5045,-315,3674,1459,-933,1
1206,-1864,-5943,7735,-182,399,831
1207,6993,-346,-5442,-1184,720,1506
1208,3527,-2057,4497,1528,942,1955
1209,556,-543,-4077,-746,-727,-1853
1210,6545,6825,5324,302,716,-959
1211,6058,-2961,2255,-681,-5,1931
1212,4331,-1895,50,669,128,-1549
1213,5576,21,-7414,-980,1153,-189
1214,42,5661,1379,1821,-153,155
1215,2922,-4301,6828,982,1296,-1358
1216,4982,113,-7180,-1532,-1819,-369
1217,7938,-800,-3735,846,-261,854
1218,3026,-2756,-6830,-349,-460,576
1219,505,244,4483,326,-923,-1045
1220,-915,282,1515,1138,1239,-1088
1221,1571,-2696,2807,1577,-589,733
1222,-3111,-4118,-3924,1890,120,138
1223,-7523,6966,-5505,-1112,-1851,-1796
1224,6079,-5620,-1461,-979,-267,476
1225,-914,7827,-3900,-979,1526,-235
1226,-4773,4818,-81,1512,-1048,-1690
1227,4443,2970,6056,-716,1100,-1904
1228,-4563,-5088,2340,-896,-1865,-672
1229,215,-5469,6030,63,1753,1134
1230,4010,380,6389,-1195,359,1221
1231,7650,6872,-3294,769,1709,1142
1232,-6946,2902,2340,-867,1126,1428
1233,4484,412,-2725,1817,820,-1349
1234,-1398,6722,-7289,-997,857,79
1235,7443,-2441,2399,-1694,-1101,754
1236,-2349,-6449,7779,1646,944,816
1237,6945,4394,-5216,1100,1353,754
1238,6163,7957,1531,-1780,-68,-1459
1239,6784,-1121,-2366,1100,-1903,142
1240,7157,-125,2607,-777,-865,-1610
1241,-4125,7286,72,-351,1001,-1412
1242,7262,3861,-7780,896,-340,317
1243,5802,-4925,-262,-579,-1004,-1507
1244,6461,3815,670,813,216,-790
1245,7189,-432,4646,1705,549,504
1246,4463,-308,-7353,1854,719,1680
1247,-6870,-4636,3373,590,609,-321
1248,-4705,-2916,815,72,-1567,-1932
1249,4668,6506,-7452,435,-418,-1983
1250,-4440,3794,-1010,1430,-1976,33
1251,-2879,7952,1927,-256,1174,-991
1252,1209,-607,1916,-592,-1297,486
1253,7191,-4969,-42,547,-1571,385
1254,3605,-6984,6059,-1961,326,-1891
1255,4702,-6688,781,-1132,1878,968
1256,-5899,1632,-6626,506,819,570
1257,1480,-7,-5887,792,-428,-893
1258,-2093,-5826,1191,1146,150,-1739
1259,-5411,2176,2517,1050,-73,1845
1260,-5881,3855,2531,-751,274,-965
1261,-3110,-303,472,-1020,1268,1092
1262,-644,-7107,2738,210,1646,344
1263,-7440,7980,-2003,1459,920,1750
1264,3169,-6776,4052,618,723,-1503
1265,-4220,-2372,-3222,688,650,-1091
1266,1828,1406,-4852,-1884,721,-322
1267,7517,2131,3536,1963,-94,103
1268,5249,3922,2168,-1147,216,1368
1269,4418,-3107,1477,-537,-1414,1299
1270,-7977,5542,-1156,55,-1335,-1163
1271,-5618,-3665,-6174,1339,505,137
1272,269,2076,-3206,809,-1563,-953
1273,-881,-6571,-2021,1831,-831,536
1274,-6669,-1873,-6932,190,1854,-1724
1275,7600,1472,2100,-1343,-981,1147
1276,5080,6276,-3715,-1,394,-443
1277,1975,-2800,3838,-865,763,-322
1278,281,4451,-4360,-1279,-1447,-1905
1279,-148,6756,-267,1593,1804,698
1280,-2227,-769,4374,1657,1480,-1390
1281,139,-4575,6421,33,-1701,822
1282,3703,-4340,1693,1544,-1444,-630
1283,-132,-3088,1408,-783,894,-841
1284,48,-2697,-3828,1587,-1584,-1111
1285,-520,6535,629,-1444,-521,1566
1286,-3708,1476,-7130,1741,1272,1904
1287,-3286,-317,-4701,-1115,-443,1800
1288,-2122,6323,7541,1905,494,554
1289,-5604,-5339,-1996,-1371,1233,-1218
1290,3735,-1673,-4222,-128,-1841,1251
1291,2898,-4796,-178,989,-298,-683
1292,2435,3556,665,1412,-947,-281
1293,-98,5734,-70,-1147,1661,-1871
1294,5417,-599,3833,-1818,-1423,561
1295,3306,4792,4347,-238,-121,955
1296,-2578,3492,-6529,-1924,-373,1601
1297,-6914,1655,5235,1655,-207,100
1298,393,-2667,6213,1506,-506,30
1299,-455,-525,-5071,686,569,129
1300,-3814,1763,469,1950,-1431,478
1301,-94,1871,-5527,1619,1723,-1276
1302,-5990,-593,6632,1556,1745,86
1303,-4660,-6685,2064,-87,1808,143
1304,-7663,-1453,7229,-1754,-602,1400
1305,-611,-2685,-3606,682,4,-10
1306,-122,3634,5479,-853,391,1561
1307,1860,166,-6154,406,-1657,761
1308,1046,-7701,5672,-148,-470,-1009
1309,-4329,-1652,3901,1180,-425,-1202
1310,-1310,4977,4417,-793,-1583,-1232
1311,-5588,-1670,-1694,1525,537,-1677
1312,7272,299,-338,-805,370,-100
1313,3424,7187,7453,-1106,-265,-1952
1314,-5192,-5906,-5215,-1351,-1402,-1482
1315,-7935,-7654,-4261,-130,-808,234
1316,-6025,-5681,-3232,1130,100,1136
1317,6082,-6366,4347,-308,1814,-176
1318,7562,7547,5531,-1427,1723,1843
1319,1975,-3195,-700,472,328,-214
1320,-5614,1152,2573,-1270,1749,605
1321,-6226,-4627,-5328,1555,1626,-1335
1322,-7145,3841,-6716,-1035,1999,-1194
1323,1427,-4173,-4029,-1381,-1957,-686
1324,4681,-5934,-7114,1164,-1930,-1451
1325,2071,-3868,-3074,-1739,1004,-385
1326,-7747,1227,-7537,564,-348,-814
1327,-396,-3128,-4408,-638,720,474
1328,-2033,6504,-7383,736,1021,450
1329,-6016,-29,1667,1100,-194,-849
1330,-7886,4628,-3461,-47,291,1645
1331,2279,-7948,6100,-426,-1498,541
1332,7547,6183,1698,166,272,676
1333,3867,-7870,-3081,609,-893,86
1334,3258,-5939,-1072,-1714,1511,-898
1335,4675,-4700,-3688,-133,894,1136
1336,7646,7003,5124,207,1122,1058
1337,-2962,-1482,6978,1463,-1905,-240
1338,4827,-1837,-873,-1699,-1744,600
1339,4746,2898,-4283,259,1153,1056
1340,2548,-5920,-4277,1421,-1611,426
1341,1093,4174,-6791,-1902,617,-576
1342,3021,6536,4123,-504,604,1363
1343,5256,-5606,-7346,-370,1531,-204
1344,-2868,-7123,-5319,-1589,1019,-838
1345,6147,-1435,-6289,-379,1748,1941
1346,-3822,-5555,1887,615,245,-865
1347,5986,7073,-4450,-947,-1206,154
1348,-6275,2218,-2021,-299,-410,-458
1349,-2230,-2704,-758,-1856,-1745,36
1350,5304,6538,-679,-454,-1483,1289
1351,1772,1537,-887,-1676,-1498,-1553
1352,-1311,5597,3877,-828,818,1687
1353,1562,797,3000,1671,1029,272
1354,-5649,-7184,249,-356,1305,-350
1355,4605,-4714,991,857,-1789,-396
1356,-5215,-6452,7067,-489,-1528,1129
1357,-6765,-4798,-2896,-739,1932,-749
1358,-3397,-5902,-2222,-22,-1365,546
1359,-4032,-1726,-7662,-1196,42,-1107
1360,5358,5514,-724,1040,-1177,-1052
1361,4378,-4528,-5199,-1203,469,-573
1362,-136,-7483,-3238,303,717,1774
1363,1047,5801,-936,844,-1010,-1791
1364,-6866,-948,-5694,689,-840,-467
1365,-983,4935,7437,742,-1469,-1710
1366,890,4305,-4308,1472,-987,-1954
1367,1812,6420,7740,-562,-1680,-1414
1368,5012,1629,-489,-1852,-793,1688
1369,177,-6071,-4324,1721,137,800
1370,7331,7799,1956,-716,-1243,-1449
1371,-1544,-2901,-4348,1475,1427,-1101
1372,-6423,-272,2077,-687,-573,-433
1373,-6141,-545,3351,159,-896,150
1374,-1813,1397,-7010,-1626,494,22
1375,4957,-5800,-1203,1407,1391,-1970
1376,5542,-3215,-5259,-1429,-63,79
1377,4725,5060,-1,-1252,-1712,-1677
1378,-3266,-7999,-6324,1618,-311,1971
1379,3730,2121,-7745,-186,-816,817
1380,6654,1686,-7724,-889,790,-762
1381,7066,6332,2589,-852,792,-707
1382,-7954,6383,-3990,846,-1779,-1575
1383,5876,7750,5429,-394,-666,1004
1384,2488,4760,7652,-1325,-1564,-1371
1385,5784,-5869,-1207,-1154,-370,-1564
1386,5381,336,-669,-218,459,-89
1387,-7122,3914,3672,843,-1531,-483
1388,-5620,5061,-3626,-937,-216,-835
1389,5769,-7759,-620,1909,-1638,-1678
1390,-4830,-7344,-2529,-1401,1443,994
1391,-3261,-3804,-1242,-922,1508,-20
1392,170,-838,1816,-640,-1837,740
1393,1081,-2814,1673,435,516,1626
1394,2184,-290,7315,1035,-1878,-1107
1395,-4977,7302,-5903,-582,-953,-797
1396,-5035,4258,-6119,1149,1938,-1621
1397,4791,-1049,-642,413,-260,-345
1398,5354,-2029,387,1847,1823,829
1399,5677,-2552,-453,1238,-1681,-838
1400,-310,-7346,279,1505,1082,-536
1401,-3243,-2388,1205,-1199,1072,-118
1402,5209,2017,3988,1166,-1995,-97
1403,-2668,-289,2571,-1213,-813,-1945
1404,2000,-4274,6296,291,1167,1454
1405,5299,-5111,-4610,1767,457,1539
1406,2325,1023,-3077,662,-1906,-892
1407,-7421,1463,3987,1091,-469,-1061
1408,-4040,2077,-1358,1001,1660,1240
1409,5166,7604,7570,-480,-1286,1234
1410,6352,-4436,1681,277,1173,-652
1411,4379,-1932,-4012,1417,-563,237
1412,2654,1360,-4168,703,-728,-1833
1413,3381,-7021,7255,1326,1105,-589
1414,1475,-1100,-62,1493,-1596,40
1415,-5723,2980,6376,1011,-1688,-1071
1416,-7162,-6577,6792,575,-26,1626
1417,-5860,-2729,-6873,1084,429,-180
1418,6259,-1753,-3006,-117,36,-1869
1419,-7204,-2711,3009,212,1143,218
1420,3892,-4542,2612,1252,468,-130
1421,-2725,-2300,-4031,-667,-256,663
1422,-1083,-4832,1332,-1851,1855,663
1423,1364,382,-7500,1462,214,-1760
1424,-3845,4516,-7315,-731,-354,1440
1425,-6631,-4754,-1237,-388,1893,-1415
1426,-7736,-7221,-2733,604,239,1389
1427,6226,-2862,-5966,-1173,201,834
1428,-5398,4245,-586,1620,-1448,649
1429,-6773,5632,1679,-1305,1850,-902
1430,938,-3860,136,-1262,612,1341
1431,-7220,900,7752,1018,-39,1169
1432,3882,-2246,-3189,-1447,138,-1007
1433,-413,-7837,5585,-1991,1922,263
1434,-7431,2186,-7493,1918,1286,-79
1435,6286,-2303,78,-1109,-340,-549
1436,-7214,-1586,315,-1721,-244,1367
1437,-6629,-1880,-5386,629,-1558,683
1438,4631,-3435,1757,-550,-202,-196
1439,4030,-5132,-896,-15,-678,-246
1440,4716,4920,612,-1382,-1016,-157
1441,49,6108,3078,1244,1824,1927
1442,1348,-4914,-5515,938,-401,930
1443,-7181,-4599,615,-464,-162,490
1444,-1796,-3690,3502,-1742,1909,-354
1445,1605,-2576,-4675,-1752,-1428,-1773
1446,5847,-2734,4057,1431,-1655,1457
1447,-6316,2143,7109,1003,-1734,1860
1448,-6842,3559,-3489,353,-140,-1940
1449,-2684,3814,3651,-282,-1703,-1981
1450,-2442,4245,-6636,-292,-75,-1172
1451,1899,-5110,2750,1845,-44,1631
1452,4381,1327,2832,-143,1732,-28
1453,-7530,6428,2441,-1865,42,1394
1454,4135,-788,-4583,1122,1317,272
1455,-7082,-2328,-5166,-862,224,1985
1456,2703,5261,-6432,-467,-1727,-63
1457,6616,1312,2262,-1302,883,-1152
1458,7150,1073,4907,574,-1339,420
1459,4969,-4712,88,1023,-222,576
1460,-2532,-7775,5495,671,1598,-1121
1461,-222,-1145,-363,-1529,1720,213
1462,-2698,4750,7937,574,-843,-1356
1463,7057,-1385,6359,-1407,-600,-591
1464,-4415,-3148,-6754,-605,1806,281
1465,3360,-6255,-3676,460,-440,-605
1466,1292,-6218,7035,-545,1589,-1835
1467,-561,5409,6776,-1584,670,-373
1468,-3195,5887,905,899,-1661,858
1469,2859,976,1512,1514,1048,-660
1470,-1919,2692,-1576,-1087,1425,1873
1471,7286,2950,-625,1295,-1296,-61
1472,-777,-1098,5714,-1914,1222,1738
1473,-29,-1761,6562,-1029,-1752,438
1474,-5700,-3214,-3305,-1179,1131,-1884
1475,-5412,7850,-5374,-1947,569,-1767
1476,4941,-373,6023,-465,766,1784
1477,6947,1541,-5917,-1516,324,1440
1478,4797,81,-1939,796,1135,-578
1479,1984,-2142,-326,972,1081,46
1480,-7862,6257,5606,427,1146,-440
1481,-6623,1449,1368,-1506,1130,1119
1482,6615,-4602,-7032,164,949,-451
1483,-5944,4257,-7968,1771,-889,-415
1484,-5755,6295,5234,-299,1349,-1636
1485,-3178,4349,7167,-389,44,-412
1486,2753,-3135,863,-1148,-1455,1127
1487,-5643,1277,996,442,33,-408
1488,-5435,7174,2510,1053,1240,724
1489,6955,7754,-5787,21,928,544
1490,-61,-3728,-2745,240,1261,555
1491,-2100,4584,6336,1693,1726,-913
1492,-3012,6449,7721,191,-1087,-1728
1493,2203,-3242,-610,329,899,985
1494,1130,2486,609,1377,752,-1394
1495,-7092,-3753,1240,-476,15,-138
1496,-7761,-1354,-845,806,-1678,-441
1497,2086,-5059,1892,-455,-1674,529
1498,2207,-534,2792,-1783,1461,-231
1499,-7971,-5666,-1965,854,105,1099
1500,348,6496,3186,-1717,1490,1357
1501,7250,596,-4622,-1356,-1657,-1527
1502,-252,-2120,-873,-618,-1818,703
1503,5304,-7093,4523,1674,-177,-1117
1504,-6465,172,2772,-100,-1581,-1423
1505,1033,-83,-2646,77,1462,1182
1506,5964,4395,7904,-771,-1837,-1595
1507,3307,-961,-3561,1859,1615,1377
1508,2991,-4841,1849,-1004,300,428
1509,6550,1304,5639,-832,484,1069
1510,-543,-4322,-7380,445,-979,1898
1511,-5710,5413,3935,-523,1432,703
1512,5126,-2252,-3887,1809,1495,942
1513,1093,-3859,4378,1041,-1122,1087
1514,809,205,-5133,1515,-1349,1976
1515,2774,4562,-4488,-212,-1404,-1403
1516,6071,5066,-6955,667,-1249,1391
1517,-1570,3072,-1037,983,458,98
1518,4590,-687,-3020,-1406,964,-1944
1519,-5527,2694,-5092,-678,-174,-1074
1520,-2240,-441,-6788,1595,1666,-890
1521,-4576,-6325,1295,-638,-978,226
1522,-747,-5552,-5697,940,1169,1068
1523,-4216,5244,-7865,-1397,-1109,-1659
1524,-7642,-4632,-4984,1885,817,-731
1525,3235,7622,-1292,-1402,1549,1400
1526,411,-6996,-1926,-1175,-1492,-1555
1527,-1197,-5679,-6648,-45,548,-863
1528,6637,-660,-4294,986,-302,1321
1529,4388,-4806,5785,928,1469,68
1530,-6365,7258,4298,-452,937,1033
1531,-7918,7345,5664,-409,111,-1244
1532,-1029,3676,5405,1463,818,1307
1533,2995,-6983,1347,-918,808,-714
1534,-195,6969,6212,-349,323,-251
1535,-1350,-7747,36,1265,-1312,-1012
1536,7481,3437,2454,-1782,-1773,-1869
1537,650,2168,2786,1486,-1541,280
1538,-21,-7115,1665,-143,-896,-1205
1539,196,884,5512,869,893,-146
1540,-1466,7945,-1844,-887,-848,24
1541,2518,1504,-3385,1782,-740,-74
1542,2807,3696,-7956,-1278,1187,-1520
1543,3353,-3076,-7497,1438,-131,851
1544,-6855,2617,-901,-267,-1894,-848
1545,2075,4075,6573,869,-1732,1961
1546,-1551,-5496,5748,368,-1837,-1403
1547,1458,-5999,-7276,1691,-449,-1704
1548,1353,-1937,3078,-1714,33,-1135
1549,-6710,-5481,186,-237,-702,740
1550,3061,6622,-2152,-339,-1994,-1514
1551,6515,-4729,-2877,-484,545,557
1552,2554,-5268,1227,5,1587,-426
1553,-443,2691,-3033,1887,1387,-930
1554,-7831,-6288,6749,511,-662,183
1555,4170,1171,-432,-938,1267,1107
1556,3240,7924,-1985,1307,16,708
1557,1317,7403,-2078,212,-227,-1427
1558,-5513,6273,-5427,649,1176,-1734
1559,-2373,-6514,-6676,308,-440,36
1560,1039,-6210,-1753,1590,102,460
1561,1255,-567,1315,-1692,266,-460
1562,3319,-4831,1585,-1098,765,-611
1563,7658,1716,6086,718,228,-1495
1564,-7328,5306,-1736,-577,-374,544
1565,-2530,-7958,-3258,-1877,392,-172
1566,-1221,-7215,6696,1982,394,422
1567,-6752,6880,-7886,909,1129,-1268
1568,-71,7540,1679,1866,839,-610
1569,1274,5810,4931,1505,-1012,-1742
1570,-5285,175,5894,343,-1585,-1080
1571,-2416,5861,-7311,1786,-1916,1735
1572,7784,-2325,-3936,-498,970,-833
1573,-1661,-2962,7245,-1983,-117,260
1574,7231,-5648,2580,-1990,858,-676
1575,-1618,4761,-5006,-1485,340,-10
1576,3612,6390,6818,-453,1421,-280
1577,-3235,-3104,-5506,1457,257,-495
1578,-1239,6562,7385,-1085,-472,253
1579,6993,-3383,2381,-168,692,-1683
1580,-1236,6682,-2591,-278,-1775,-1446
1581,-540,-4179,-1880,-774,1696,-346
1582,-5330,7397,690,449,-408,665
1583,4055,-921,-1299,1976,1117,-1294
1584,-4548,7695,401,717,1185,277
1585,-791,6076,7014,229,-987,672
1586,-2745,-5876,4018,725,573,-227
1587,-2025,5517,-229,1778,-1612,-963
1588,-2524,5802,-2791,629,-1697,1005
1589,-5369,-580,7739,-1965,-1563,783
1590,-7660,3089,4381,1671,231,-1767
1591,-7239,7488,-1147,505,610,-699
1592,7414,-5727,945,1854,-466,88
1593,-1403,4907,-4604,-1971,-1020,1669
1594,2901,1395,6644,-702,-1517,1707
1595,-5298,3089,206,16,1292,217
1596,5665,7689,-1371,-767,1052,320
1597,642,-318,-2282,-1942,-1429,301
1598,-5982,-1500,-4166,-1838,349,85
1599,-1934,-4346,1147,-197,1290,230
1600,-1799,1481,-3597,-1530,-1090,1370
1601,-6141,-3351,7339,107,948,-1744
1602,-2291,-5240,7439,400,-990,71
1603,5477,1153,-1393,-137,168,1135
1604,97,3038,-865,-594,336,-155
1605,1756,-7184,-1883,534,94,1531
1606,5138,-7937,-787,-956,1981,-85
1607,6840,-6985,265,1627,-1950,-1195
1608,7315,1806,5048,6,496,-1872
1609,-7581,886,-3265,1366,-1661,335
1610,-5280,-1493,478,1651,-1908,-1152
1611,-7831,-4367,6463,1169,1589,-1062
1612,7314,6455,4461,-1732,684,-728
1613,-2197,645,5052,839,373,-620
1614,-5110,-6640,-965,-199,-884,763
1615,909,2866,2310,1498,1765,1412
1616,2049,3605,2820,-348,-1031,1307
1617,-3572,3436,-6211,-1188,135,-570
1618,-154,7444,-6881,-11,-41,-251
1619,2752,1064,217,1782,-1758,446
1620,-838,-6483,-1277,-1004,-836,-1502
1621,1661,-2438,-5228,1719,1724,-1085
1622,-3256,-7567,-6238,170,1928,1344
1623,-2063,-1347,-2568,-461,889,726
1624,2756,7287,-3170,1960,921,298
1625,2652,3002,5321,-1052,-1289,-68
1626,7833,6706,-1598,1408,238,-582
1627,-3488,-4622,-4924,-722,-1172,-1020
1628,-7996,1112,1837,-1894,618,-1993
1629,-547,6373,1309,1249,1218,1202
1630,6208,-7406,-7191,1026,-889,230
1631,5320,-7800,7364,1091,-1151,149
1632,345,-3166,-6241,1926,-1019,-511
1633,6337,708,-3335,-1591,-299,1742
1634,4897,2746,582,-614,-1247,-1214
1635,-3591,2535,2989,-1360,1944,1219
1636,5364,5856,541,888,1969,-130
1637,7245,-1110,3822,835,-173,1922
1638,3011,6680,-5181,282,181,1894
1639,-7381,-2924,-6233,1402,3,1411
1640,3087,7763,-1595,1164,-674,1506
1641,5673,-3506,2422,-1639,-484,268
1642,-1345,-532,-5165,-1868,1062,-362
1643,3044,2246,3803,-979,-421,-1916
1644,-5124,-5694,-4299,121,1635,-1760
1645,7270,436,7277,265,-297,105
1646,6422,-6861,-7549,1806,125,64
1647,452,-3222,-5366,-1265,-223,-1613
1648,7709,-5944,114,1152,475,1167
1649,694,7999,1676,-1909,-1307,-92
1650,-667,5576,-5712,709,1774,-1452
1651,-480,-2173,-7560,-753,-650,134
1652,366,-3454,1310,865,411,-143
1653,540,-5078,7959,213,1422,641
1654,5862,3711,-1936,931,-400,1343
1655,-5466,2198,-5914,1519,580,-933
1656,6618,5747,2892,1717,900,1977
1657,-6549,5672,3076,898,-1029,73
1658,5813,-2233,-1025,1224,-583,-1436
1659,-2207,-2030,-7654,-77,286,-445
1660,-4428,5745,5813,370,254,-938
1661,4918,-1175,1254,-919,1360,1671
1662,7288,-4033,-5186,1853,839,1985
1663,-3751,2857,-6440,-1214,1306,794
1664,2200,3275,719,1275,1471,240
1665,-6742,-6040,-7358,-1231,95,1782
1666,-1351,-6606,-4145,187,-1488,-1397
1667,7974,-5159,-7878,734,-995,-1708
1668,-1559,6503,-498,-1326,-425,890
1669,-674,-6318,2206,-964,-86,-1050
1670,4001,443,3603,-1673,333,-719
1671,-4915,6123,-7519,984,-1511,1427
1672,-3292,7571,-2114,612,-30,-133
1673,-5225,-2042,3518,740,-1107,1196
1674,2222,-7811,5395,-1039,544,-973
1675,4582,5033,2926,-399,-1831,1656
1676,-3805,-7890,-5701,490,-414,62
1677,-7357,4517,-2483,1931,1426,-632
1678,460,4583,4387,-950,-1134,-735
1679,2923,3824,-5897,-1231,468,-1524
1680,-780,7589,4488,135,-586,-1883
1681,-6830,1532,-7002,1339,-1270,-1543
1682,-4802,6003,-4199,256,-1557,-760
1683,-2887,1808,4659,1592,-153,-384
1684,-7965,-5096,-4625,1313,-188,-1273
1685,7575,1739,-6857,-38,-989,-130
1686,-6438,5591,1980,728,-1370,-1227
1687,-5962,-1281,5135,-159,732,-764
1688,-676,-333,-6605,-1650,1138,1122
1689,3242,3260,731,1065,-1017,-1616
1690,6534,-3559,-6985,172,-1708,6
1691,7581,-3777,1829,1988,273,1561
1692,-6495,-6002,754,1193,-771,1355
1693,-2934,162,-498,1952,321,555
1694,3583,-6,1306,1534,-1692,1767
1695,-6752,-5112,1181,696,830,577
1696,908,1430,4240,430,-351,-1730
1697,-689,6883,3166,-1012,1465,-565
1698,5768,3247,-728,1342,1318,762
1699,-7462,5464,4876,497,-1949,787
1700,4713,123,946,-1627,-343,-291
1701,-3837,7859,1065,-1746,1880,1633
1702,-1221,364,7034,1956,1966,-1374
1703,4134,-3278,-1426,430,1330,-968
1704,-1078,4430,-2093,1581,-649,1181
1705,5389,2014,3167,-191,-1989,-1310
1706,6993,7615,-5768,401,-1934,585
1707,3059,6409,-1405,1748,-140,445
1708,-254,-7521,-3065,-779,783,-708
1709,2226,-4554,3718,-1500,-851,-1085
1710,-4315,1023,7269,-542,-1805,-252
1711,7848,-42,-840,1872,615,330
1712,5050,-2400,-5591,1437,1888,664
1713,-1688,1815,-6463,779,-1735,341
1714,1566,-3379,1794,-1020,-1764,-452
1715,2783,1269,2313,-582,-1768,-112
1716,2265,230,7102,1340,58,-1965
1717,2862,-352,-4434,-947,-1021,-448
1718,-6203,-4283,654,-1836,-488,375
1719,1948,4005,-2280,-748,-1320,-575
1720,-7321,-3175,-5634,1693,1668,-793
1721,-3128,-7328,5575,-122,-1647,215
1722,-5237,-822,3237,-1712,-322,-22
1723,-2888,-740,-2660,1561,1247,-1901
1724,-717,6579,-1988,1079,913,15
1725,1632,-1087,488,1947,764,-1511
1726,1076,6515,7597,132,1975,-1694
1727,-5033,-214,-3741,-1495,-715,1452
1728,-544,-2453,6307,694,569,-1488
1729,70,-2474,1672,1959,1923,1905
1730,2874,319,-1834,971,-1872,503
1731,4561,-3591,-7418,1484,-1967,1060
1732,4129,-102,3889,-784,269,148
1733,7233,-729,473,503,1185,-318
1734,3500,5526,6282,1080,-336,-805
1735,-4966,-5682,-3970,1375,1468,358
1736,-4094,5096,-1914,76,-1135,1886
1737,-2392,2376,7989,875,-1498,525
1738,-322,-1791,-6076,1548,-507,-1246
1739,3766,4269,-7536,-540,-922,-173
1740,683,-85,5860,-1215,1960,1482
1741,-6791,1581,6711,1120,753,-84
1742,5524,-1506,4926,-654,-1613,-212
1743,7595,-3922,-4448,-1268,1568,985
1744,-4560,737,-6504,-1507,1060,338
1745,-7257,1823,-1338,1743,599,-187
1746,5798,-6549,6048,-1957,-689,-1206
1747,-1899,950,6081,-211,1767,545
1748,2154,3937,-6437,978,-1299,-70
1749,-3174,4649,3262,-1598,-510,-872
1750,6743,6358,3042,-1835,1829,-1738
1751,-4890,-7518,7770,-696,-1574,-537
1752,2440,-3592,3646,773,-522,1850
1753,-984,7007,7231,780,1310,1519
1754,-4912,4984,-5838,1173,1129,1665
1755,4825,2937,-7692,-25,1945,-38
1756,4590,-5358,6878,-791,-633,-715
1757,6603,2149,2639,-1121,-1293,941
1758,-7149,-476,438,1083,1475,-1990
1759,2512,-5871,2556,-28,1447,1337
1760,5323,2160,1075,1240,-775,-135
1761,-5197,-986,789,1336,1595,-1612
1762,5884,-7538,7345,-218,784,1787
1763,2752,-2380,7269,918,1783,541
1764,3439,-5530,-5567,897,-1424,-404
1765,-3435,1722,-2330,1083,330,-452
1766,-4840,7727,-3894,-505,712,-753
1767,-1592,-6095,-2032,527,705,220
1768,7049,-2672,4881,996,809,-492
1769,-5553,5046,5894,1802,1450,1723
1770,5991,-6880,7575,-1146,674,-1104
1771,4521,6890,904,-1155,543,-880
1772,2408,5899,-491,1494,938,-863
1773,-3172,-5589,-333,927,-1566,165
1774,-6447,-3343,-295,1295,164,1634
1775,1948,-5916,3861,-785,1197,932
1776,1955,5578,-3780,1559,-1360,-379
1777,-6603,-2707,4327,-1392,1044,1519
1778,-7081,-231,5725,-1965,784,-799
1779,-1168,7677,-6833,-270,-126,-839
1780,-2345,528,-2980,1602,-836,-931
1781,-7153,5889,4637,964,1623,-1932
1782,2715,-4400,-6920,-578,1316,-1726
1783,-7713,-1565,-6566,-531,-1566,-934
1784,290,6460,-5059,1071,-358,-1958
1785,-4543,1599,-1159,1719,1796,-720
1786,6309,4876,-270,-1443,498,-1630
1787,-590,7668,-3078,691,625,-1745
1788,-196,4799,-3856,-1318,454,-1989
1789,1390,-6842,-5771,707,633,1126
1790,230,7588,7603,-1545,1135,-40
1791,-962,-2364,-5816,745,-820,1429
1792,4289,-1002,-1505,553,-411,908
1793,5434,4688,-1347,-1993,-674,1988
1794,-5800,5971,-766,-1643,-212,1584
1795,-3549,-276,-4645,-765,-1296,-836
1796,2471,6622,-7508,179,1937,1923
1797,-3829,-1212,-7785,1208,-569,-1195
1798,-7531,-1114,7115,654,118,-750
1799,2549,2058,-5036,1296,504,704
1800,1057,5318,-7677,-1819,286,-1294
1801,6801,-7858,4250,-205,1186,1666
1802,-3807,-4280,1744,773,1162,-1290
1803,3287,6086,-5991,472,473,-192
1804,6498,-4822,936,1583,-560,57
1805,-3977,5896,5053,1908,1100,377
1806,3704,5497,1300,-531,-1226,-1163
1807,-5696,-5852,-905,895,1677,-1741
1808,3104,6636,4631,-1318,955,-1940
1809,1990,-987,-499,-782,26,546
1810,-2955,-1402,5660,531,1338,-1668
1811,5481,-4586,-4785,-1178,-1294,-246
1812,565,4608,2008,681,-1449,-297
1813,-3307,-3084,-2116,505,1481,1530
1814,-3722,-2471,-2385,-303,1197,1615
1815,-681,-318,5501,-1316,1806,-1331
1816,-2216,6694,1639,1703,1818,-1479
1817,5734,-1173,2054,-117,1621,1564
1818,7393,-6351,425,-1271,1895,1173
1819,-5328,6485,-1002,-499,1390,1668
1820,784,-5315,6458,1032,-1132,122
1821,345,1645,-1873,1639,1730,-834
1822,-7324,4995,-2661,-368,1819,-1024
1823,4834,-3060,6655,-1346,948,752
1824,-6098,-1533,1202,-963,-491,-1612
1825,-426,7407,-3993,1250,787,633
1826,2608,-983,7132,1489,161,39
1827,-104,-6029,-2981,-1602,-307,-1066
1828,5848,407,-7648,-31,-752,263
1829,-3142,-3758,7131,-634,1210,-508
1830,2623,6157,5356,-1593,1681,-1047
1831,650,2666,-3385,1530,1737,1776
1832,-5725,-3835,4933,564,769,-596
1833,-2888,-2273,6163,1425,-1656,-1753
1834,4173,-4788,1446,947,-890,-1680
1835,7792,5735,-7451,-199,1499,12
1836,7790,-1973,-3258,-1627,1164,1077
1837,6161,-420,-3742,-743,537,-825
1838,-6104,-4103,7148,-538,-340,913
1839,-3149,-2071,-208,-575,129,-1901
1840,-3829,6480,-3292,79,241,-701
1841,-6677,-6206,-1340,-1531,-654,304
1842,-3479,-6313,4235,1563,1018,-58
1843,-5976,5505,-2077,-1109,1964,1687
1844,-7335,-6805,6356,544,919,-695
1845,-414,6591,-3406,898,933,-545
1846,-1425,4165,-4929,475,1308,5
1847,6292,-6230,5922,1574,-1622,1001
1848,-5515,-2715,-5823,-57,-1168,-1665
1849,4618,-768,-983,1663,-185,1529
1850,5650,-4822,1401,1545,-1535,493
1851,-7971,1667,-3174,1055,-1254,-2000
1852,-2659,-7862,1943,1046,543,-1791
1853,4501,-1383,-2011,468,1899,-1969
1854,2697,-3942,7614,1508,751,-296
1855,-6606,3294,-961,1288,966,-1424
1856,-7380,6524,-1627,-974,-1677,863
1857,-6403,-7044,5514,-42,-212,-528
1858,-2879,-7235,7288,-709,-1562,1848
1859,3838,-7982,-109,-2000,1983,-309
1860,-1774,-1931,-54,1408,1804,-1558
1861,396,-3269,4759,-244,1089,-1089
1862,2158,-5762,-2799,584,1411,-1741
1863,4459,7571,2089,1565,-1332,1738
1864,-733,2390,2457,740,-1664,-726
1865,-2747,-5540,5590,-1377,-404,-1935
1866,-3769,7289,-3407,-595,-716,-1461
1867,-6555,-2839,511,-1373,-219,-13
1868,-783,1089,2324,1332,980,-885
1869,31,-3672,2867,-235,-85,1172
1870,166,-3732,-1932,-1251,-208,1633
1871,1794,-7502,3156,-1004,-1473,439
1872,6685,1188,4013,796,116,649
1873,2812,-832,6028,-1279,-685,-1974
1874,-1361,6938,-612,-811,-1714,1680
1875,2239,-5945,7989,626,-1021,-912
1876,-4608,-2360,-4294,879,-79,-120
1877,6367,5518,867,-1257,-431,-502
1878,2540,-1528,5818,-1823,361,-57
1879,-4671,-7132,6655,-1545,-1459,426
1880,3887,412,2,-1502,-1827,1544
1881,5098,-4392,515,667,-1932,1352
1882,994,-425,-2310,824,1622,1513
1883,-6543,3499,2591,906,43,374
1884,-2391,-6265,3196,1492,934,-521
1885,6633,5518,4301,-620,892,-313
1886,-5540,5248,-7156,448,379,568
1887,-3314,-5557,-4300,1547,-281,323
1888,1318,-6600,-7456,-485,-1768,1852
1889,-5281,5738,68,1970,-1495,-504
1890,2714,-6878,3069,1689,55,93
1891,3696,-4277,7007,1702,-122,-621
1892,-1280,956,2243,-521,1873,-224
1893,-178,-6597,1506,536,1649,-454
1894,460,6333,-3526,1439,1089,1569
1895,4835,-7790,-3637,-1098,-1330,4
1896,6563,-3759,196,1785,-552,-336
1897,-5905,-4165,-4349,-1027,-1773,1601
1898,3461,199,-6744,-1562,1814,-335
1899,-854,3326,2644,-239,346,-456
1900,1793,-7379,-7562,-885,1648,1932
1901,7712,1279,1971,1412,-1758,-1141
1902,-1539,-557,6918,934,938,-187
1903,61,4705,5128,422,-1231,846
1904,-4628,-2818,2362,218,-1331,1503
1905,-3086,-7939,6743,673,422,1393
1906,-2357,7172,-7028,1159,-1918,1100
1907,-4327,1964,-7827,860,679,-1053
1908,-5528,-495,-2392,-1592,-1805,-205
1909,-6438,7110,-6030,-598,1450,-1137
1910,-2518,-5379,6828,1946,-61,-1453
1911,7250,-5062,-2826,1008,-289,-1028
1912,-1733,-4667,2015,-1601,-1551,777
1913,4983,-1070,5198,-1493,1456,36
1914,619,-2601,-5445,1909,537,1269
1915,5270,3259,1441,294,-664,219
1916,-4346,-394,-666,-1474,-455,-686
1917,6204,1995,-3628,-1967,848,-1188
1918,-1577,-6335,7197,594,-664,324
1919,7064,-4127,903,-953,-1784,-151
1920,-1058,-2362,2892,1337,1349,190
1921,3319,40,-6770,1917,394,-448
1922,-4574,-7405,6272,-321,1162,1523
1923,-2377,3403,-4836,1549,1635,-1214
1924,-4112,-1938,3658,1036,8,316
1925,4214,-5779,-4291,1210,-252,739
1926,-4261,618,4461,362,-305,915
1927,-5998,-3462,-1231,1394,1971,-739
1928,4191,1646,4549,-1276,211,298
1929,-4975,-5086,1982,-669,-1963,62
1930,4465,-2084,4263,-233,-963,569
1931,6831,2635,6380,1817,-1432,233
1932,-6116,1549,1150,-1952,1432,704
1933,1832,6493,-7557,-1036,1306,-962
1934,3998,1810,-1263,1621,14,-1746
1935,4653,-6956,-4233,1624,-251,-1293
1936,2837,-7759,-7086,1450,340,83
1937,-1492,7811,1314,1808,-1311,-777
1938,-5494,3456,-68,-1601,1545,-784
1939,1068,-1568,887,-1208,-1303,-81
1940,-3017,-1349,231,-81,-430,115
1941,2275,-6583,3663,1965,1041,-1233
1942,-5746,-3089,2596,-1656,-698,600
1943,5240,7314,1111,-80,-1165,556
1944,-7927,-1309,2637,1322,1492,-1632
1945,-5511,-973,-3271,994,-81,-466
1946,4226,-3084,-5289,-698,1109,-392
1947,-5262,5053,6520,-1686,1231,-1158
1948,295,5921,-7690,1893,869,1987
1949,-6123,361,-4278,1611,-1609,1294
1950,370,3795,4779,1687,596,-1232
1951,-5135,1055,5438,500,1183,-152
1952,-7982,-5473,-7060,-1812,420,1407
1953,-933,-6707,1826,1120,-1899,-1264
1954,2004,-5831,797,-1147,388,-806
1955,6244,-6436,-50,1451,1451,1932
1956,7643,6268,3594,-1684,-1593,1722
1957,-3025,-2256,-4619,-1526,-832,-386
1958,1350,6315,910,-1596,1573,-391
1959,4464,2415,5199,-689,-1493,1397
1960,-1431,314,5668,1752,138,300
1961,-7112,-4586,3710,597,-1526,736
1962,2981,4575,556,1856,-628,1839
1963,2492,-6968,3743,-1396,1041,-1642
1964,3974,1021,-4134,-1522,-1376,709
1965,4435,-7648,5793,-1351,754,-1988
1966,7796,-6682,-4178,527,-1714,514
1967,-7140,-3970,-6045,1120,-1872,-951
1968,2647,1547,-1201,-911,1064,34
1969,6158,-6746,5970,-1739,967,701
1970,3739,5039,7060,538,1013,141
1971,6201,-1227,6308,778,-431,-1956
1972,963,1094,2325,489,-172,394
1973,7005,-4347,6987,1387,-662,122
1974,1726,6249,-1911,-1046,-247,-1168
1975,-6953,-6582,-3127,-170,-330,1467
1976,4335,5486,-5392,-383,-1212,32
1977,6843,2654,-2597,296,950,-1912
1978,688,-3685,-7336,-1053,-1196,1722
1979,-6166,7461,-657,-1088,728,208
1980,7304,4740,7746,-1773,947,1469
1981,5820,7772,-3027,557,1029,708
1982,3765,-4630,-5624,-1333,-1724,-1092
1983,-1512,-6097,-7236,1252,-812,1126
1984,-5445,901,-6143,777,383,-370
1985,3238,4131,-3887,-1414,723,-820
1986,-4572,-2630,-308,-330,-10,-1368
1987,4486,-571,5701,-1722,1254,-1540
1988,7177,5607,737,-791,-725,-1476
1989,7756,-4425,7214,1179,1156,-1602
1990,-2968,4957,-3136,-1572,-1450,1948
1991,6376,7680,2256,947,752,-573
1992,-2983,-4688,-6531,-209,1069,1513
1993,-3423,-3073,2566,-937,728,712
1994,-2807,-1865,6251,-645,1826,971
1995,196,-5446,-2334,-1194,102,-1449
1996,-1326,4531,3353,-388,-1931,-1923
1997,2994,1391,-1866,-301,1392,385
1998,-6854,-5646,5344,-1455,1161,435
1999,4523,2739,-4063,1560,-276,809
2000,-3980,4330,-2531,1996,-1263,1204
2001,547,6242,-7815,-1321,1271,-1524
2002,6291,806,7211,-553,1145,-1335
2003,3166,-7182,4492,1517,816,1596
2004,-3932,-674,3779,-795,-28,1298
2005,-7681,6543,-4752,1761,738,-822
2006,-1616,-6048,4570,-972,-1997,-1810
2007,-2561,-3087,7874,-1016,230,-1322
2008,-6570,-6727,1044,-1087,1844,-1965
2009,-4480,5427,-6419,-1581,-249,-1385
2010,2732,-6905,-3376,-41,-78,-1076
2011,7174,4431,-352,-1644,-162,1836
2012,3820,-7035,3704,-1334,373,-1905
2013,-3490,-2951,-4743,689,1017,-71
2014,1096,211,-7025,116,1458,352
2015,7482,4189,-2967,1161,180,572
2016,5719,1873,6895,-1475,1623,-528
2017,-2068,4669,5361,-1611,-293,-157
2018,4289,-3347,-6987,-706,759,-503
2019,6812,2133,6872,301,393,1063
2020,-1807,7724,-915,-441,1096,-1174
2021,7719,-5,-4471,1314,-575,1251
2022,7764,4232,2152,-51,27,-798
2023,5844,-3838,-5441,1347,1005,1415
2024,-2116,4258,-1806,-647,-1527,1003
2025,3862,7521,7104,1044,393,-905
2026,-7835,-4509,3974,-424,125,-99
2027,7746,-425,-7277,982,-1749,520
2028,5789,-7051,6440,518,877,1587
2029,772,3994,-4304,569,1806,-15
2030,6575,-5463,413,-1194,-831,-1655
2031,-6191,-6750,-7759,-1165,-283,-815
2032,4941,4266,-7221,-1127,-522,-1319
2033,3349,-4547,-1446,-762,1505,-1128
2034,-1433,5398,-6664,446,1675,1996
2035,-5739,5053,-7532,-1821,-340,-1958
2036,-7664,1479,-7380,-723,122,-259
2037,4688,1727,-1645,503,305,760
2038,-7507,-4209,1997,778,-1955,1843
2039,-1536,5314,6024,512,946,1955
2040,-3288,1204,4403,-1279,1658,-1877
2041,6385,3643,7068,-1915,-1457,769
2042,-1427,-6237,-5725,-1242,994,299
2043,-2787,-687,-93,-1448,-1576,-603
2044,-5243,-7466,-417,1393,1169,819
2045,-7241,7923,6680,1793,-610,1309
2046,-7275,1040,-3732,1127,608,9
2047,7512,2567,2638,74,-1084,-1283
2048,-767,-2518,-2012,1512,392,263
2049,-1972,-5810,3257,203,1314,-698
2050,7510,3175,7158,1536,1800,1770
2051,-3992,1931,5871,1125,689,201
2052,560,-6669,4472,-1408,649,1640
2053,-5550,3993,-3588,1375,1695,-1074
2054,-6352,-3485,5278,905,-431,435
2055,-320,2386,-999,564,-618,-368
2056,3170,-4848,-7532,1058,1478,-1676
2057,-6976,2736,-3962,-576,-91,-1953
2058,7202,-6654,1145,-868,-974,26
2059,2484,6258,543,247,1713,271
2060,3878,6758,4892,1562,-1836,-1605
2061,-7170,-7897,-7061,-333,-202,-1431
2062,-3664,1110,7481,-1983,1641,658
2063,-6550,6445,7365,-765,154,1651
2064,-1875,3599,-6379,-1618,222,253
2065,3572,7959,-6140,-224,1213,-1321
2066,-3563,3041,2300,-1436,1130,-351
2067,-4836,6424,-2366,-581,-1400,-1506
2068,-593,-6515,-3621,-1168,1518,-1838
2069,3553,-6124,-3122,-270,-1284,1819
2070,6841,-4025,-5275,1204,-1525,-1288
2071,-5363,-1450,-7935,1238,-1325,-1951
2072,-6663,3032,-5126,1501,-1538,-52
2073,3025,-920,6090,-81,935,-783
2074,2948,-2673,6181,444,-16,-656
2075,-931,4949,-1370,168,381,-389
2076,2427,287,-5131,-997,-7,-181
2077,-6082,-2105,-5059,-1993,-205,1257
2078,-2454,510,-579,-1744,-796,372
2079,-1048,-590,-6681,1005,878,1702
2080,5540,-5059,-2042,-557,1957,947
2081,1915,7341,1674,-218,-257,-1380
2082,-3413,-3030,2201,-1407,-481,-135
2083,-5020,6735,-7829,-388,-1690,567
2084,-7925,2122,-3572,784,-1946,1580
2085,-2591,6356,-5851,1954,-821,1777
2086,-3234,-3405,6524,621,1423,-1752
2087,7312,42,2388,-339,-686,1307
2088,4138,474,-7372,1172,-1403,324
2089,-1744,-4248,-3731,-1041,-761,-486
2090,6397,-478,1459,1533,468,1493
2091,-4816,-7765,3731,1578,-1555,-553
2092,-6827,663,6952,-1250,598,-288
2093,-4302,-6882,2653,1493,-1066,1453
2094,-3457,-1300,-4517,364,-800,-1339
2095,-860,-2193,4100,1324,775,1858
2096,-4594,3548,-1057,942,1749,1151
2097,1755,-5337,5641,-1648,1,-799
2098,-4922,5013,2118,84,1000,-1871
2099,4668,-5831,1909,-1097,857,1061
2100,1688,3398,-6632,1332,-1170,753
2101,-6927,-6504,1582,-1759,154,1189
2102,-3845,4076,-2822,-260,-1253,-937
2103,-6359,3610,-234,-32,-1753,1925
2104,5015,-3215,-3163,-297,-1949,339
2105,4076,3809,3356,1449,143,1720
2106,-7216,5870,5772,272,748,1075
2107,-5283,-181,7964,-371,-131,1828
2108,-6668,6653,-7039,-1338,-1877,-522
2109,3904,-1381,-5121,-559,-571,-14
2110,5458,-783,-7362,-1280,-713,-378
2111,-5009,-4824,-540,-802,1764,519
2112,6048,3506,2983,1189,1344,-1541
2113,-2475,-7400,2567,824,1806,-1318
2114,2391,5103,7629,1058,350,1153
2115,-6989,-6939,-6325,480,-413,1363
2116,5644,7257,-5403,-1583,-1471,1286
2117,-4448,3769,-7342,-1498,803,-1834
2118,-4017,-5222,130,-871,-792,316
2119,-826,-2865,2410,-1567,-1277,-1874
2120,-6856,-3116,-174,-541,-1134,-1266
2121,2351,7120,-6710,-1520,74,454
2122,-6118,417,2009,799,1714,-697
2123,6414,358,2612,1433,425,-222
2124,-3324,-3079,2940,-808,70,-432
2125,5301,1226,-7188,-1839,-1603,731
2126,4906,6100,2405,1667,-1569,-1921
2127,6400,-4147,-312,-772,1581,212
2128,4420,6715,-1033,1752,-117,1759
2129,-1250,-1901,6568,-337,1650,-1810
2130,6422,3363,3282,-1933,-1731,-1163
2131,-5733,-1629,52,1058,248,529
2132,-5048,-3547,124,-935,1145,1892
2133,-2209,1590,-2572,414,1640,897
2134,-7802,6921,-7678,432,1314,-678
2135,3004,1644,-1203,1625,943,-747
2136,-11,-7472,910,-1616,1549,-1959
2137,-6179,-5313,-1836,899,642,133
2138,4877,-6714,-749,-718,211,-30
2139,1018,4615,3298,-1696,-271,-1154
2140,6623,-26,2874,-134,1674,1794
2141,-99,7883,-6583,-757,-40,-45
2142,608,-1781,1858,-749,197,-1720
2143,1890,6116,2016,-1153,-1862,1083
2144,-3528,-7813,6091,-936,1839,-436
2145,-1745,5772,-7597,1932,557,1342
2146,-491,-5909,-6395,-1658,1356,1030
2147,3586,5962,-3547,106,-1562,-753
2148,-3129,-3251,3024,-768,-887,-692
2149,327,2447,5794,166,1141,-242
2150,6636,7796,5342,-991,-372,-1884
2151,-1563,-7995,1905,1624,-747,-1778
2152,-7287,-2737,993,1797,516,155
2153,-7184,4561,-3922,359,-1002,3
2154,5784,4295,468,39,-1819,957
2155,-5729,-1537,-4889,-1776,-1475,-1225
2156,3725,2408,-3997,-1725,1428,-382
2157,7024,36,1557,1460,-1717,1592
2158,-1781,168,-3065,1270,1610,-1192
2159,-4943,2248,-3532,-1046,1664,1543
2160,5998,2091,-4244,868,138,1959
2161,4730,-2994,-1358,-940,914,-1352
2162,-3564,5785,6371,1103,0,681
2163,-2488,7687,4533,-1597,-1145,-607
2164,-2037,-6290,-1745,1053,-1719,-598
2165,756,4087,-2138,935,1361,658
2166,4045,616,-75,-424,-202,1783
2167,-519,-1105,6065,933,1408,-1175
2168,2946,-3841,-2019,-597,1420,443
2169,7978,-4628,2536,-499,85,-975
2170,-7901,-5455,2097,-770,-831,1172
2171,5099,475,-3976,221,-1238,692
2172,-7829,7139,-3308,1391,-748,-1945
2173,476,7544,-3309,1121,-686,-857
2174,-4709,-1133,7053,-866,1461,-704
2175,-6525,7723,6712,196,-307,-461
2176,4107,2139,6343,551,-1507,262
2177,3657,-6649,1502,1647,1138,-79
2178,1481,-6490,-834,-1200,-1422,1699
2179,-5291,3131,6218,231,-915,-1854
2180,-6205,-5381,3333,908,-1928,1019
2181,5772,2780,4073,-1561,681,55
2182,5155,-3388,-6169,713,706,-1228
2183,7337,3030,5315,-87,1723,-74
2184,2135,1969,-3925,629,-256,-1296
2185,-5793,2554,2399,391,-98,-1141
2186,-4043,-242,-4693,514,-1479,-1538
2187,-6176,5015,-6985,-842,1462,-1336
2188,-4127,6832,3089,-265,-154,-1764
2189,-7272,7329,6082,-1572,-51,99
2190,7150,3978,-4749,1463,-1759,-72
2191,-1657,7369,6975,307,501,-387
2192,6526,-2581,360,-1347,1590,473
2193,-3003,185,2521,-240,-1817,-952
2194,4942,1620,345,-1702,-392,1462
2195,7074,-6572,-5389,1882,1213,280
2196,7789,-1316,3603,-33,-322,-883
2197,6432,-1118,7190,-1428,-353,-362
2198,-1584,-7072,-4626,1071,-843,333
2199,2329,-4128,-1263,-1869,158,1691
2200,-2910,4727,3303,1647,-1765,-160
2201,571,3562,4869,-477,-1655,1845
2202,-6497,209,-1597,242,-42,1860
2203,7648,-81,7878,535,216,454
2204,1103,-7569,-5684,-419,299,-1490
2205,-2054,3830,-3963,938,1157,1487
2206,-6191,-352,-6086,1023,-485,404
2207,-3979,-565,-7257,-1953,715,-1149
2208,-2012,7213,2164,-138,-644,-431
2209,-4674,-7313,-2725,665,-90,1706
2210,1209,-6365,-926,-543,-727,59
2211,7459,-3899,-3021,-1142,-1988,-1297
2212,7705,-6303,3384,-1065,-1725,-366
2213,1642,-1360,5717,533,536,1854
2214,-7678,6531,5789,-1,634,-1008
2215,-7600,4264,-7620,-47,1051,740
2216,4972,-4737,-2458,1315,-1254,-40
2217,-4850,-193,1593,-22,1508,-1451
2218,2684,-7544,6540,-20,-1135,534
2219,-7109,-3506,-4008,-986,-203,1842
2220,-2238,3411,779,-550,-541,217
2221,7389,-2957,3566,248,229,-663
2222,-7459,713,-7769,1036,-804,1561
2223,4441,7874,7591,-1537,-692,-1059
2224,-5326,-1693,-1945,-1132,650,-43
2225,-563,5068,-2752,1102,1301,1283
2226,-2146,-5200,7550,1464,320,-1674
2227,-4580,5954,-4475,-1239,695,1882
2228,3115,5554,6224,-266,1465,1062
2229,-5880,4130,-2287,-1783,666,-1039
2230,-5358,6974,852,-1187,1524,-408
2231,6655,-5163,-7051,809,-1189,860
2232,-800,-3237,-4251,-1491,1330,-1558
2233,3281,-1059,-2867,-1563,1363,698
2234,-495,4672,-2592,-777,1979,-1485
2235,-2512,-6051,2558,1574,-1914,-1826
2236,875,6595,499,465,1410,1717
2237,-6849,6492,2814,-566,-1514,1718
2238,5919,-6249,2656,-1532,-1485,1365
2239,-156,-6749,-906,856,179,-336
2240,4078,-3367,-5005,1008,351,-382
2241,-4678,-749,5828,313,-1192,765
2242,5533,3978,-2151,719,-11,1114
2243,-5116,7901,2090,-1412,1863,1089
2244,5550,-2597,-3096,-329,-1344,-1672
2245,-5295,-3495,1481,623,698,-675
2246,-1655,5183,4677,-1561,-778,4
2247,-452,-2730,-3244,566,-1146,700
2248,1880,-5092,6490,1160,-786,1500
2249,-7390,-3482,-4056,-203,-1573,-95
2250,-5346,3618,-1317,1611,318,-930
2251,-3478,3350,-3965,-1428,-1371,1988
2252,7398,-4394,-7588,-174,-610,-1968
2253,-6492,-2210,769,-1765,1668,1704
2254,-988,-3896,4496,-564,1979,-385
2255,4531,619,-1308,-932,1948,484
2256,5145,7813,7366,-1628,1033,1767
2257,-6522,-6799,4912,-1570,-1159,1874
2258,-6705,6867,-1498,-595,-373,1033
2259,-3073,7797,-1624,-1319,-1578,602
2260,-352,2778,-4602,-887,-1579,1549
2261,1135,-5300,2603,1531,1315,1936
2262,-4280,4359,-6059,1772,-972,-1268
2263,1495,-6509,4827,-1672,1196,-1784
2264,3477,-5730,-1363,1490,-856,-1224
2265,3542,2154,1382,-709,-1166,-316
2266,-336,-5275,4818,664,-815,-1496
2267,6806,4096,-629,-1243,1701,698
2268,-241,-2463,-6675,188,-657,1736
2269,-6528,238,565,1146,-1325,1715
2270,2027,2184,5394,-305,1666,1636
2271,857,-1406,-5161,-469,-1720,-859
2272,-5150,-7325,-4439,307,-233,1221
2273,-3954,3160,4891,257,250,-162
2274,-7949,3490,-5814,1002,-1721,916
2275,-7216,-6885,-5109,517,-1692,-301
2276,3019,97,6666,-212,655,780
2277,1852,-4294,-2595,-283,-668,-922
2278,7788,-7316,2418,-1025,1309,1157
2279,5529,-3650,-7428,-1911,-992,1526
2280,6215,-3937,-3659,572,663,624
2281,-3381,111,-5869,-505,0,1929
2282,-3710,7398,-6129,471,1030,-1721
2283,-303,6894,-6481,1909,-1777,951
2284,-6120,3861,-49,-1993,-1876,-1211
2285,-3848,1966,-4587,-1681,214,719
2286,-5196,2071,-2519,-1201,-1188,1385
2287,-2979,-1573,-3738,25,-1579,1575
2288,-6244,3108,2896,1026,-851,-1792
2289,-2480,3493,-3286,1132,494,-635
2290,7289,-5390,-1651,870,372,-1630
2291,-6392,7230,6907,492,-1446,-81
2292,4753,-6637,-6210,-312,1963,-1860
2293,1981,6765,-4557,1915,1742,-1169
2294,5486,-4984,7357,-1947,510,88
2295,7684,4866,3731,-371,1179,97
2296,5341,-5080,7532,-1136,1026,-1068
2297,-2224,-575,-392,938,-101,-422
2298,6460,-1845,1771,368,1609,-218
2299,3841,1252,-6272,840,488,-959
2300,6300,4539,-1557,-1903,1116,1186
2301,-741,7452,-1230,1513,1045,-865
2302,6256,-3007,3480,313,-1635,-227
2303,-7068,-2957,2245,-1233,1416,-876
2304,7309,2680,2411,1605,-1246,550
2305,2921,-4868,4275,1215,-1329,1047
2306,631,4609,251,-620,943,-771
2307,-2515,6002,-7720,672,-840,235
2308,-6838,-3925,2884,1753,-840,1346
2309,3294,1421,5641,-775,553,-1745
2310,4462,156,-4795,262,32,-1987
2311,4368,5485,7854,-1319,904,-1345
2312,-670,5643,-4397,1804,1344,756
2313,1287,-2757,-3856,-1599,-12,1768
2314,-252,4013,-4551,-1439,169,785
2315,-849,5880,5206,623,-1496,911
2316,4827,-3508,-3548,-1007,1487,288
2317,3460,2028,-5561,1489,1334,-523
2318,5121,6283,-2766,1474,-1514,1896
2319,-3039,-3741,6774,935,-1731,-1547
2320,-2370,-5741,6398,717,369,1546
2321,2688,1148,-4715,-376,-501,-900
2322,-320,-2979,325,170,1476,1282
2323,2649,245,-5444,-1073,505,537
2324,7700,-5711,-7917,719,73,1135
2325,5368,-6857,1036,-1449,1543,249
2326,-4105,-2755,5016,-1303,747,-1328
2327,6592,3730,4242,931,690,-1549
2328,-7373,7165,-3764,-1001,1800,-1953
2329,2134,-4470,-1955,-408,1692,-1380
2330,-2827,575,-7361,-1685,-1780,-1765
2331,1946,-1236,-5706,-690,544,1634
2332,3635,1023,-4305,-1227,1440,864
2333,3573,-5288,2672,1721,-515,696
2334,1135,-3344,-4227,1535,-293,-1755
2335,2486,-1641,-6309,1452,-1396,250
2336,-7130,-5537,-4485,-40,1648,-1357
2337,2981,7956,-7427,357,-934,690
2338,3462,-2064,-6952,1875,1429,-596
2339,7195,4024,167,1133,-1423,-569
2340,-2607,2944,2184,-884,-373,-1726
2341,301,-3545,-252,1190,-1673,1297
2342,-13,-1997,-6391,1983,-275,-472
2343,2012,5606,7425,-1097,-58,413
2344,3735,5272,101,-1218,-684,161
2345,3440,-798,4565,-766,1827,-775
2346,4758,-5445,5557,-1630,-1827,-1011
2347,1023,1005,5487,-1247,-1518,1650
2348,-7109,-4507,-4410,1625,-191,173
2349,-3124,-657,-1167,-1485,698,-1906
2350,-4747,-918,-5632,-854,15,106
2351,3848,1040,-4388,340,1857,244
2352,-2937,-641,-2947,-952,515,1038
2353,4704,-6692,-533,1971,-1836,-1320
2354,7600,-7517,6403,-1275,1441,-297
2355,-4451,4117,-5938,304,-1914,796
2356,-5233,-5683,3971,-731,85,-1604
2357,-2649,-3196,-5730,-1604,143,576
2358,-3506,2572,522,995,290,-730
2359,-4028,-7232,5384,1067,-294,397
2360,259,-2613,-5870,-872,-67,-147
2361,-6669,6829,-3766,-764,413,-1205
2362,3299,434,32,1027,-557,764
2363,-7170,5994,-1967,-54,1025,482
2364,-1891,3587,-7678,474,-888,-1918
2365,-7,2656,-986,1625,-807,1926
2366,-1722,-5719,2146,1811,-1981,871
2367,-2533,4939,-3907,1774,-228,-594
2368,-4996,-1159,7474,1920,-839,616
2369,7889,1898,210,499,-1763,1289
2370,-2969,893,-4178,-832,-1441,1246
2371,-2409,4491,1400,-1582,-1722,1947
2372,-7625,3187,7447,999,1339,1851
2373,5339,4761,685,1828,-641,1605
2374,7867,-1517,-729,1698,-142,975
2375,916,-4275,464,-395,1123,-500
2376,-7910,2276,-5127,1655,355,1482
2377,7472,-2903,7268,1574,1568,736
2378,-6852,-5453,-7756,625,-400,752
2379,6910,6450,4866,954,1377,-1688
2380,-403,-7604,3300,-449,450,-1819
2381,-6351,3657,-3424,1377,-1789,-1181
2382,5392,4150,4519,-1468,-711,282
2383,774,2814,-3187,401,-1007,-257
2384,-7780,3707,-2030,1634,165,1571
2385,5861,-6285,-2269,-1213,827,-1127
2386,-1266,2989,4279,1900,813,955
2387,-6685,-2471,-2974,-932,-203,-1442
2388,-5729,-4889,-2160,-669,-1817,-1342
2389,6117,-683,3010,-897,-467,-1212
2390,293,-2159,2509,476,-276,-75
2391,-5256,-5207,6516,-1801,-310,1468
2392,2028,7272,3867,675,-1804,-1862
2393,4769,-5245,-7694,4,1072,590
2394,-4247,-3961,-5335,152,1640,986
2395,7230,-5490,1078,1047,319,-729
2396,3435,-6804,-5253,-1810,-891,1693
2397,-6966,7233,6085,821,-757,134
2398,1359,7453,-2833,-1824,1307,-187
2399,4770,-4065,5236,-1757,1148,200
2400,7314,-1831,2093,985,1944,-1444
2401,3919,-1696,3597,190,-101,-1137
2402,-2618,689,-2240,-1937,-1243,-1244
2403,3178,-5104,-7555,-1891,-123,1485
2404,-6936,-6143,-5143,-1110,958,633
2405,-7116,-7122,7833,1308,-1687,1808
2406,-2367,1509,1025,-677,-1618,-1543
2407,-628,5611,3547,632,-1152,-1986
2408,-7404,-2589,-4376,772,-463,-494
2409,4588,1770,-3929,-1644,264,1291
2410,-1541,3208,2197,-928,-859,-1693
2411,6465,-6099,-6243,-1064,244,-1320
2412,6643,2530,-6244,425,1976,1525
2413,-509,-3474,1534,389,136,-1361
2414,7854,6860,-6200,1706,1120,1289
2415,5406,-7047,-6037,-184,1310,-352
2416,-6269,6107,-5041,-488,998,-537
2417,6747,-1564,7960,-1671,-384,-1281
2418,589,-7464,-5381,1279,1847,-724
2419,-7387,7737,-4103,761,-512,-361
2420,-420,3837,-1716,-638,-1371,-649
2421,7055,-3548,4788,1242,-420,-534
2422,6913,-1748,-1081,416,-1151,626
2423,7509,-743,3844,-1250,-492,538
2424,-7295,6227,6028,-586,-96,-913
2425,-3389,1529,504,1558,248,-932
2426,388,-6524,7704,816,-1236,1932
2427,-6885,-634,6093,-1285,-1824,-438
2428,-2325,7598,4433,-1735,-580,-251
2429,-2326,-334,-3097,-1531,222,-516
2430,742,-7314,-97,1814,843,521
2431,6498,-6303,2738,-192,-1465,193
2432,-6616,-1092,284,1846,-1924,-1437
2433,1751,-6649,-1497,-183,-61,-282
2434,-5299,2977,-3940,-1130,-50,1644
2435,5826,3493,-7632,-655,529,-943
2436,3457,-1989,3405,57,0,1257
2437,-1013,6978,3653,-434,1126,1051
2438,-4946,4294,-1561,-1451,-517,-1478
2439,-1801,-5112,-4897,-1249,-1548,1678
2440,-4791,2733,-4994,1193,-176,-1628
2441,714,7414,5634,-265,1251,-1740
2442,-3975,2589,-3323,-321,-1698,280
2443,-7040,-5829,3930,101,1214,955
2444,1703,4274,7406,-949,-360,984
2445,7623,-4047,3659,495,-1273,-1441
2446,5621,2996,-6826,-1274,671,1684
2447,-930,-7107,844,1805,824,-1203
2448,2749,108,-5946,-1251,-1717,1378
2449,7677,6162,5216,-1914,-838,-366
2450,1838,4325,4163,-1370,-1822,-1832
2451,-616,-946,2072,-1040,-205,1507
2452,588,-2338,1353,1262,434,-119
2453,-1477,-7802,3579,1742,1670,-1618
2454,7487,-731,-3100,-990,1187,-913
2455,4613,5074,5957,699,1517,-577
2456,5181,5594,-3352,-1857,-1035,-630
2457,-4222,-7717,1963,-1954,1570,653
2458,7695,-716,-4835,-738,741,1732
2459,4369,7171,3849,1333,1752,-1271
2460,1814,393,-4170,1548,1593,1352
2461,-7242,-7100,-6156,1200,-1140,717
2462,-95,753,5853,1390,1430,-276
2463,-2204,-5506,-830,1933,-1264,-1055
2464,-4590,-2033,3277,-1657,1315,1456
2465,1014,-2025,1744,1649,1287,1047
2466,-5556,207,5729,818,226,-1513
2467,-3066,2119,-895,-1596,-1787,-1704
2468,3319,4109,5183,101,-508,994
2469,-3387,7931,-5214,-1156,660,-1785
2470,3877,4808,-3368,701,785,343
2471,4673,-2847,1360,-1067,-140,1913
2472,-7096,1490,-2916,-1914,262,638
2473,-2327,-2393,5917,-1608,-1967,-392
2474,-3887,3315,6855,-666,1771,-962
2475,1288,-2787,2615,-1806,-460,-1875
2476,2794,-1126,-7895,-935,1045,-1636
2477,288,-1700,609,-1121,-962,1274
2478,-7368,3929,1049,173,286,-1238
2479,3890,6719,7077,290,314,105
2480,1735,-2960,3641,-1925,-675,-39
2481,-229,3189,-7308,-1862,1796,-148
2482,6708,-564,2416,-1257,-347,-1174
2483,-7344,5338,1272,-1678,608,258
2484,3587,4288,6376,-1871,1757,387
2485,110,2120,-2979,-462,1803,-728
2486,5681,5079,-1071,1080,885,-796
2487,2927,2994,3526,-1659,1075,448
2488,1035,1496,2102,-495,-1282,-11
2489,2052,3458,-6986,-288,-1844,-1422
2490,4843,-1628,777,1559,1997,-239
2491,4755,6790,2574,-585,-770,406
2492,6491,-5655,536,242,-1731,407
2493,-933,-5115,-7397,422,515,1325
2494,-3676,2474,-2157,-1017,1505,-1358
2495,-3381,2868,3025,673,-1975,1570
2496,4951,5533,-7778,-1059,554,1087
2497,-2445,-4136,515,135,1681,-1972
2498,-2990,2529,5078,1985,-1799,1039
2499,7230,-7679,1159,-1385,-178,896
2500,-6938,-4324,2369,737,-1358,-470
2501,4407,6141,5808,-74,-1643,1519
2502,956,4454,-6574,631,1829,-1232
2503,2863,-4793,-6388,-1237,-820,650
2504,6117,1423,6555,147,1968,-1465
2505,2543,-1800,-2018,1709,-145,907
2506,-6991,7279,3269,-1624,1787,1382
2507,-4127,970,7904,965,-721,1043
2508,-154,-4672,5050,-1184,612,-55
2509,2367,7684,7011,1713,-1051,852
2510,-866,7718,-7694,-904,399,-244
2511,4915,6469,1704,368,-1548,-115
2512,-2135,-4210,2350,184,-1699,23
2513,7076,-3279,6919,-458,851,1251
2514,-4332,2831,349,-1354,-1692,-1088
2515,1104,-7020,3959,-1291,701,-768
2516,-7441,-503,912,-1796,1348,-1316
2517,7618,-7530,1209,-1825,1887,-574
2518,7229,-1141,-7223,-1666,312,-1920
2519,-1707,7560,-1133,-1189,1203,-297
2520,-4975,1712,175,1216,1995,639
2521,-3310,1841,2728,1726,976,2
2522,-110,803,4407,1855,-1553,-35
2523,-2303,-306,2738,-824,-1401,-146
2524,3789,-971,3131,1779,281,-1013
2525,3515,400,2344,320,823,-1886
2526,899,-2083,6226,1110,-1621,1576
2527,-5400,4693,-1021,-651,-307,-1715
2528,-7060,937,-5455,1928,-288,-1358
2529,6632,7914,4635,-1939,-455,-1936
2530,2345,-2016,-4320,386,1306,-1600
2531,148,3200,-729,1517,1826,-1587
2532,4630,-3269,2615,1664,-1449,-831
2533,7758,4199,6592,-1819,277,1139
2534,-2307,-6020,3118,-1386,53,1190
2535,1865,263,-7342,-1608,-398,-695
2536,-5495,1261,1430,-1777,1806,-417
2537,351,1458,-3694,-560,-1946,249
2538,-7847,2134,-3245,-1750,-88,-1481
2539,2743,-5954,-3916,126,1616,-263
2540,-5679,7426,1425,-1416,937,1292
2541,3278,7096,-5148,1339,-1178,1243
2542,-6386,2435,793,-660,-689,-601
2543,-7706,-4697,-6634,1035,-167,1838
2544,-4527,-2122,7810,-1983,531,-1637
2545,-420,-2164,-5965,969,1943,1474
2546,-4215,5664,1652,-1454,-529,-948
2547,7338,-3192,-4299,-1922,-1403,1319
2548,-5116,7774,2691,-92,1346,-389
2549,3122,-1434,7128,-801,-482,784
2550,13,2546,-4243,-1299,1943,-723
2551,-2706,-1679,6229,1531,-1309,625
2552,3056,-7296,-2412,1017,-1649,-1804
2553,3561,2342,6759,1831,-671,1012
2554,-4872,3357,1476,-1126,1332,-1519
2555,2920,2645,3224,-545,-830,190
2556,-892,-3133,3109,665,-646,-674
2557,-4214,253,7567,-1186,352,1192
2558,-2228,-1812,-5308,-658,-1006,884
2559,-203,-4986,-5657,1692,1016,-254
2560,5106,3542,696,-336,-1076,-582
2561,5423,5817,357,-1352,-182,1388
2562,5912,-4878,2480,1356,1196,1009
2563,-4631,-4942,3614,964,-1435,1072
2564,-787,-6998,3435,-298,1091,1308
2565,-7236,5031,-4039,763,-1816,1866
2566,7437,-2278,-7707,109,-1275,-1014
2567,904,-6022,-4390,-1173,1069,-113
2568,-5096,-2268,-2974,342,-1503,-1919
2569,-7332,6239,-6806,-1358,-1515,1457
2570,5513,7648,-1503,259,1604,-1043
2571,7437,49,-963,-695,-355,735
2572,7466,4146,-1003,1178,1851,-845
2573,3867,2033,-2180,490,1412,1116
2574,-4956,6627,-5675,-1402,1628,-1290
2575,-305,3406,5591,-901,-1466,1184
2576,6477,-464,-5276,-465,-1097,170
2577,4703,6070,-4164,-1481,-1052,1363
2578,-4337,5463,2313,-840,-1149,356
2579,-6101,4110,-7260,1298,-1336,413
2580,-1710,5991,-2781,67,1589,-212
2581,-3053,3505,-6025,-1550,1034,-513
2582,4559,-6229,7580,702,-1770,-1789
2583,4557,-5898,5744,-1108,1601,-1253
2584,7229,6137,-4060,-110,974,185
2585,-6879,-3078,-2360,-456,-845,-1302
2586,-2150,-2992,703,-1550,752,-83
2587,-6300,1415,-6784,1992,-1742,783
2588,5817,-5652,6014,-159,-1793,-1553
2589,7612,4531,7163,784,-796,-843
2590,-1375,-5330,7292,991,-537,-1490
2591,7306,1385,1182,804,498,-1007
2592,-5466,6898,6257,1851,-1072,721
2593,-3500,-3573,-4335,307,1782,-78
2594,5202,5642,-5004,-1229,-568,1812
2595,-3985,-4746,-2470,-1033,-1104,77
2596,7015,-7534,-814,110,-1262,930
2597,-3102,-7675,6897,-808,-2,1114
2598,-7207,-774,7556,55,208,-786
2599,4156,-7104,-172,1849,497,1079
2600,-4063,-1754,4330,-1373,-963,969
2601,-4833,7001,3565,1773,1441,1195
2602,7088,-1500,4100,1579,1711,-1312
2603,205,-4757,-7614,1254,-552,878
2604,5534,-3694,-7668,324,1987,1185
2605,-5860,2498,3301,1247,607,-599
2606,-7298,7488,-2002,1566,1924,1924
2607,4895,770,6286,-820,127,-1417
2608,-646,1586,880,156,-1109,-596
2609,5545,-2146,3417,740,880,-933
2610,-556,2481,7709,691,-1193,1133
2611,6516,-2398,2806,1053,-707,-695
2612,589,-702,7008,-213,1569,1947
2613,7719,6028,-5371,-1280,-148,1046
2614,7704,-5206,-1562,1121,-1619,904
2615,-2093,-1788,3072,-1365,1367,504
2616,6503,7595,-5347,-421,-1101,1509
2617,-5479,-944,3492,1819,213,-423
2618,7999,1751,-2850,288,1347,1839
2619,7976,1401,-918,1379,-704,-1590
2620,3905,5136,3568,-1591,-1789,-905
2621,3938,-4593,7387,-1424,-1398,49
2622,-5866,-2477,7407,-418,1678,-1333
2623,-1555,-172,-3285,276,-1289,1462
2624,-1992,-7615,-6909,382,-1455,1943
2625,2759,3944,-6311,-1293,338,-241
2626,2518,2005,788,1257,-152,1442
2627,7841,6470,3862,-606,-1095,-31
2628,6101,7559,7026,1291,-506,-114
2629,-3244,-4527,-5151,-1815,-600,-628
2630,524,6488,-4671,1719,-88,-1437
2631,-3899,-3953,-6860,-1200,557,-506
2632,-1601,-1966,-1898,-40,85,284
2633,-6293,7591,-398,-775,781,-1099
2634,2206,-591,725,-1153,778,131
2635,3145,7431,1749,-762,-718,-1731
2636,6918,7364,2868,1185,483,-1282
2637,-4546,1313,462,645,-1821,646
2638,-361,2133,4953,1287,-1198,357
2639,-447,-1021,691,1398,302,1459
2640,-5301,2641,-579,542,-1571,354
2641,-4351,-1044,2130,-276,-1233,-32
2642,2326,-3921,-843,-1748,-414,-1424
2643,-7252,7600,7998,1438,1879,1766
2644,7384,7735,727,-24,478,1070
2645,4182,5361,-168,-402,1675,192
2646,4817,1288,-3884,108,-191,496
2647,5348,-4423,30,-1616,865,376
2648,-4873,-241,-4870,-1674,352,-691
2649,-3728,-1104,37,-196,1601,-997
2650,6521,-5003,2165,954,1266,612
2651,-2801,5851,-3791,930,-209,1770
2652,-2014,5955,-829,-274,-286,684
2653,-4745,5785,4773,1483,1051,-952
2654,1415,4948,6484,-488,-793,-1964
2655,-411,5523,-3098,-1365,1554,-471
2656,2676,7322,-1014,698,-1245,1382
2657,-1071,-3752,6066,1186,1191,1747
2658,-4399,-5600,7014,-1811,-882,934
2659,-1751,-1910,778,-1294,488,1768
2660,7833,-6109,-6111,-1266,713,-1797
2661,-1543,6545,-5040,-1129,506,-1266
2662,-4502,65,-6834,886,1878,-557
2663,5103,-3894,-1583,853,-1467,-352
2664,-4179,-7920,6191,1782,849,-1070
2665,-1918,-155,4469,-1903,-190,-385
2666,488,5924,-6125,1122,-1084,-1023
2667,-1224,1306,-6302,-652,1536,-1127
2668,51,660,-2185,-967,1338,-120
2669,-3365,-1053,6757,-1654,-808,205
2670,7330,-5117,6928,-252,-730,1749
2671,4239,6119,1692,-301,-1206,30
2672,7027,4177,3357,1033,393,629
2673,-3682,-6032,-5181,-1348,523,894
2674,5032,-3354,3782,1,-368,-1878
2675,-5566,-1541,-675,1854,1236,-635
2676,2585,5855,2578,1842,-1282,-1201
2677,2977,-2718,1563,394,114,-256
2678,-3949,2310,7526,1991,-284,785
2679,-5225,-2760,-3953,-1861,-49,-1044
2680,2751,-2127,-7361,-972,1687,839
2681,3953,-3000,-4110,-1076,-1613,1925
2682,-1547,1848,6433,1896,174,-1492
2683,-464,7866,990,1200,313,-1790
2684,-1968,-603,-5058,632,-384,-139
2685,-1277,-7239,1108,1856,-255,-538
2686,4299,5022,1607,-395,-570,78
2687,-300,-5755,-5205,-1159,-1975,-1336
2688,4754,2946,-4345,-1382,699,231
2689,6666,1524,-3793,405,271,1461
2690,2038,4782,-2409,216,267,280
2691,7141,-3181,-6231,56,1099,-522
2692,2687,-3383,-1122,-1663,-1855,-1453
2693,2742,-6769,-6171,-1806,-999,-202
2694,-6539,-2754,1647,-1307,1761,-1201
2695,-6739,-7995,-1693,-307,-1701,-1749
2696,7973,-4757,-3299,-1631,-605,-819
2697,-2275,1395,-3209,-1582,-598,-368
2698,2907,5220,4053,-1430,397,-140
2699,2154,-773,3698,-990,-1503,-1339
2700,-5660,7304,566,-97,-712,668
2701,1130,-4551,897,-851,802,-1676
2702,-7473,-2042,-1279,1685,-304,-747
2703,-4515,5598,-6761,-1709,-1525,948
2704,-1367,-7846,7074,58,-758,-464
2705,-5107,6383,159,-1021,1803,1508
2706,5630,-63,-1939,-180,-1558,457
2707,-5880,-1501,-6489,1764,-137,-1045
2708,5808,5378,-1107,-1709,928,223
2709,3076,2013,465,-463,647,1749
2710,-2634,2630,3862,-752,1651,552
2711,-2723,-4742,-6990,-870,-1666,432
2712,-7564,6181,2480,-1279,988,1716
2713,7739,-2793,-6809,-869,1765,-939
2714,565,7058,2524,-1723,1907,1773
2715,1205,7379,1666,-1055,-1167,550
2716,-4104,3299,2102,-1292,583,1381
2717,5097,-1505,-988,-1155,1687,-870
2718,6666,4307,3403,-636,-1533,1783
2719,-2561,4045,6046,93,1479,-32
2720,7327,-7923,5584,-1524,377,439
2721,3819,3551,-1033,-1930,550,-651
2722,-6785,-878,-3451,1794,1998,-1319
2723,2001,5385,-3671,497,231,-542
2724,7138,-7407,-1139,272,503,890
2725,2794,3684,6489,-1683,896,-1917
2726,-3904,-3829,-4817,-52,-487,1474
2727,-6589,-4970,82,919,1335,601
2728,-6398,-5641,-5350,48,-459,-296
2729,1864,-6131,-1619,-1715,-151,809
2730,-632,466,5160,-1524,345,-1410
2731,-702,7220,3712,382,-1945,-170
2732,-2178,5954,3616,1418,1904,-196
2733,-527,2526,6272,72,903,-643
2734,5712,-3596,-7017,-1618,-879,-1308
2735,-1648,-3524,-6524,-625,7,1368
2736,4994,2453,-6671,-690,1239,-1839
2737,4260,-4101,5803,1107,1081,1876
2738,-7665,-1771,3407,-1900,1123,338
2739,4712,-4055,4357,922,1281,-257
2740,6506,36,85,-1471,1396,21
2741,-181,-1363,-779,1675,1856,289
2742,-1283,157,-3874,997,-1595,96
2743,1376,-4796,-5253,-227,-261,719
2744,-5346,6602,-4585,-1229,-1335,1458
2745,5787,-5208,-2133,-442,-866,1292
2746,-1309,1974,-5773,1478,1863,-786
2747,-2670,-6290,-2432,-214,-1571,1814
2748,6218,-3423,-2368,-1011,53,501
2749,-3283,1071,6145,-522,-725,-1801
2750,-3267,-741,-2186,-930,1360,-795
2751,805,-6729,4443,1612,1155,-1971
2752,-2013,-1112,3787,578,-302,381
2753,3890,5538,-3556,-1002,-1547,-1042
2754,7049,5666,3160,-452,642,-712
2755,929,-3450,-6296,-1445,1347,-221
2756,1739,5045,-5635,-544,1642,199
2757,6874,-3813,3484,-946,-163,1190
2758,-3142,-6418,-5831,-107,1875,1475
2759,-2837,-4540,6731,417,-355,-1166
2760,1794,-1653,-7725,1379,1729,863
2761,1283,-7058,-1309,836,87,-670
2762,-3549,1681,-1401,-1384,-1079,-67
2763,-1420,-7341,-6409,-756,-1348,429
2764,-648,-3434,2334,-717,1876,268
2765,-355,439,-581,1488,379,-1044
2766,-6051,-1378,5685,-157,1580,-1992
2767,-5366,2703,-6471,1267,-142,-201
2768,1539,-7961,1859,1184,908,118
2769,-6676,-7953,-5855,-1514,-1798,-1674
2770,957,3092,-672,-1017,-1400,-1210
2771,5637,1513,3818,658,-1055,-1273
2772,7690,-5165,4773,1847,1967,910
2773,925,776,7901,685,-1843,923
2774,175,7542,4701,-601,-1084,1616
2775,2333,-229,-6032,-439,1565,-814
2776,2508,-3708,-6106,-631,-1117,-58
2777,-7867,-7336,4528,761,-436,810
2778,-6136,3895,-840,-198,215,1050
2779,7725,-7777,-2050,-72,486,503
2780,-4683,-2606,379,-65,-1810,1720
2781,-6503,6062,-4365,1706,-673,-616
2782,3730,3164,-4484,1488,-1831,1105
2783,-2289,1022,-5622,13,1353,60
2784,290,-4227,2783,1547,-620,-1143
2785,-4254,7129,2073,-200,-294,-1950
2786,6195,-7653,4850,994,46,771
2787,-3494,93,-546,-1917,-1194,714
2788,4756,-7230,5876,795,-1263,144
2789,1103,-6290,-7057,151,-1862,-651
2790,-7122,156,-2409,826,-89,-522
2791,6002,4480,-3944,-1804,1086,-883
2792,-7608,6332,-6317,773,-20,-1881
2793,-7758,6820,-4565,-742,1049,-681
2794,-623,-4580,3796,-1984,1627,-1054
2795,-7662,-5496,-7531,-1184,666,1823
2796,-4332,4660,551,-823,1064,-882
2797,-729,-4769,-2901,-803,-517,438
2798,-7206,7560,-140,831,-1471,-294
2799,-3964,3068,4025,1024,-1862,89
2800,-218,1537,-3205,1996,-538,-1974
2801,-7770,3016,1124,-362,-232,-1719
2802,1970,5834,1231,394,1392,-1736
2803,750,-1686,-1718,1872,223,1820
2804,-6182,3647,6661,-16,-1310,-406
2805,-4783,-7936,904,-298,786,1766
2806,-6695,-1009,2366,-1784,-546,-1427
2807,-1511,4880,-3415,-1465,-1848,1187
2808,1753,-190,3002,1362,-1824,-1459
2809,-2668,1006,6597,920,-1812,-1149
2810,-3439,3458,-860,1648,-73,-188
2811,3744,-3236,6932,1432,-351,347
2812,-7946,-5379,-745,849,-629,118
2813,-7756,3757,-4618,1673,-1285,1890
2814,1968,-1146,-5831,1414,-760,587
2815,-5759,-3584,7961,924,-1912,-506
2816,4136,-1350,-5322,1171,-866,678
2817,-462,-6953,-2653,-1796,-879,-1385
2818,5213,-3062,-3229,-1027,372,1498
2819,5964,3367,-6548,-969,583,823
2820,-4590,-6,-5710,1624,233,1924
2821,5788,-3343,-5011,739,1869,-770
2822,-5182,-1696,-4671,-1983,-1905,1708
2823,-1467,-3636,1407,1338,-312,-239
2824,7315,-2900,2216,-979,517,1398
2825,4854,5571,5199,1158,1103,1762
2826,1718,-2736,-5843,-847,1917,-1951
2827,-4235,-3928,7007,-1022,784,-253
2828,173,-2298,5848,260,-450,422
2829,-1560,-4901,4677,-850,1240,741
2830,1687,1996,-3874,1064,-1904,-1749
2831,5364,4539,7763,-1942,-868,1940
2832,1973,7641,-2721,-1621,115,-1248
2833,-3248,7259,-3924,25,-1299,509
2834,6130,6470,4537,1402,-1743,-182
2835,3519,3250,-5059,-465,609,511
2836,461,-5680,7190,-1869,-1172,-389
2837,-4060,5128,6848,-810,-317,-1676
2838,-2155,7484,-474,-1074,633,864
2839,-5704,3090,-6983,570,1025,1374
2840,-2472,2680,3735,-1922,-567,1520
2841,5942,-2588,7555,265,309,-1594
2842,-6187,3743,-3428,1351,898,626
2843,-5312,4414,7673,-1197,321,29
2844,7315,3485,-2003,-1957,837,848
2845,-3094,-4513,1996,43,-1653,793
2846,944,7172,5042,793,287,-1519
2847,3231,3128,-5218,-70,-1074,1556
2848,7511,1484,-4295,1952,140,-866
2849,7163,-884,6744,789,582,-306
2850,-1277,-7424,-2277,125,-118,1879
2851,-5192,6564,2358,1791,-1500,-687
2852,-5510,382,7963,-58,1390,1244
2853,-2315,4193,1191,253,565,1540
2854,1439,-1266,5769,1507,-1647,869
2855,6077,-6407,4849,639,-828,-717
2856,-2848,-420,-6123,-1467,-1366,-418
2857,5110,-7208,538,-1929,1677,-1226
2858,-6893,829,423,913,-772,-644
2859,-1148,3101,3638,-455,-19,1571
2860,7719,7308,1484,695,-721,-522
2861,-1212,-3329,-6055,-1324,1313,-327
2862,-7505,-5708,2667,861,-520,-1415
2863,-938,818,4365,1686,1008,-838
2864,-7806,-4320,3338,-478,558,544
2865,2422,2621,-2574,-1217,1397,-1905
2866,2094,4811,2676,-1535,-306,-815
2867,3642,4014,1145,-1693,501,-599
2868,-1621,-4928,-1428,1487,-1920,24
2869,-6036,-1670,-6230,521,-804,-860
2870,-7568,-7591,5319,-695,-204,1784
2871,7946,-6987,-5197,140,-1741,531
2872,-6092,-7886,-7471,289,1584,1649
2873,-6745,7831,610,-1932,-914,-608
2874,-4631,3563,4781,-1501,1466,1903
2875,5108,-5578,-4672,-1992,-674,399
2876,3869,7867,-4396,-1469,163,709
2877,5808,-2960,6740,-1124,718,-49
2878,-119,-2521,-5883,-252,1379,-190
2879,-2049,-1530,291,-263,1847,815
2880,-7184,-754,-5638,655,592,1906
2881,6434,-2015,-4320,-927,-1806,689
2882,-2802,10,7631,-810,841,1806
2883,3020,-3223,-1511,320,1818,985
2884,-5874,5016,4970,1041,1846,613
2885,6129,3519,6682,1971,1416,1038
2886,2295,-4968,-4016,1297,-1066,1140
2887,-3921,4811,-6994,1334,-1412,-669
2888,-4391,3673,-573,1522,1964,-1754
2889,7639,6876,1051,-1620,1628,1282
2890,5914,-1425,-4333,1734,-1473,875
2891,1399,-281,-3722,-796,470,-1142
2892,-5310,-3854,-2801,-784,1124,199
2893,-6488,-1048,5014,52,-1367,-591
2894,6622,-359,4133,-1351,-184,1802
2895,-3182,-7329,-861,129,-1141,-1014
2896,-6778,3477,598,499,1022,611
2897,3803,-3003,5267,-379,-362,-1125
2898,3088,-369,897,-1311,1773,-95
2899,-6514,5725,5495,-1705,-989,859
2900,3806,-4836,2683,803,-880,1788
2901,-6342,271,-1534,-156,715,-1261
2902,-2705,-5639,7980,957,1429,1016
2903,-2678,1595,-4312,1082,1253,-666
2904,4714,4853,-4027,-1719,1262,215
2905,-6034,1960,-5897,-844,1646,-1191
2906,-2681,-2401,-3197,-71,517,-1499
2907,7231,2891,-6770,161,297,-516
2908,-2266,2045,-2618,-416,1839,-854
2909,-3031,-6310,1008,506,1445,259
2910,-4711,5070,6594,-495,837,-1149
2911,2422,4946,5319,-400,-1595,860
2912,1048,6105,-2946,1453,-1013,1626
2913,-7748,5346,-7964,830,-1560,235
2914,-7798,3927,-5652,1827,-335,309
2915,1567,-3612,-3764,-610,33,-83
2916,1186,5812,-3948,1805,-820,-1361
2917,3740,-3036,-3905,-826,-1056,-1083
2918,1869,-5615,6043,1641,213,992
2919,6314,-6073,-6319,-1252,-1771,1441
2920,-2205,-2359,5411,-1425,112,-654
2921,3928,-146,-740,1833,1857,-127
2922,575,1709,1327,604,1053,-47
2923,3147,3195,6029,1639,-1190,-742
2924,4478,-2905,-5024,-720,-1505,-1273
2925,-4135,6784,-3378,1430,-278,-1030
2926,3355,2716,4364,1772,-415,327
2927,4899,4292,6136,829,-26,-1837
2928,-5624,1596,-3321,-432,-1929,-1061
2929,4845,6554,3265,-1510,442,-270
2930,5017,-6988,-5260,-1108,773,647
2931,-4399,6251,-2450,164,-651,1225
2932,5435,2124,-1016,16,847,-1248
2933,7694,1715,4726,-840,47,1853
2934,-4034,-7400,6779,-1511,498,893
2935,4439,5604,1971,-163,-1427,1860
2936,1540,5265,-6079,-1293,276,-43
2937,-2098,7750,980,-1048,-600,-15
2938,-2348,-6348,-6569,-660,-473,1570
2939,1673,3323,-4566,528,1610,1985
2940,4307,-1725,3062,1434,498,-292
2941,6711,-391,4300,111,-835,-1349
2942,421,6650,-6263,743,1873,-1668
2943,-1305,-1706,-1597,-1015,1437,-1577
2944,3825,-1554,-4941,1389,-1037,425
2945,-1951,6789,-2023,-1515,876,-646
2946,-3303,-5061,2397,1603,1096,-499
2947,-1876,-200,-587,-1681,-1870,395
2948,-5951,4858,-6311,-497,583,-982
2949,-3368,-2341,5622,1496,1933,-726
2950,-2334,6386,-6410,-1211,1930,144
2951,-3442,6119,6725,-756,1028,-1384
2952,-5218,579,2918,-984,-391,-1732
2953,5425,3759,-5540,-435,906,1265
2954,-2447,-1528,-6263,230,1728,-1868
2955,-1569,-1786,6414,-2000,63,1267
2956,-6378,-2688,4384,158,-1129,-307
2957,-7302,-1498,-7907,1727,-820,-989
2958,-2089,-1589,-597,-1316,-481,-1018
2959,-7483,3113,-3898,1955,1896,117
2960,2749,-7801,-4733,715,914,-336
2961,5571,-5845,-2441,1060,578,255
2962,1477,1715,1675,1514,1146,1471
2963,-4753,-3136,-1089,1956,1218,-1088
2964,-2606,-4073,2910,125,1900,-1502
2965,6595,-117,-7408,1497,1370,-651
2966,4026,-4638,-6629,-1027,1285,1098
2967,-1432,-7357,-105,699,200,-499
2968,7791,-4277,-3463,1646,-919,-1215
2969,6807,6246,6700,-1896,1120,816
2970,5161,2648,5741,-1076,-918,-631
2971,5349,249,7016,-904,1442,47
2972,5391,-6723,874,799,1062,425
2973,-1961,-4910,2817,-890,480,-1216
2974,-7360,403,-311,-1988,-782,1746
2975,841,-2275,-1648,-1148,-1861,1820
2976,3247,6002,4318,991,1374,-346
2977,-3668,-4894,3193,1126,1808,-1544
2978,3951,3091,-7996,35,628,-409
2979,3169,-6491,-7390,638,-1636,-1420
2980,4185,2212,-2770,1766,-956,-1713
2981,1009,-5669,4146,-1905,624,-1475
2982,4865,-726,1997,-305,1083,1226
2983,2880,-713,-4984,301,-973,6
2984,2828,3048,5585,894,-1876,1208
2985,-3339,1252,7588,1881,-1669,-1540
2986,1610,-3065,3033,1212,1479,-883
2987,3193,955,4195,-847,811,-950
2988,-5324,-45,-6708,-884,-826,-1732
2989,-1793,7499,-7030,-588,-810,835
2990,4937,-3674,1650,1854,-103,1030
2991,7178,-1924,4277,630,-701,-36
2992,3596,6746,-963,1970,-396,1676
2993,3496,1916,6432,-1536,831,35
2994,-844,7074,-1681,626,-1245,169
2995,5472,5043,-3476,-1926,156,1365
2996,-2881,-1177,5354,1931,1024,-1020
2997,3218,6682,-2848,943,1131,105
2998,6203,-6343,2706,544,725,-1277
2999,2672,-6925,1845,189,-962,1362
3000,-1521,-7613,6900,-1157,1639,-1304
3001,7974,407,-3198,-1741,-1556,1167
3002,7195,-5174,-7202,1384,-1736,-1512
3003,-7092,-6323,-2521,490,1233,755
3004,-2127,602,5922,72,1351,-369
3005,81,81,1805,956,-1067,-1642
3006,-2368,1410,1034,-1087,736,-1547
3007,-2521,-2571,-5523,-810,-237,-52
3008,7955,4082,-3420,25,-322,749
3009,3251,-5086,-1478,-314,-1172,-197
3010,7042,1011,5029,1939,-768,-1539
3011,-547,-6353,2558,-1861,-3,-475
3012,1849,-5742,7875,-728,1824,-494
3013,2076,573,2883,1920,-589,1480
3014,4350,4508,7499,907,734,1826
3015,-4008,4358,314,1695,131,151
3016,-954,5519,5931,1017,-536,1224
3017,6593,1018,7397,-789,1454,-258
3018,4823,-2899,7337,1642,1680,-1208
3019,5285,7139,2533,-885,-1754,-76
3020,3728,-970,2102,710,-1482,-775
3021,1947,-6706,7877,819,158,462
3022,-4452,2284,7917,1022,-1267,-441
3023,-2483,1037,1990,-1721,706,915
3024,-1270,3544,-4280,-1531,704,-960
3025,6029,-489,7035,-1300,-1597,207
3026,-1447,14,-1072,1270,-612,660
3027,-6839,1895,-7155,-1017,17,-1462
3028,1157,-1930,5374,1701,578,59
3029,3770,262,6874,-1685,-673,1037
3030,2311,2997,-824,-1526,673,-1823
3031,-217,6781,-2818,-1140,-1626,1090
3032,-7989,-227,-3066,-350,-534,-501
3033,-1287,7972,-5266,-508,391,841
3034,-2066,5456,-49,1508,-1288,958
3035,1841,3697,-477,1787,195,-410
3036,-5147,-7780,4486,658,-1477,1761
3037,5986,-1673,-2502,1013,1180,-1010
3038,-4410,-743,-5392,-1730,1595,1219
3039,3231,171,-7331,-1519,-151,-310
3040,6959,-3168,2641,1459,-1447,62
3041,-2948,1124,3694,-1091,1420,-1775
3042,2030,6806,3263,-1188,381,1357
3043,988,1168,597,-827,667,1086
3044,1294,-745,5105,457,1626,-1527
3045,-6376,3732,3427,-503,-1930,1362
3046,-6287,1159,6835,1510,1106,-1045
3047,-783,2843,-6378,-1423,636,-1594
3048,-6431,-4178,-3797,-101,-635,-772
3049,612,-7307,5570,1862,-45,-1678
3050,-3306,-5411,-5941,-370,-847,-1616
3051,-5902,-2850,1426,119,-1114,-165
3052,837,2737,-6453,-802,-651,352
3053,-7283,-6792,-4442,150,-1123,619
3054,-5297,-5065,6437,1786,1133,635
3055,-7855,4025,2580,1094,1156,171
3056,4979,466,-6095,979,1434,-346
3057,295,-7010,-740,-1560,1956,1399
3058,2323,5567,-7301,1011,-1742,1847
3059,-4330,-7627,523,1506,-1579,1067
3060,-4210,-6538,6120,-409,-488,-1398
3061,1517,-6939,-6285,571,-627,170
3062,-658,5432,2338,-1382,-187,619
3063,2055,-5725,148,-310,-1094,561
3064,210,-4015,-6053,645,-909,-992
3065,-622,-4094,2787,-613,-1286,520
3066,3559,1482,4771,-774,-1593,1732
3067,3036,3424,2981,1549,-1740,-1319
3068,-1555,-3040,543,-36,-580,-376
3069,6343,-2135,7909,1405,-1272,-1978
3070,-5368,-7980,-3888,1948,1539,743
3071,2811,681,-1342,331,-653,1534
3072,5296,-6877,-2632,279,1580,-726
3073,1028,-3463,1039,-1172,57,-1734
3074,3945,4020,2112,-328,1188,-1776
3075,3949,-6689,199,1839,-959,-656
3076,-6853,-1216,-5362,682,503,869
3077,-2790,-2746,3697,1970,-541,-494
3078,-1502,3516,-6900,944,-1303,1041
3079,-4091,7646,6720,-986,-161,1418
3080,944,-149,7973,670,-99,-851
3081,-424,4781,-430,1996,81,1897
3082,5076,2146,2474,-1767,1037,1224
3083,-5016,-4886,-2696,-1042,911,-289
3084,1608,-3294,-7121,645,1807,-1510
3085,7396,-2111,-4838,-458,753,1317
3086,5494,5700,3281,829,-1506,-1899
3087,-7659,-5978,-750,-89,-132,-1008
3088,7361,6188,-5267,284,-188,-66
3089,647,-3052,-5297,1094,1136,-1202
3090,-2051,2378,5155,-809,1636,104
3091,3008,5436,3492,1842,1780,814
3092,-6732,1277,-491,-1735,150,402
3093,-3282,7343,2133,-29,-24,-1710
3094,785,7292,3507,1946,1299,-114
3095,6912,-6114,-1097,-277,-1445,-742
3096,2593,-1019,-3811,737,268,566
3097,-3786,-534,-3797,-192,-178,-1829
3098,1656,-1507,6517,265,1867,772
3099,-4966,1847,1327,-923,1316,1453
3100,-2048,3824,4240,1204,-1934,1704
3101,-1640,7134,-3439,-238,1304,1723
3102,-6225,2924,6171,28,-924,-216
3103,-281,-5884,-1748,1910,-1609,99
3104,-4550,-1645,4059,-479,-1889,1654
3105,5486,4548,7498,304,1524,-1688
3106,-2867,-3833,2554,-1391,1430,948
3107,4529,978,4636,-216,1119,-1244
3108,6248,149,2990,-1696,-723,-968
3109,4226,-42,-18,-1113,1630,-1085
3110,7732,-5186,4066,710,-733,49
3111,6013,-3388,7542,403,-167,-1883
3112,28,4331,-2387,-1292,776,1497
3113,1905,-4382,-823,1407,-1420,-1726
3114,-5280,3786,-6058,-119,-1985,606
3115,-2718,6164,5529,-1073,-130,-933
3116,2628,807,-4151,-639,51,1483
3117,7854,7947,3322,-1250,-75,276
3118,-4250,1410,-4897,1718,-937,652
3119,-3453,868,-4757,-1588,-711,1780
3120,2804,7956,5414,162,-1045,-1018
3121,-2546,6992,-6888,-90,-1888,-204
3122,7928,-94,3209,-1149,351,-395
3123,-4969,492,6599,-980,441,-1923
3124,4963,222,3763,-1049,-382,-571
3125,-7748,1738,-3931,1679,-458,79
3126,3767,-4601,-1598,-331,-1050,661
3127,-5742,7780,4364,1340,-736,-32
3128,-6978,1834,2939,1758,55,1200
3129,-5316,-6718,1878,-322,-1386,1084
3130,6805,-3486,-3121,-607,797,-1916
3131,-4545,-5811,1910,853,-1343,-1682
3132,-7328,-845,-7723,-383,-380,1184
3133,4861,5272,-144,-1038,-1372,-1154
3134,-6264,-5573,-5261,-846,-1463,1622
3135,-192,-6787,-6651,-57,1350,-608
3136,4759,-4210,4638,150,-325,508
3137,7524,6556,1862,-726,267,-407
3138,-2773,-5156,-2121,1335,647,1171
3139,-7625,-5574,1062,-507,315,-1460
3140,6519,-6773,-3784,-1026,-1146,-760
3141,5836,4262,-1670,1707,-1498,431
3142,7975,-2111,4751,228,333,322
3143,3970,7751,3511,1842,-1556,1428
3144,3842,3813,5413,-119,-364,1069
3145,-6358,3837,-7927,-1250,624,347
3146,6986,1113,2101,-328,-1658,-211
3147,-7879,7267,5151,-326,11,-296
3148,1265,6762,440,834,-219,-1759
3149,5885,5709,2990,-900,989,1938
3150,6383,-2607,6573,1248,1492,-545
3151,-1144,5785,-1008,-1241,-1521,416
3152,-4274,2090,6551,883,1922,-214
3153,3143,3324,7213,53,-1761,1455
3154,2318,3958,4718,-736,1528,1920
3155,4844,-237,-7765,-1492,-1531,-1142
3156,1850,2893,3733,1867,337,1908
3157,-2232,6199,2076,-419,-324,715
3158,-7568,-394,1803,695,96,-221
3159,3272,-624,279,914,-1053,796
3160,3440,4393,4165,864,1477,-642
3161,-1313,3177,4227,-837,-680,906
3162,-2373,1355,-6350,1758,397,582
3163,-2932,-62,-6895,1226,-1493,-928
3164,-3872,2787,1945,1023,926,-1730
3165,7303,3793,-7167,847,-625,156
3166,-1344,6112,-6578,-1996,-164,-31
3167,-3767,1531,-2034,-1863,376,-618
3168,-1953,4158,2228,422,-1165,-1946
3169,-6614,-5866,-5823,-531,-433,-1625
3170,3604,-5557,-1122,-1183,-1945,750
3171,-2570,7870,-4687,1368,1581,389
3172,-407,7663,754,1805,1766,-1477
3173,-589,-5189,1825,1029,475,-739
3174,7329,2133,1145,1508,1468,1429
3175,-3046,1706,546,-89,-1143,897
3176,-2935,2585,-7459,-1355,-890,1941
3177,4495,-548,-6110,1523,272,-559
3178,-1067,-5919,-4131,-955,1293,1385
3179,-5860,4340,6302,1189,-1636,1347
3180,3691,510,7267,-67,1820,831
3181,1207,6790,-168,-588,-1292,1402
3182,-7009,-2923,-4766,-1439,-116,-104
3183,6658,844,6307,-1490,-1829,-1157
3184,2468,7686,-4737,-1191,1955,202
3185,7097,-4974,6937,-1234,-1163,925
3186,7826,6310,568,-410,435,64
3187,3193,6179,-1017,-1939,1513,1656
3188,7976,1701,-3596,1231,650,-977
3189,7544,-2527,42,-1738,-408,-165
3190,1935,3439,1564,1340,-419,226
3191,2181,5056,-7397,1044,1415,453
3192,-6505,-6115,-7929,1973,-387,1120
3193,-7215,6088,-3116,1955,-1694,-328
3194,-4948,-3817,3560,-430,-1186,-632
3195,-113,-84,3383,1043,-336,-1172
3196,648,-1856,3671,-1727,-1403,-1767
3197,5063,-4505,1142,-1117,-44,365
3198,1594,3231,-2527,1721,-437,-750
3199,-6629,-4387,-5240,-958,1817,805
3200,-340,1715,4972,699,-1909,-103
3201,-6404,7018,5059,-246,231,433
3202,2610,-8000,-4198,-585,198,-300
3203,4592,2271,1264,1059,777,53
3204,-5045,2236,1342,402,491,591
3205,-816,754,4363,-962,-1366,312
3206,-6955,-5595,7946,-1416,-1690,-151
3207,-5274,1807,-5535,316,-321,-1642
3208,858,-5160,6141,-1134,1344,-325
3209,-2605,5444,6418,-140,920,-1354
3210,1021,-8000,1610,-1175,-1194,1904
3211,5395,-7903,5923,-388,750,719
3212,6888,7258,-7543,752,131,-602
3213,7571,-1582,5161,-1972,-770,-1028
3214,1092,-2225,7319,503,-721,1669
3215,-7384,-4896,4482,-156,-1867,1848
3216,7894,-384,-4893,471,1765,1369
3217,1544,5463,-1809,736,268,718
3218,-7359,-2425,1263,495,-1450,-1491
3219,-346,-7496,6835,248,-673,980
3220,-4132,4001,-3122,-1751,-118,-901
3221,-3961,4352,3361,-235,837,987
3222,2007,-3783,-220,656,633,-1283
3223,-4651,3545,-4597,-1614,-1460,-1236
3224,-7845,3241,-102,1049,-1080,-1039
3225,-2179,-53,-572,-325,-1287,369
3226,-1362,5918,3170,-1148,111,-1846
3227,-2333,-5821,-5876,-521,471,806
3228,-5448,4636,-4881,1,-381,687
3229,5861,-1243,2275,-1697,1250,1249
3230,7733,-6287,-7554,13,-317,463
3231,3824,6835,-2401,-565,-853,-986
3232,-4904,-1317,-2364,254,883,1374
3233,7823,-5716,-5464,-1334,797,1754
3234,6731,601,-6360,1070,-365,-695
3235,-6547,-6322,-2673,-378,1453,-390
3236,1199,-5747,1717,22,-1148,432
3237,-7157,3288,-4753,-472,1643,-675
3238,1102,-5834,-1605,416,1917,-301
3239,3225,2268,5346,-219,-1080,246
3240,3249,4084,3714,-141,1699,-312
3241,-6274,-7659,-2333,318,-446,-588
3242,-3030,-279,3965,-1026,1054,1890
3243,-1209,-4737,7554,1111,-1970,160
3244,-1931,-4886,-7136,-627,859,1374
3245,4271,-2137,5329,1573,-958,-1299
3246,4007,4929,-1684,1748,-348,1330
3247,634,6356,4355,859,-972,1487
3248,2961,-3137,4251,1589,1263,367
3249,-22,1099,2687,1965,526,1482
3250,-727,-4188,-5047,814,-382,168
3251,-1481,450,7915,1742,786,-1722
3252,-5885,-7498,5335,1634,517,380
3253,-2666,2611,7192,286,-660,-1718
3254,-2729,-4283,5437,-1938,1823,-1331
3255,-3851,2066,-6226,384,-158,473
3256,3191,2194,-7547,1722,882,-1381
3257,2773,-5151,357,-878,-56,-84
3258,-4188,2716,-1338,-826,-643,-1530
3259,-4068,-1280,-4020,164,1916,-1962
3260,-6019,-7672,-6207,-461,-1013,1963
3261,-5925,-4846,1559,-836,396,1274
3262,7809,4943,1352,-77,-1530,492
3263,1654,-5859,-5836,-1718,150,580
3264,3762,-1060,-6529,-887,511,1912
3265,-7873,3658,-6039,1908,1181,1036
3266,-6494,7982,2820,320,-54,688
3267,4605,-2866,-1605,-336,139,-1674
3268,3599,-4405,-4851,169,1704,1229
3269,4194,4470,1863,-1468,-1273,-943
3270,7653,-741,-7306,338,1163,-1337
3271,-125,1918,-2696,-111,-1024,-1326
3272,191,7487,3970,-511,792,-185
3273,5890,-6059,-253,237,897,-181
3274,316,-3448,7204,-1444,-1572,1665
3275,2244,7121,2949,79,1821,-429
3276,1081,-6980,-1032,201,768,1574
3277,-2121,1074,2280,1331,538,-1818
3278,3869,-2097,6864,-382,-1353,1720
3279,-3829,6707,5836,92,185,-1807
3280,3635,-513,1091,-591,-1435,-415
3281,4418,-3510,2434,1791,-610,769
3282,2645,-374,-6807,714,290,-1727
3283,1282,-269,-4540,1259,-840,345
3284,825,3222,2968,-1679,1204,-1975
3285,6533,-4456,3804,728,953,1068
3286,6911,-7373,4794,917,39,1966
3287,-4076,4373,-7121,-1225,1594,806
3288,453,4662,5059,701,-629,-861
3289,-2162,-3868,-1225,1015,1304,1214
3290,7519,-6891,-4448,1135,-1368,1347
3291,1124,4506,2073,964,-873,451
3292,-1821,3299,8,-1874,-1923,-1066
3293,-6479,7366,-1389,-708,677,-358
3294,-2581,117,7359,424,-1887,352
3295,3444,-1566,-7969,-31,-811,-353
3296,-3376,3101,2649,1726,1396,-701
3297,7244,-5701,6456,-638,-600,13
3298,3922,-968,-2409,-452,603,1893
3299,-6791,-5418,-5689,-1346,1544,-407
3300,5787,6263,5140,-132,734,-513
3301,1160,6155,-1490,-1370,1390,418
3302,-6645,1335,5768,1440,-379,558
3303,-7546,4988,7848,691,1173,674
3304,-7165,-3150,-4725,-459,-512,439
3305,-6145,4110,916,-1037,1824,-1046
3306,-1935,3692,1513,-183,-396,-603
3307,147,7319,1838,-1857,748,928
3308,1340,-5393,5149,1242,1823,1997
3309,-7866,3439,-7724,1437,-1129,-938
3310,5936,-6966,7248,-214,1153,471
3311,-4117,-6592,6110,-1834,-1343,1007
3312,-3609,-58,-4808,-186,1410,-120
3313,-4470,5284,-2345,-27,-1756,1765
3314,3074,6909,-7966,1562,817,-181
3315,7991,2253,6185,-952,1246,1323
3316,4940,2235,3703,-977,-581,-333
3317,-6415,-7399,6561,1237,1080,-90
3318,-2039,3522,-3328,1783,-782,228
3319,-2586,-7863,-2179,-484,-81,560
3320,-3505,282,-5207,1114,-1830,-846
3321,-6050,-1137,-7497,908,-1212,-1028
3322,-4077,-6132,7105,645,86,-187
3323,5808,-5661,5968,-798,-10,539
3324,-7338,7248,5226,303,444,-324
3325,-1523,-519,7105,-1883,-852,371
3326,3314,-5524,-4112,1474,-1433,963
3327,-765,-6668,-4857,146,1207,619
3328,-3688,-6542,-853,886,1940,-496
3329,-5242,4968,-5698,1938,1838,1479
3330,-3708,7862,-954,463,-1016,753
3331,7756,-3104,1101,845,-1934,41
3332,1410,4587,1850,1392,677,1072
3333,2387,2857,-2256,710,128,1314
3334,1340,-6253,2801,-1079,737,-1651
3335,-6805,6814,-5266,-1734,-1609,-251
3336,4393,-638,2796,905,578,839
3337,-3982,2630,3181,-1578,1524,-922
3338,-3652,-6553,7094,1560,-1435,1291
3339,196,-5528,-2762,-1023,-1383,885
3340,-2439,4381,4938,-686,156,-1953
3341,5038,-1153,-2622,1695,357,522
3342,2800,1454,-2730,-602,825,862
3343,-383,-1109,7828,-1044,-298,-1993
3344,-455,-229,-3308,1310,-1177,89
3345,477,-3528,-3700,526,-509,-972
3346,-2099,-5154,-1265,208,-1027,922
3347,-2343,7761,-6231,885,1424,-712
3348,5897,3961,-3557,1198,-695,-924
3349,6705,-972,704,1809,1047,915
3350,7871,4594,6059,384,-273,188
3351,-6467,4371,-572,870,773,-1804
3352,-2431,7137,-4622,-1736,15,437
3353,1908,4841,-7185,-1303,-1014,792
3354,-4084,-1729,-5493,-1359,-417,1390
3355,-7029,-6257,-1350,1977,-1723,962
3356,1570,7501,-4356,680,1013,1759
3357,6912,-5613,-6430,1111,1263,-892
3358,2514,-5191,7806,375,217,-562
3359,7366,-7179,-7084,-474,424,-1592
3360,-221,-4935,-4564,-1024,754,-1401
3361,-5541,-2899,-4663,805,615,1329
3362,-3229,3277,7366,-1134,1000,-691
3363,3872,1000,-3601,-385,-481,-1993
3364,-472,-5526,128,-1914,-1911,1232
3365,-6539,-4022,3856,-1067,1380,527
3366,5554,1489,-1649,-1178,1054,270
3367,-5518,-7981,-152,-510,-612,1022
3368,1857,1859,-5699,-1668,1644,1510
3369,7900,3635,-5437,-680,652,1873
3370,6918,259,7374,1020,665,-497
