Sample,Ax,Ay,Az,Gx,Gy,Gz
0,-2339,2284,-3676,-927,34,-872
1,-6622,-3295,-7839,747,-870,-1715
2,-2663,1006,-7486,1983,-589,-179
3,7975,-937,-3320,-1495,1507,-414
4,6850,761,-5825,1164,382,29
5,-226,-1410,965,-1804,-1328,1542
6,4302,-7162,7799,486,792,-1775
7,-3914,-6844,6212,1903,1887,301
8,-3127,6013,4577,-1914,863,-1338
9,1085,-6480,-4528,-1154,-473,400
10,-1469,406,5424,-718,-1553,1984
11,1588,5803,-3364,966,-1223,-239
12,6461,2302,4814,-573,1867,1609
13,-5325,-5054,-586,1805,579,-981
14,-3926,2577,4675,-1396,-1600,1845
15,-6344,5735,-5620,-1167,983,1537
16,-6154,3540,-4289,-1710,-293,1718
17,6374,5519,-5997,1948,1505,-838
18,4518,-7333,-6067,-557,-1359,519
19,-5812,-3911,7217,-1561,686,-515
20,-956,1680,5809,945,1602,915
21,-2211,6583,-1567,853,1879,-260
22,-5706,-1405,1173,-291,230,-1086
23,-7594,2024,-55,-1936,366,-1543
24,2152,-118,-1383,-410,1717,30
25,6660,-1788,-6661,-1675,285,-155
26,-591,-3590,-3708,1100,-962,579
27,1233,-3120,7703,1830,28,730
28,7050,-7925,-2651,185,-979,1446
29,-7820,-4923,-2411,1463,1372,-32
30,1800,7838,-6756,-1123,1481,1656
31,-1185,-1355,6959,509,-1929,-1325
32,-2365,7728,3028,-917,1202,1369
33,4979,1472,-2695,-416,-1410,1636
34,-1166,1264,4096,631,-448,-759
35,-2788,-2806,-6011,1526,193,515
36,-5504,-5911,3790,-658,1755,543
37,5125,6256,-6735,1760,1261,-1977
38,-7389,-3288,-6111,-1467,715,1843
39,-6275,-890,-4992,-1330,-1360,1030
40,-4188,433,-7063,242,1560,652
41,219,2890,-3351,-1132,-1320,-1432
42,1686,3530,-5412,-1575,1051,477
43,7277,6559,-7563,-747,668,1693
44,-3600,4720,4657,1600,-452,1842
45,925,1998,1540,1540,-1922,1953
46,-5821,7695,-1820,40,1205,-885
47,-1686,3192,6684,-858,1656,-1524
48,2128,521,-5602,-549,1087,345
49,-3919,4418,-7443,572,-243,-1639
50,-2977,6297,735,860,-70,-1623
51,-2275,-1272,2841,-970,-1434,-1259
52,3383,466,-6303,1217,-270,-708
53,-6700,1847,1386,651,1514,348
54,4987,-273,4933,299,1214,1648
55,6987,-3666,-2599,768,-1080,1101
56,-6550,-5436,-3986,-1401,-1396,-745
57,-1836,-7019,5120,1272,-1876,-1723
58,6943,1459,-7055,1077,94,-1345
59,4852,-2380,-2225,466,274,211
60,-2466,1336,-253,1667,464,1530
61,-7932,4279,-1813,-1903,-196,656
62,7544,-5272,2826,-1338,1495,1661
63,1741,5467,215,1027,1148,1332
64,2555,-6033,-5783,924,758,-1978
65,6032,2466,2778,1729,-161,34
66,-3497,7069,6380,-670,-815,-1625
67,-978,-2735,-2355,1044,-1934,260
68,7679,3791,-1752,-1182,-578,-86
69,7735,-3621,-3353,-1127,57,-755
70,2075,3553,2163,-841,660,-1945
71,-1408,6558,-71,-748,-542,1185
72,2413,-3795,-3644,-1463,-1496,266
73,-3667,4201,4439,1467,612,-1638
74,3892,-1385,3232,1612,-1762,-290
75,63,-330,-6012,-781,-1316,589
76,-1347,-3018,-4850,1617,595,-394
77,398,560,4407,1245,885,-706
78,5444,-6500,-6999,1776,-574,-356
79,-2220,4898,-11,-433,1189,-1227
80,385,585,-6876,1039,1527,-1742
81,-2675,-3959,2091,-1037,1165,1931
82,470,7163,-4278,-1973,-1795,-1133
83,76,7207,-270,656,-576,-363
84,-6327,-6275,6541,-540,1345,90
85,-6663,-4760,-6828,-1992,-1901,-1767
86,6844,5462,4767,-1859,193,-29
87,3179,-4743,-3389,-398,112,-1160
88,-3283,-656,-3853,-442,1762,-422
89,-1832,846,-2620,-425,-599,418
90,2948,6115,-5575,1684,-278,226
91,6034,-2886,-3958,1680,-55,-376
92,-68,4615,3930,-1806,1384,764
93,814,5503,-5081,1060,905,383
94,-126,-2758,3164,-358,-898,-360
95,-7558,-7925,-7200,412,1381,267
96,3000,-5347,-7689,1436,-194,-486
97,-1652,6567,4531,1974,1681,235
98,-3470,2385,-7275,-994,-1571,1517
99,-1071,530,6841,-392,-1492,204
100,-4309,4737,7368,-27,-1963,601
101,-3311,1963,27,1729,-1035,1840
102,-1973,-1228,-6863,341,1452,1863
103,-1637,5471,7709,-1650,1339,-1538
104,3164,1404,-7478,-720,-536,-418
105,-251,-1172,-5328,398,-1348,21
106,4648,5665,-7297,925,-31,-1949
107,-2109,7921,789,1959,-1228,1397
108,4419,-2989,-6482,1035,-1526,-900
109,7990,4117,-4191,-741,1365,1292
110,-5921,-4715,-6038,1189,306,854
111,5656,-1590,1717,1072,-988,-122
112,-1816,7275,192,-924,1597,1799
113,5867,2865,-967,1203,1693,867
114,715,2560,-7434,1052,-160,1047
115,-48,-5265,-5190,-659,503,-1277
116,-6173,-4283,5672,-1348,1120,-923
117,-222,-1740,-169,-956,896,1408
118,-4094,7179,1096,-1398,1238,-287
119,-5910,1995,5500,1350,1947,-709
120,520,2356,-1075,-1551,-863,-1724
121,-7036,711,3323,-476,937,113
122,-4148,-5848,1416,1295,-1692,1311
123,-2362,1192,6397,1018,355,-1831
124,7808,1333,-99,1573,79,-1268
125,5816,492,-7060,1242,-1131,-918
126,2302,2510,4099,1471,1860,1086
127,-4490,832,2614,163,1079,228
128,6056,-3632,4969,-811,816,1234
129,-1908,6588,-6952,1652,929,-1592
130,345,-3795,-4223,1741,609,-815
131,-2367,-1320,370,633,-676,405
132,-7762,-6552,-3119,558,-1702,696
133,-758,5932,-5783,434,1486,925
134,-5521,-5283,6363,-1101,1746,1702
135,7365,-7970,743,890,-410,1679
136,3939,3732,-4552,1731,-806,-422
137,-1390,-1834,-6038,631,1461,-540
138,7973,5568,5211,-1036,-1158,-1919
139,4787,1307,5603,1982,-247,-646
140,2385,-4957,7917,-164,81,-1201
141,2871,-4774,-1682,-283,1520,-1972
142,1421,3777,-6090,-157,709,-782
143,2585,-3631,7435,122,531,-1191
144,5782,5743,-1618,1886,1171,-92
145,5025,-4765,-1306,292,-3,1074
146,7723,-6259,7300,-830,-296,1657
147,-6070,-1876,-6802,-699,294,57
148,330,-6342,6770,1912,-1439,1278
149,-2036,-5247,-7055,-728,-1780,519
150,-6973,911,-1596,-46,-475,-1490
151,-784,-3191,3679,893,-1355,-1677
152,-1313,-6559,-6799,1991,-939,1851
153,4123,3656,1735,1104,-278,-1885
154,-6245,7772,-7554,1022,1051,1994
155,7931,-1367,-4960,1921,-1643,916
156,-6148,-1467,-6653,1127,526,954
157,-7041,3696,2217,220,-544,-855
158,-6386,-1615,702,-33,-1501,1980
159,3091,-2614,-7285,-1794,421,1313
160,-2481,-855,-5582,-1710,-463,860
161,-616,288,-273,432,-1122,1723
162,4618,7800,2645,1708,-297,399
163,-7624,4531,3460,1515,-1182,471
164,6886,1102,-469,-346,615,-1383
165,5968,5774,-4383,974,783,-1167
166,7169,1127,4179,636,-120,447
167,492,-1954,-7010,-1943,836,297
168,5741,-4928,3938,172,-232,593
169,6274,2140,6589,1194,1975,-193
170,-1373,362,-7088,-412,1894,-681
171,3007,-1434,-2898,-644,-1107,-30
172,3118,-4316,3265,-1927,-319,696
173,7525,-3405,6251,1005,210,-1104
174,7495,944,7159,1361,-536,-1868
175,-1465,77,-3085,1685,-323,1007
176,4373,4079,2470,-1035,-1797,606
177,-1542,372,-2481,-958,-991,676
178,1403,2373,1521,-934,810,1832
179,2236,5839,6817,426,713,-382
180,-3512,-6082,-3673,-1119,-821,-367
181,2103,-6588,7166,909,-1236,982
182,5500,3203,-4408,1883,-1229,-1044
183,-2087,4531,5251,374,1582,390
184,-2631,-1407,-1310,-730,211,-1034
185,-5285,-864,-4336,-447,198,468
186,-3354,-5336,2340,-845,-458,-1475
187,3456,-2250,1847,-868,1740,177
188,2044,4491,-2482,337,1083,-969
189,7800,3767,399,-522,-1746,1604
190,-3001,1044,-5372,1464,491,758
191,-71,-6822,-6543,-1105,1064,-1067
192,3682,6659,6287,-5,-92,1382
193,-6017,-6842,35,-1005,-270,195
194,-3990,6081,-3186,499,-971,-137
195,6971,-1129,7063,734,-655,1496
196,-457,4055,1578,-893,1634,1915
197,-212,-6523,4963,14,-1056,1176
198,-2559,3055,2071,-796,-1869,-1554
199,6377,-7441,-48,-6,-1238,-1645
200,3498,4809,5057,-560,414,89
201,-3438,-489,6586,1872,14,658
202,-3136,6972,7275,-394,-722,-1174
203,-5624,7302,-3974,-747,-930,-1278
204,3132,-7841,-4662,1007,-515,399
205,2931,2505,-3404,456,349,732
206,4939,4308,-3566,-1126,-80,-334
207,2904,7939,5712,417,1930,-219
208,2852,7201,5043,-85,-429,-1654
209,4374,1660,-4833,1895,-54,-553
210,2843,-3368,3263,1193,395,-53
211,4884,359,-7886,-979,-1060,1213
212,-1177,2118,1294,203,485,1642
213,2270,2978,-7883,791,-1196,-1535
214,-2198,-630,-2097,-1354,-94,-960
215,2100,7426,-6630,-1411,-692,1930
216,-7178,7385,-7036,14,-511,-635
217,381,-2347,6066,-546,1108,1980
218,6738,3741,107,-164,629,1302
219,-2207,1073,3955,175,-1116,1161
220,-6139,-5565,5189,-214,40,-415
221,-3062,-6214,-1265,-733,-831,920
222,-2473,-4208,4765,-1283,1837,1504
223,6185,-4670,-4822,925,-1082,-580
224,5444,-6833,932,-126,1569,570
225,1213,-7247,-6830,1198,-23,1580
226,-4736,2640,-1053,-629,-1034,740
227,3875,-1577,-4465,117,921,-1433
228,-5420,-7118,3819,-597,-1181,-701
229,2748,-2099,4638,-1087,-587,-629
230,5893,7168,3765,1280,1506,-1082
231,-7755,5078,6711,-1780,713,718
232,-658,-4803,-732,-435,-1442,1239
233,1416,6401,-365,-1459,-1248,-1418
234,-3003,3526,851,709,582,281
235,-7233,5491,-2767,485,1980,-1593
236,-185,5217,4272,-1831,175,-174
237,-2159,6728,7982,-1864,974,-170
238,6243,-6559,1756,-875,1193,96
239,-1039,-1228,5860,-1835,-1307,-1726
240,3281,-3632,3891,345,-1577,1319
241,-6324,-73,4085,242,-238,-643
242,6810,-5594,4304,-1120,774,795
243,6358,-375,-3921,-678,-317,-1895
244,6138,-64,-5575,968,1041,-857
245,-1230,-7024,-2125,-311,185,828
246,1536,-2253,-7875,45,1929,867
247,3596,-4857,2575,-1963,-1258,1719
248,-5558,7337,3319,-660,-194,-674
249,-719,5117,-7866,-1856,938,-229
250,-5436,5970,-6550,-1970,123,-1829
251,5492,-5120,-304,-1307,1130,-1468
252,5882,1450,3318,1506,-1522,-1138
253,-6358,-2152,6127,-1253,748,1632
254,-5467,2520,-5924,106,-1717,-154
255,-5495,79,-5710,1284,-1372,670
256,1713,-4841,-3826,1241,-1370,1753
257,-6513,-5658,1146,967,-1941,1476
258,930,1210,7650,-790,-1382,1749
259,7365,2572,-7629,-1237,949,649
260,-1782,-3017,6536,-576,1435,236
261,-3626,-3981,-7493,-1341,-387,457
262,-372,-227,-6712,-17,-1494,-1712
263,3525,305,-3936,1224,-1629,-200
264,1664,3026,-6681,1697,-1341,738
265,5005,4532,-4603,-773,401,-1818
266,4995,6478,-1332,-971,1696,-75
267,-6565,5941,6960,-1531,-1153,-1709
268,-1487,300,-5522,1007,-43,-782
269,6096,-1793,-7335,597,-1248,361
270,7162,-1463,-6438,-1152,-809,-1706
271,-5186,3024,2951,1146,588,478
272,6789,-74,2804,-1107,202,250
273,1352,-4422,-1720,-331,1059,1877
274,-6681,-4045,7690,-1082,1050,-712
275,3211,6104,2987,-1361,1251,-206
276,6268,5037,-6487,110,-210,-1221
277,1817,-165,6775,1018,1619,341
278,365,-1186,-4717,-1616,-81,-333
279,6329,-7656,841,-32,355,1024
280,-465,-6336,-6224,-586,-1991,-1426
281,-4181,2688,2926,732,-1146,455
282,-4066,2275,-5591,1156,1895,622
283,2745,-5258,-1870,-887,1269,1237
284,-1423,-4608,1118,738,1653,146
285,-2907,3521,-3067,-1214,-177,1607
286,-1725,4075,-67,1498,309,784
287,183,-365,511,1586,-823,1657
288,-1231,-1650,2121,-1087,818,-1694
289,-774,5083,-3951,-132,-250,1647
290,2954,5607,3204,-482,1086,-1335
291,1589,-6048,-853,-82,-1344,905
292,-7767,-5759,-4499,493,-1756,-236
293,974,-4228,3324,1213,-616,1686
294,-5715,-2726,5664,1092,1659,-415
295,-6206,2545,2566,-1539,1145,431
296,2335,1999,1367,343,-512,-2000
297,-278,1489,6753,-1042,365,248
298,2269,7200,3066,-543,31,-1099
299,-3483,-7970,4535,-431,1487,-1869
300,5576,2002,1701,1951,55,-41
301,-6347,-3422,-1262,-770,1233,954
302,7382,4716,7732,1055,1744,574
303,4671,1488,5288,-1568,-125,160
304,1147,-2082,-4314,-1389,1080,-278
305,-1617,-5677,2152,-730,1778,-1194
306,-7375,-3795,-5897,-731,222,-385
307,-3851,1614,-5778,-898,763,1570
308,5267,-1685,7635,-1118,337,1621
309,1713,26,-3739,-461,1386,-1573
310,-6903,-5164,-1275,-1093,-1727,713
311,2893,-5419,3003,1421,238,966
312,-3655,4155,-3557,1634,1207,-604
313,2474,3028,-513,1767,-1927,1608
314,6362,-6935,7113,254,-1729,-1234
315,7641,-1551,3115,-646,-1598,-1882
316,-2180,-5233,-3450,33,82,613
317,-1262,1071,-7080,544,546,324
318,2925,5015,-7513,1991,-1957,-973
319,2645,2217,3294,-725,-1763,-1732
320,-180,6734,6148,1513,-1164,1936
321,1677,-6995,6002,1429,-1598,-982
322,1257,-5425,-2899,-913,1248,343
323,-4690,-1019,679,302,-609,1628
324,5284,925,-7031,-301,-881,1235
325,-1454,4748,5890,-174,354,-18
326,-6931,-7669,2567,-1573,139,898
327,-3259,7608,6391,-245,1657,12
328,-7784,-7074,-2533,444,-85,-1922
329,-762,2810,-6351,-1288,144,-1697
330,3949,-2741,-6965,83,198,569
331,-537,-2500,-4991,1154,-344,369
332,-6192,2244,-5573,-634,1080,1061
333,-2146,5164,1453,1954,1010,-21
334,-4449,-3390,-7152,-1025,1313,397
335,-5741,-623,-6414,-1508,-1828,992
336,-343,4488,-4868,-987,1986,1699
337,6978,7779,6830,-836,-616,-1691
338,7171,6785,-6482,1792,1224,1029
339,3669,869,4891,369,677,1233
340,7450,1250,-7946,-562,-97,-1679
341,4785,7255,4581,-1644,-1671,316
342,4489,128,-6857,1303,-205,1581
343,5529,-3606,1563,-1770,1456,-922
344,6026,-7683,-4137,-313,390,-944
345,6371,5282,351,-490,1052,-219
346,-1184,1693,-3217,-405,1380,1483
347,-6427,4864,4470,-1913,-186,1999
348,500,-6265,-471,1317,-1845,1942
349,-3182,7787,2752,-781,-1629,-1733
350,-7649,999,-6966,443,824,-84
351,1437,2078,6069,-1648,-1969,-509
352,-296,-3185,5973,55,-630,1973
353,3206,-7227,-4336,-952,21,-811
354,2541,-6484,347,-165,-1270,761
355,3125,19,5523,1982,-1160,654
356,4344,-3606,-4368,-82,-389,-1171
357,3722,3429,3306,885,-1528,-1900
358,-5911,3135,-7371,1772,-1980,-646
359,-7150,4179,-354,-884,188,879
360,-167,-4726,-7615,1020,-736,1318
361,-7796,1442,6028,-1914,-1761,1865
362,-3803,-3345,1212,-185,-441,1994
363,-6371,560,-6423,987,-254,-119
364,-5821,-7310,415,1584,-410,-1526
365,-6314,-2016,5391,811,-666,-62
366,7229,-7893,2320,-670,-860,-1334
367,5457,-7933,2063,917,804,410
368,5457,5050,1438,-353,-743,-1402
369,-571,-2153,2056,-1911,-412,1623
370,-936,4250,2179,-1371,-1275,-1941
371,-3645,1307,-3924,1193,-892,1332
372,3754,-2712,-4092,1300,1905,882
373,208,6598,1053,31,-479,-903
374,-3393,-6644,3581,1664,-170,-287
375,7817,-6366,-7903,-761,-1560,-1147
376,-760,621,-4099,-1628,-1019,-12
377,2149,-3198,-3137,368,-1803,-409
378,4900,1713,3927,-1475,-1425,1363
379,-7965,4182,4208,-51,367,75
380,-3409,-3562,-1485,314,326,-733
381,2609,-7985,-7783,1840,1086,-1618
382,2950,1644,-7745,-876,-1571,-1208
383,-2163,1831,-6703,1492,23,-1550
384,4898,2497,4498,566,-1718,1504
385,-6927,4681,-3648,1309,259,-62
386,3048,5749,4210,623,-413,-1086
387,6486,-4282,7166,-996,-1531,-499
388,-707,5112,153,-499,-379,474
389,-5978,-3830,-7996,1298,-222,-344
390,2282,5420,2527,-1912,-1010,-1253
391,5107,-2374,7851,-1025,-395,-769
392,-3651,3051,-11,1984,-1265,789
393,6699,4023,5390,-527,-1603,-1719
394,777,-5116,-484,-49,-395,-809
395,-720,-1368,-4992,768,-1849,342
396,2412,2333,-2114,584,1769,-537
397,1152,-7622,252,1075,1781,-395
398,-3978,3527,-2407,-599,1200,-476
399,-3516,7371,-7145,-666,-1734,1054
400,4905,-1072,-2472,1483,1610,-1149
401,5858,-223,6620,-1326,180,-1521
402,650,-4949,-3352,-1692,876,197
403,-112,5811,5625,-222,-1170,-1127
404,-3312,-5005,-2542,233,1165,1209
405,-3695,1197,4204,-1256,-950,1078
406,4459,-263,-5493,1865,-1432,-334
407,7986,-4349,-1313,900,-128,1750
408,-7182,-3312,-7936,-1999,-1485,-1668
409,7165,-4068,-3386,1098,179,-959
410,430,7393,-5200,-1759,-354,-1080
411,-4581,2004,-2391,-1679,1659,328
412,5459,-2950,-3574,-1098,-1695,-869
413,-4054,-3942,-5707,874,-1904,-859
414,-5797,-4739,2650,283,-659,1742
415,4418,-2582,569,-1861,1915,-1932
416,-2658,-4713,-5048,-1525,-1983,-1298
417,-6116,-530,4265,-1612,1974,1904
418,-625,-6001,-7296,950,1913,-227
419,6979,517,1816,-410,446,518
420,-5639,-4418,-5085,-714,1406,1033
421,4373,2596,-3163,745,-565,335
422,-3821,-2106,-1658,-1072,-273,181
423,4017,6125,5838,1586,-1077,1924
424,-825,4910,-4135,1230,-1178,-413
425,-2168,-244,-1382,-1062,-861,-653
426,5409,6976,-7030,1077,-911,1149
427,-3535,6891,3277,90,1521,688
428,7586,4175,-6406,1203,-386,704
429,-637,-4009,6404,-65,-1549,-597
430,6285,1609,5272,567,-1662,1320
431,-4174,5102,-2652,1961,-1712,1917
432,-7639,4969,-1657,-748,1447,1171
433,-2852,-6895,-3187,-1152,-1904,67
434,2769,3873,-3193,1392,742,-1563
435,1511,5207,6637,-1402,245,-534
436,-3221,4780,6261,-1572,1270,564
437,3125,-2687,-960,-1570,1162,377
438,-4688,-4322,7041,265,293,-776
439,7560,-7032,-7652,-1520,1992,-1924
440,4586,845,3735,1462,636,-520
441,1709,-1231,5113,394,1376,1329
442,5081,-4602,4656,443,-1237,927
443,-4216,-2471,6576,-191,-171,-1759
444,1172,4205,7798,514,-1928,-1047
445,-4030,-1377,6793,-674,-1883,-1688
446,-2626,3544,6782,340,-1118,1439
447,-3176,-3978,-4784,-1581,1018,85
448,-349,-5231,1873,-1272,1378,1418
449,-4807,3127,662,-872,286,1810
450,1437,6482,-5864,-1558,-1686,583
451,-3973,-6395,-7595,-1448,944,1333
452,-3509,6322,4631,591,-740,1114
453,5684,-5322,2884,-1946,703,902
454,-7392,-6646,-3074,1626,-1024,560
455,-3796,-4606,856,1146,27,-1069
456,-354,4294,-1659,-436,1533,-138
457,504,6352,2029,1273,-1721,110
458,7802,1064,-364,-1400,-222,-1765
459,-5210,2131,-6216,-864,-1552,-45
460,-143,5940,-6619,-1815,-693,405
461,-307,-5460,-3571,-1239,-1591,209
462,-5363,4758,7302,1970,-190,1862
463,869,-2815,-6599,-52,695,1990
464,7447,5551,4440,1988,893,1964
465,790,-1160,-5267,17,634,-1855
466,-3067,5839,6370,1828,-1850,1805
467,-2745,6682,-3206,-916,1027,1175
468,537,731,-4866,-1139,1997,918
469,712,-1143,-135,-1453,-1084,-1084
470,7915,7709,6630,-598,-496,1676
471,-545,6626,2967,-467,-1741,-552
472,492,-7386,-4585,627,-244,248
473,3218,3876,7617,1055,1605,1211
474,7044,-825,4790,-441,-457,-650
475,7226,6803,-4234,1695,-699,1131
476,-7943,7667,2996,-1303,1676,128
477,-1789,-7463,-3931,111,-1336,-1666
478,-4642,7849,4274,-699,-1556,720
479,-59,-4885,-6702,746,-1389,-1280
480,-7242,4817,-7292,830,-1984,1139
481,6832,-5952,6621,-1763,-90,960
482,4637,-1468,2774,1990,964,565
483,3610,6751,-533,-1483,653,-300
484,116,-1677,2847,859,16,-1860
485,4086,4827,7937,488,-669,-1466
486,3723,-5266,4526,800,-1934,1682
487,-7476,5036,-544,1559,160,1038
488,-2031,-5845,-7646,-1666,-667,1821
489,1165,-8,1249,1169,-636,-1182
490,-4305,5476,7592,-987,911,-1523
491,7720,3157,-2959,786,-1756,460
492,2924,-2068,-2525,-1424,-1747,-566
493,4648,-1577,-4445,-24,-1859,1028
494,5898,594,2573,1626,-1961,-79
495,3574,-4611,5290,-1026,-465,-1981
496,-1630,-5594,1627,-373,275,991
497,5695,-3690,5325,-819,-705,-734
498,-4528,-1719,-296,-1094,355,-1583
499,-6988,2261,-964,-184,859,1207
500,5805,-6090,3963,-1962,-1431,1165
501,-5696,-2784,1612,-946,1846,-1248
502,-1049,2439,3779,-1720,6,1489
503,5037,937,-3249,641,-1069,-1337
504,-7744,7914,1400,-1372,7,-1238
505,-6034,-6442,-2823,278,1021,1567
506,-5672,-7733,7569,1274,1513,249
507,-5610,-987,-657,1356,-938,-1160
508,-2740,-7906,-4476,1832,-515,1126
509,7630,-5637,-3233,1307,1894,164
510,-1410,-3965,-6887,1547,-85,-1969
511,-3355,-7685,-7568,1036,-536,362
512,-2450,4215,-6823,613,1944,-343
513,5176,-1313,-6989,668,-1869,-948
514,-2329,3545,1286,-1452,-248,1519
515,-6570,7055,-2494,412,-954,675
516,-189,-5086,-7343,831,-716,-374
517,7620,1224,-2119,167,700,-392
518,1030,7980,-5602,-811,-56,-1405
519,-662,-978,-7396,-970,-987,-1707
520,-5495,1500,-5660,453,-1800,833
521,2327,-4472,4737,255,-1488,280
522,-6108,-2873,3841,-1533,-1777,-1891
523,-4738,-4100,-7787,-881,1415,204
524,-4325,-5782,-1643,-526,-580,-1070
525,-372,477,7661,-837,-680,-1782
526,-3910,-5505,4636,923,1010,1762
527,2449,-120,-4836,1863,52,-1009
528,-4925,2,-7846,1155,1356,1589
529,-6910,-5331,-7804,1100,-1471,1432
530,7294,7747,-6462,-945,1199,-1261
531,-257,7915,-1032,1543,321,1257
532,2368,5032,5720,256,-1121,1395
533,7093,6500,3022,1448,-454,1843
534,3968,-5692,7533,-1839,712,-584
535,-1312,-3128,-1321,-1894,-1956,85
536,5005,1114,2760,205,1180,1856
537,6957,-7419,-4464,836,1445,-1634
538,-204,-5888,1685,-1137,958,1637
539,-1383,7620,3030,-964,-507,-1134
540,-855,-635,4663,-1862,1326,283
541,7046,6859,-2106,-277,1780,-1865
542,-6193,4906,-156,1150,-1154,-1772
543,-1177,-2864,1568,-1090,-1027,1881
544,2997,4639,3438,-793,1162,-1293
545,-1777,7773,-104,717,740,1607
546,4689,5423,7988,184,939,1348
547,7689,1024,-5709,1629,714,973
548,-3615,-1214,3811,584,1088,761
549,350,3649,-275,-138,553,863
550,-2959,4526,3566,1942,131,1556
551,1781,-4108,-3094,1131,-1836,-1444
552,6393,-4118,975,413,1450,-820
553,5357,4582,-1793,748,-1898,-63
554,7573,-6387,-710,-1182,-466,-1671
555,-3537,-5784,-1497,713,1660,-758
556,-6608,-5495,84,-201,-365,889
557,7923,2672,-4179,-96,39,-963
558,-2616,4827,5059,234,169,1812
559,7649,739,3349,-1311,-1429,1549
560,-3997,-5107,2560,-349,-577,-1743
561,835,-2349,-4063,639,1072,965
562,2579,-1254,2588,846,-622,-225
563,-7208,3297,-6063,-401,1006,1387
564,3430,-7727,-7445,34,-1336,-1733
565,-335,-6893,6533,-412,1585,819
566,-6490,2982,-2329,945,1670,785
567,1463,-654,-5226,839,1822,-1459
568,-2565,-7091,-321,1340,1175,-1623
569,-1155,1116,-4864,1281,744,-396
570,99,6515,6459,1591,-1478,744
571,-3319,-7999,3429,488,-1260,-847
572,3868,-7629,-5464,1946,1993,-1672
573,5113,4733,2748,-1276,-1214,-785
574,-2892,-4337,6974,-360,1685,-1412
575,3103,2809,3050,-247,1587,815
576,18,5963,-1803,965,185,-658
577,-6173,-7293,-2892,515,1552,-952
578,6709,1063,-6341,-654,1911,-1949
579,1470,-3137,7998,-1874,-52,-267
580,-7800,-6122,1633,1079,327,659
581,572,6685,-6857,-544,1458,143
582,-7907,7699,7719,175,-913,1231
583,-1001,-5622,-3594,1979,1496,579
584,4088,-2511,1764,163,-1213,421
585,-6493,1837,5829,-437,-608,-1404
586,-57,5407,3430,-1759,1473,-243
587,4818,-1663,1418,497,1467,-1860
588,492,-4060,6544,-253,23,-888
589,209,-3305,1509,-1789,1083,1274
590,-1260,-3356,3185,260,-1429,1367
591,-39,-3997,-2639,903,970,-1641
592,3382,2666,-386,645,-1866,-1992
593,3526,4055,-7789,274,-545,1432
594,6329,2094,7436,1519,-1028,-1907
595,-3602,2988,4892,410,-1105,-340
596,6554,5976,-7354,1945,1243,215
597,5688,82,-6569,-548,822,-217
598,3923,4926,3377,969,1418,-946
599,1786,1005,-6435,1072,237,-1821
600,842,868,-4973,-799,375,-245
601,-3019,-3543,2941,-76,1060,-1778
602,92,-5566,3211,-1730,265,1040
603,-7127,-6986,3670,-180,167,-934
604,1502,-7632,-4359,-1343,-21,-149
605,6522,123,-2266,-874,-1653,1875
606,-4361,3883,1720,-755,-1206,1860
607,1612,3742,-5420,214,1560,-1953
608,-1916,-343,22,-4,882,971
609,612,-7801,5508,-713,-839,-283
610,4304,5516,-1565,156,-1911,1347
611,2054,5681,-990,1226,-579,-1721
612,5736,-4071,1968,191,-1245,882
613,-3418,6579,6754,-543,-731,1642
614,-7249,-242,1202,-1619,1851,405
615,7475,4896,-4321,671,-706,-356
616,-754,-5674,-6354,-1558,66,1838
617,-7659,-3327,6450,-1185,973,-385
618,-2770,-3872,3610,671,1143,-242
619,-4077,4795,-7227,-83,-1901,-251
620,-1406,-123,6097,1374,1838,1064
621,-6032,-4831,-1240,-177,-1506,351
622,4794,5843,4993,1767,-1158,445
623,7743,-5495,-3308,113,1590,106
624,3894,-597,-4637,358,874,1184
625,-412,-7137,5933,1534,-1319,1185
626,-2559,5599,-5505,1201,1125,-1669
627,3359,-2730,-4356,-1189,-382,-1521
628,2055,925,1968,706,-242,-312
629,-415,-2654,-1824,1890,-105,285
630,7552,-3056,-1386,-611,1043,-171
631,-2655,-1284,-3154,-623,1667,-3
632,-7445,7039,5792,1102,-1366,1647
633,-2435,1318,-5960,-218,-389,545
634,1259,-2324,-5430,-1786,-1361,766
635,-4939,4701,3473,957,-174,-310
636,7777,-7067,-4949,-1090,-1883,1923
637,2335,118,-5959,1691,860,1379
638,-4499,7467,-3991,1853,-972,479
639,7365,3107,900,198,1399,-1159
640,-3369,-5696,-5333,1189,748,-1545
641,-4739,-7480,2391,1834,-1404,-124
642,-2193,-3368,2928,-769,-676,1739
643,-3044,5308,-7238,610,-1747,960
644,6173,1391,-6091,169,-1814,39
645,869,6309,4833,-909,-1509,188
646,2101,6877,7122,1332,158,-1871
647,2073,-5118,-3764,-208,1798,-1710
648,-2555,-3082,-3452,-805,-1223,1658
649,-2873,-5565,64,508,636,221
650,-886,-7721,7296,-679,-269,598
651,7823,-557,-2282,731,-984,-1808
652,3327,-5981,-1207,-1180,-235,-1141
653,3995,852,99,-36,30,1690
654,1300,-6134,75,442,1062,-500
655,-4687,5528,7571,221,823,1129
656,6117,3533,3134,-724,-926,1355
657,2955,4733,1790,-1980,-724,1920
658,-362,2540,-3457,1607,1851,1877
659,-6157,-3221,-2439,1372,1850,-471
660,-5648,-309,374,-1824,-1899,478
661,-907,-6087,5474,186,566,542
662,-704,6314,4465,-21,1119,-802
663,-4530,-6067,-5399,-818,910,947
664,-5356,7380,1157,1081,639,-1384
665,-149,-4726,3081,-1351,1043,1750
666,-4903,-6256,-4803,-890,-320,-373
667,-4739,-1756,-6799,1650,-1847,-1093
668,4361,4592,-5588,-1867,-1213,-1618
669,-7481,-4986,3627,-1925,-460,-1400
670,2158,-4269,-3205,-1033,-1523,1783
671,6704,1075,-6852,826,584,-1796
672,-4995,6486,7659,1564,-300,-976
673,-6853,5973,377,126,-790,-1263
674,3751,-3572,-3034,-1073,-1876,470
675,7789,-3141,1806,-934,-860,-1427
676,6928,6714,-2846,1868,-417,-1922
677,6728,-5011,-7874,763,785,457
678,-4318,-1708,1612,1826,-1216,1578
679,4504,-2632,15,1534,-798,-1661
680,-4118,6378,5482,43,1726,-674
681,6246,-5112,-29,1498,-1129,459
682,7681,1439,-2028,1334,1134,245
683,172,-6804,-6776,1310,-1354,317
684,-6654,-6079,1242,1126,31,-786
685,-3001,-4234,-7708,-1486,-599,140
686,1908,1226,2305,1767,-140,-652
687,-3994,985,1287,1430,1873,-722
688,5211,-3626,-425,882,-976,1180
689,982,620,2603,749,1123,-1972
690,2562,19,-5571,-1611,815,1088
691,-5152,410,-1773,-1065,-261,-400
692,3091,-1324,3783,369,-718,1927
693,6410,-5267,-4147,1519,22,-910
694,-5484,-2495,6390,-919,-1034,1764
695,4485,281,-2036,-788,-1320,1493
696,6491,3268,1515,-1647,687,-144
697,-3538,-4240,-778,-842,-981,-157
698,-2860,-2300,1867,1905,-647,1042
699,7935,-1685,-294,908,-606,-750
700,2903,-7527,-2047,-1727,-424,869
701,-5251,-1936,2040,118,601,-652
702,-808,-7078,7363,-1447,818,-1654
703,-7867,-689,-2148,-970,-1049,112
704,2227,2814,6239,-1036,-1172,-813
705,-7862,5714,-593,-1702,-1800,-1641
706,895,1939,-893,-80,1612,-960
707,3556,1131,823,-282,33,-1306
708,-3139,-2999,3130,-456,1869,1400
709,231,-252,5474,265,181,-85
710,-5497,4665,5379,-564,-525,-1408
711,-3206,-2552,746,1365,1526,1584
712,5465,3230,5060,-1219,-1360,-89
713,4781,7191,-5757,-1831,-245,-1095
714,-7614,6079,-7315,-1907,408,-1933
715,3000,-5257,-1556,1631,588,-897
716,-5966,1852,4171,-1345,-232,1404
717,7934,3429,7474,-798,-1040,-857
718,-6281,-7230,-2979,1027,-1892,-156
719,7367,2597,6648,1470,-1659,1467
720,-118,655,-1508,-1896,-296,277
721,-1934,-6372,-7604,1868,273,903
722,6262,7988,7394,-414,-1811,-647
723,-6374,-2915,-5056,-856,1713,-706
724,-4062,-3067,2948,-584,-38,-1709
725,6747,7349,-3980,-1523,301,-1951
726,-1811,4815,667,759,58,835
727,-1252,-3936,6515,469,-1400,1627
728,-7222,-2528,-2763,82,-740,-596
729,1229,-3719,-795,-1488,-304,1605
730,4363,1229,4331,1721,548,-995
731,6291,6995,-1382,1378,-728,273
732,7346,7840,-2768,548,-513,1405
733,-4700,6797,7569,-71,1949,1034
734,-1774,-6513,-7190,-1598,490,728
735,-5768,-1576,-7454,-1176,1974,891
736,398,-5995,4191,206,-1700,1575
737,-6679,893,-6886,28,231,468
738,-81,4557,5384,642,874,-1527
739,4963,7692,3230,-346,-796,-1880
740,-6172,5367,6896,-1131,950,-1929
741,-1891,2688,-4641,58,-955,-1726
742,6194,5880,-1637,-248,-1150,1739
743,6694,6207,-5362,1603,-1584,1252
744,-5937,458,5898,-109,787,-1818
745,2567,-7896,-4089,1513,-884,1152
746,-6097,-380,7511,-1655,896,-1164
747,3697,-5867,-3045,1850,1330,1901
748,-2176,4956,-3452,989,-250,1297
749,2656,-543,-4109,504,-86,-934
750,3938,3285,-7249,-373,-1328,1425
751,-575,-214,-6327,-1407,-1577,1799
752,-7098,1919,5264,274,846,-909
753,-5969,-7083,838,-1277,740,587
754,1623,-5646,6203,-1207,1039,1140
755,2676,7705,3678,-1109,-1878,1068
756,-60,7565,7480,1891,-1541,-1614
757,-4593,7007,3380,-719,-735,866
758,356,5419,5723,-963,580,-1427
759,2698,2990,-1775,-959,-686,-187
760,5436,-7245,-4295,-1720,-696,-27
761,668,7557,7733,637,1520,-1920
762,-5829,1476,2595,-1088,-562,529
763,5287,1405,7710,1157,1152,-383
764,6596,-5043,-1272,-72,-372,-1436
765,-2719,782,-5767,1396,-352,-450
766,-1411,410,7806,-914,1919,-300
767,583,3780,3628,-357,-1357,-449
768,4536,-4735,-660,1481,-679,559
769,6945,-2778,-1177,-1305,705,-164
770,6068,-1478,1337,725,-811,-55
771,-4347,3586,3722,1417,338,-1077
772,5309,1930,-2702,-1192,-1379,-117
773,5946,3319,-5973,-888,1184,-1066
774,1439,-6199,7380,-493,-934,1229
775,-3720,-1304,-1740,153,1105,383
776,-7413,-3930,-6053,1211,-943,1263
777,1079,990,1056,-576,-984,-1755
778,-4223,-3229,1415,-1760,146,-253
779,-2063,-4440,1794,295,-1558,1098
780,-6373,-7145,818,-1618,402,1603
781,731,-3648,-4520,-553,1878,1549
782,5970,357,1060,-1691,1437,1684
783,573,4925,6427,1197,-861,-132
784,4128,-6662,-5907,-648,-1961,395
785,420,-417,7731,1133,-950,371
786,-5403,-1782,6598,-970,675,707
787,-2354,-579,354,-696,1940,-1364
788,-6777,7149,-6017,-857,-803,-549
789,2291,-4945,-7461,-582,695,-18
790,2289,4304,4849,1814,-680,1104
791,6418,1555,4096,470,1822,1484
792,3864,704,1261,-369,-1387,1484
793,-1358,-6024,3935,-1996,-1585,-606
794,5721,7326,-6422,147,-1855,1378
795,-1708,-5364,673,1226,-982,-161
796,-661,-943,-3781,322,1488,-593
797,-4670,442,7430,-745,1245,817
798,-6684,-6439,-4150,245,650,-1562
799,6630,1991,2150,1028,1971,196
800,5451,6044,-5980,-11,1744,221
801,-6336,2446,-3731,-1445,-1752,204
802,-1968,3126,2023,-814,-1251,-1243
803,5484,1145,-3949,-1825,-693,265
804,-2174,-3021,7864,712,-611,1171
805,5661,-4913,-3001,-398,524,-1876
806,-5053,-4299,-6240,1772,-1063,-601
807,296,307,-1718,-1049,1161,-990
808,-3976,-7508,-4838,-1188,-938,590
809,4070,-775,4186,-644,1336,-177
810,-6787,-734,-1444,1125,-501,759
811,2891,5419,-855,-1723,71,341
812,1294,-5893,7092,1708,-791,122
813,-7536,3221,4248,-284,1614,338
814,4645,4662,2858,-1469,595,-1189
815,-5597,2810,2266,-739,379,1282
816,-7924,-1296,-5516,254,217,-774
817,-846,7024,-178,533,-892,778
818,-169,7649,1123,1253,-110,-1369
819,6818,-7716,-3462,-1123,107,1690
820,-2032,-4754,-5805,65,1582,-1283
821,7786,-303,-1069,95,-568,1522
822,-4573,4630,-2260,-479,1510,-1101
823,-5202,5556,2574,1154,279,167
824,-680,3317,-3433,1723,244,-1068
825,-6822,4711,-1115,-967,1421,-763
826,-4416,-387,-7079,1240,-8,-1657
827,1163,-1188,698,-1408,1797,-601
828,4864,1260,1256,-1654,-407,-1263
829,-692,-4961,-6868,-881,-812,-1664
830,-7658,-6840,-356,366,477,1693
831,-4982,-4725,628,-1340,-923,1947
832,-2562,5379,863,-254,706,-847
833,958,778,2877,1722,1367,-1331
834,-5734,4901,-6899,1902,1739,-760
835,-4468,7322,330,1116,1944,-578
836,-6042,-4463,3099,-1998,1316,-274
837,-1934,1496,1365,-785,1038,-1697
838,7024,-1809,2306,-859,-1574,82
839,-1776,635,1724,384,-1066,-1558
840,-6954,-5494,-5665,747,1847,89
841,-2061,6788,4912,1560,498,612
842,2559,3364,5305,-532,-558,-1467
843,-6956,2497,-5324,-31,895,-1372
844,-2122,7696,3400,-879,1486,-129
845,1938,-2981,7183,-589,1783,1621
846,343,6516,-3647,-1488,515,-1510
847,4539,3905,7647,716,369,-1518
848,-6462,6571,-3669,140,-979,408
849,-3885,6839,-4241,1277,935,573
850,4550,103,-5155,-636,1559,-1405
851,-5023,7140,-5260,652,-438,1456
852,5459,7339,-6449,-1289,-1255,1665
853,-6425,464,93,-1842,-746,58
854,-6309,1512,89,-727,-1265,-685
855,2113,5555,4978,-170,1977,89
856,1171,4999,-2166,367,1239,-969
857,-4758,1886,936,-1837,1882,-1658
858,1965,-7475,-5787,-1148,1172,-691
859,-4310,-2067,7576,-661,610,858
860,-665,-2068,4730,390,1850,-536
861,-2181,-2417,-7427,-1407,274,-1678
862,-6881,6848,-4591,-534,-437,-1694
863,-2966,4283,-584,-556,-1664,-1773
864,-4081,5872,7471,-1444,1347,-924
865,-2220,-4347,-1843,-1515,-806,1294
866,-3285,-3014,-3695,-406,-108,-890
867,6180,1881,7095,-19,-1176,276
868,6538,5457,1753,-553,-410,-1962
869,-201,-5791,-4718,-1325,201,-949
870,5026,-4712,2437,-27,1875,-1812
871,-3942,-2801,-6800,-785,811,-1315
872,-116,6041,-7850,-347,-1946,-1985
873,245,4999,-1801,1111,-1263,4
874,-7237,-7154,-3156,731,-147,984
875,5791,-6306,-4180,-438,1338,-1208
876,-5991,-4892,-2451,1418,-173,-733
877,6545,6520,-7777,1996,-279,549
878,730,2316,4760,798,-1219,-989
879,5675,164,-7718,-269,-1568,196
880,4908,5592,7702,180,-626,525
881,7417,-23,6682,1194,430,1804
882,6583,-2226,-1828,-1318,739,-132
883,6808,-5827,1010,-1794,438,-1250
884,-4141,5263,-2980,1896,326,1361
885,-1644,-6895,6477,-1574,1216,-865
886,-5473,6388,4473,-1263,265,369
887,6366,4232,-2600,-578,-1355,-95
888,-442,-4464,-5667,687,539,-1075
889,-2308,-955,6661,1457,1783,-1392
890,-1854,253,-3222,-603,-967,917
891,5695,-6603,-506,-606,269,709
892,76,-4194,7237,1428,-1174,-27
893,-2137,-6390,-801,1603,1117,1493
894,5457,7869,-1982,-503,-722,-413
895,3893,-2745,1146,-520,-1293,-47
896,-4536,625,600,-938,198,878
897,-219,-1937,-7154,1973,1998,-1561
898,7632,3866,-7077,-308,-497,-375
899,-1946,1657,4851,1854,1673,996
900,-6933,6369,4828,992,-1854,-1098
901,-6890,-2514,-511,150,1244,117
902,2421,-1987,-6405,-1834,799,-849
903,-5261,-4025,4996,1732,1561,844
904,-7366,4824,5114,-1272,-1453,1854
905,-5717,-6760,6189,-1927,-1315,1767
906,-1335,2473,7036,194,-1618,916
907,-6558,5706,4847,-52,-638,-1671
908,-3278,-2287,-4984,-978,209,819
909,-7025,-6581,-6311,-476,-759,-300
910,-991,-6819,560,-1016,1999,1479
911,-4350,4267,-6495,-1319,-1892,-859
912,2332,-1594,-7258,-197,1649,-1513
913,6455,-2263,-6543,588,-157,1905
914,-6079,7781,-206,1208,1821,-819
915,-6981,2954,1560,827,1796,417
916,-3091,3671,-838,95,-622,58
917,-1126,5589,4676,599,1556,12
918,-7092,7922,7634,-1949,1103,-946
919,5788,6770,6148,-930,-1579,-435
920,-4778,5420,-5052,-1072,-1677,724
921,-3881,-3451,-2564,-202,-1631,1604
922,-2513,3493,907,-1632,507,271
923,1188,-5052,-3768,324,355,-1492
924,-898,-639,-6931,-272,1110,-274
925,-7555,6074,-1701,1700,-410,-717
926,7447,-7737,-4788,-66,-950,-426
927,-7287,-5641,4200,595,-1851,168
928,7196,7308,-2162,-969,-666,-1280
929,5675,7524,1164,110,98,267
930,-4228,-6784,-4894,1770,1902,1445
931,2217,2437,5918,-468,104,498
932,-3900,7013,2928,1090,186,831
933,-2789,-375,-5598,1301,1485,1948
934,-7750,2722,5172,1731,-209,-733
935,4145,3611,938,1850,764,1052
936,348,-5073,3426,868,-1573,1409
937,-2779,4292,7360,1395,1019,90
938,2780,3832,-816,807,1237,907
939,1479,-1653,-3961,1233,1524,-1190
940,-1086,6070,-603,1050,-1374,-662
941,4632,6929,-2604,731,-268,-996
942,-5799,7307,5599,-1852,-766,-1161
943,-5130,-6195,-2682,-86,-1045,921
944,7475,-6151,7510,-69,-1942,990
945,-3833,-7792,2283,-1699,-1098,1189
946,4172,-6024,-4173,1809,1740,925
947,-3795,4596,2982,-1389,1099,-533
948,-6249,4877,-186,-1138,-959,-1087
949,6509,3861,1311,1179,1780,-124
950,6638,-5676,7884,-173,-1797,-558
951,-6495,-7563,-1415,1293,-1671,-915
952,3781,6880,3652,-1874,-1109,-1330
953,2864,5753,-3073,941,-1454,-421
954,-2668,-7859,-5534,959,1457,-1962
955,-2577,5619,5748,-828,-1018,1436
956,5165,4678,-771,-472,1318,-1786
957,-446,1657,-7047,-1500,-187,-204
958,3000,-5453,3589,-1652,-285,-662
959,5619,-2077,6557,-610,136,-1965
960,4340,-6403,-1060,-489,541,1679
961,3103,-1603,7015,1900,41,-159
962,201,-912,-6799,1738,936,979
963,2635,-1390,5642,1036,-1121,-721
964,7415,4362,-6015,1669,-1980,-1934
965,-3835,-2690,-6240,989,510,-1062
966,-1859,-7057,6967,-1964,-661,-1992
967,1337,-7673,-6350,-341,943,-1844
968,-6083,6421,1190,1993,336,496
969,-3125,-1403,5927,-815,480,-1405
970,-5510,6377,-6341,-3,-1287,168
971,6684,7433,3745,1454,95,655
972,-5156,-5579,7424,-1386,-812,-917
973,-7843,6079,-7934,-1910,-561,-1521
974,6457,763,-7700,488,677,527
975,-1417,-4840,7957,-1888,902,1364
976,-2435,-1000,-5008,-138,-1410,109
977,1887,4937,613,-821,-1999,-1210
978,-7049,5887,7373,934,-444,-672
979,-5261,5778,-3475,-767,-755,-1587
980,-5669,7049,-6070,905,-1200,1272
981,3182,7048,1781,-1193,-1183,-957
982,-2083,-213,-7439,-48,1512,1152
983,4106,-3628,-6621,123,472,-189
984,-744,-579,1258,903,-799,-299
985,-3802,-4794,1314,-130,721,-1649
986,-678,-4860,7135,1373,1807,138
987,4843,7429,7912,1722,1573,1984
988,-6185,-4573,-5903,-552,160,1983
989,5216,2335,4332,-216,-1183,-1563
990,-1957,-7628,-7351,501,-202,1699
991,1296,-3425,2855,-1225,1530,398
992,4421,6567,5068,-684,-1956,-150
993,-6194,3903,2140,-464,-337,1805
994,-155,65,-6884,1279,-1881,1741
995,-169,4917,906,31,1481,1047
996,2942,-184,74,-1872,-1577,-1898
997,-3606,2038,-1343,-1083,-1886,168
998,-1471,2620,850,-1785,-526,-881
999,3213,-1154,-6845,1480,536,-1848
1000,-7947,457,4947,1370,-252,-1350
1001,6821,162,-3372,1541,1544,597
1002,2207,846,7767,-1232,-940,131
1003,1244,4544,-6037,446,1959,569
1004,-1976,-6032,-1934,1611,-1641,1736
1005,-3625,3211,430,1216,-1483,-1363
1006,6174,106,790,1461,-1479,-1034
1007,4243,54,-7414,-1240,540,-1703
1008,-2130,-7279,-1909,902,-1692,1535
1009,2658,5555,5098,-1080,-364,-175
1010,3803,2434,817,34,42,590
1011,301,5744,-3558,-361,424,0
1012,7191,4091,7775,1442,1781,1753
1013,-801,2850,6856,-264,1164,-587
1014,-4230,3741,-1572,-574,-1859,1388
1015,6070,-5477,-6193,1274,-1538,-129
1016,6933,-484,-1882,-542,399,-961
1017,5555,-4457,1403,430,-922,867
1018,7185,-2597,-7942,-887,1369,1393
1019,-7441,6416,-3594,-1001,-166,1503
1020,-4278,-3511,4580,47,-515,-835
1021,671,5979,-3305,-1249,1527,-1818
1022,-145,2670,3068,620,406,651
1023,2944,-102,3639,-1438,-1364,757
1024,-5729,-7748,-6271,-15,1343,-1977
1025,-7351,7068,-3222,-1414,-433,725
1026,4691,7248,168,1293,307,1894
1027,-2644,-2566,4716,1657,-988,1644
1028,-2393,-3182,-427,-65,1625,-768
1029,6193,7000,-7857,1534,357,986
1030,5528,-551,-894,134,1097,-923
1031,322,1132,-7950,1589,-1164,214
1032,-2624,-1640,-6551,-946,-1547,1752
1033,6349,1997,7946,511,658,993
1034,1765,5170,3019,-1994,-1417,1462
1035,-1527,5728,913,-1632,-832,600
1036,6224,-5915,-1950,-98,-877,-1577
1037,-7976,-4157,-3671,-811,-1283,1096
1038,-6749,-406,-7431,1332,1269,-1461
1039,2387,3791,3076,436,-211,-1722
1040,-7164,2193,-7035,-405,186,-1212
1041,-4686,7531,4685,80,-391,-1960
1042,-4816,-1776,-5172,-1516,-50,928
1043,3938,7174,5638,-155,-700,31
1044,-6144,-5071,7671,714,-942,799
1045,738,5230,4765,-599,1978,1744
1046,-6105,-4393,-6240,1875,452,-211
1047,1396,6498,405,1481,-1332,-1054
1048,4097,-6882,3859,-1322,1693,-1055
1049,6576,7419,-6241,-662,-1930,-1340
1050,-6512,-6050,2357,190,-824,15
1051,-7966,446,-791,-839,-1490,1400
1052,-3289,-7029,2591,-3,79,338
1053,-3272,6072,-6022,1250,-1337,1418
1054,6513,7526,-3257,-766,-274,-600
1055,3581,1832,2843,-198,-195,993
1056,-4243,-3110,-2911,-1143,-1406,-665
1057,-7521,4005,1917,-1844,-572,-1025
1058,5324,-2160,3436,-1627,-941,221
1059,25,-5408,375,-1994,1675,723
1060,-742,-5514,5765,-1542,-171,501
1061,-1581,-7245,3182,-1177,892,-57
1062,7228,-492,6405,483,1722,-414
1063,5408,-5445,-7171,-1108,963,-556
1064,7575,6236,-7987,-322,1486,387
1065,-3754,-4365,-6130,-1294,807,-688
1066,-4233,-64,-7058,183,-111,413
1067,-5127,-4211,1610,652,1560,374
1068,2407,-4240,-1423,20,56,1512
1069,-2919,1902,-954,-613,-933,-665
1070,-3644,1602,443,-1044,151,-1861
1071,-7424,228,1153,-680,-389,-1196
1072,7820,672,924,1327,1257,697
1073,-1685,-3753,-7241,1294,-194,1238
1074,-3692,-4712,-2424,-1543,655,832
1075,294,-5149,1565,229,473,-1633
1076,1021,3674,-5455,-1398,-1703,112
1077,7287,1817,5759,-772,-1474,-1397
1078,7818,-6751,6334,-611,1095,407
1079,6785,-4785,-2352,770,976,-1073
1080,6290,7462,617,-1435,-1541,1498
1081,-2737,1348,4094,-432,272,-587
1082,-6954,-3224,-1488,-491,-481,184
1083,-6604,877,-6349,706,998,-895
1084,2810,3541,431,911,456,1210
1085,-3168,3045,-1463,-1898,1332,1252
1086,5138,5974,561,62,-730,-1183
1087,5817,-5853,4147,1010,-147,251
1088,5570,5974,2074,1009,-923,1575
1089,-363,-961,-6396,-649,-55,1465
1090,1600,-6803,6832,416,-1119,-1898
1091,-484,6803,4768,1475,-478,1719
1092,-6309,138,7810,168,-1442,-556
1093,5304,-5912,4059,-1525,-419,399
1094,-1553,4069,-746,-10,1343,868
1095,-4688,1869,-3456,-1614,-161,1338
1096,-3501,479,-810,1894,-74,-1136
1097,-5778,-2928,-3010,486,136,225
1098,1837,-6340,3491,1649,1370,102
1099,-7200,-1727,-3237,613,1075,1916
1100,1473,-5327,-4770,-1724,1022,-1808
1101,7991,2016,-1060,1737,669,-774
1102,3228,2059,6926,-1954,-1607,1240
1103,7322,-1509,6320,1654,75,-1820
1104,-6207,-4308,3529,-1315,-1264,-1361
1105,-3653,1503,-2943,1612,550,-1301
1106,1141,420,-4856,679,1971,1658
1107,2539,3554,4629,-1621,1818,848
1108,-6703,-4485,1611,-1185,1039,1903
1109,-6213,1425,-5672,1094,387,1380
1110,4003,2831,1453,-176,190,404
1111,-4335,-177,7524,1080,1189,-88
1112,-3275,1297,-41,1734,-186,1559
1113,3834,6029,-6223,-939,-691,-1609
1114,296,-4570,133,625,-79,1283
1115,-3323,-4903,2306,1426,1751,481
1116,2934,-8,-562,-1054,1972,-1654
1117,-4150,871,219,899,1590,-924
1118,-318,7216,7899,1487,600,-508
1119,-3418,-3887,467,-712,683,445
1120,2569,-2803,4905,1218,118,300
1121,-5017,1305,-4072,-761,951,1317
1122,-1479,-5290,7696,1805,-194,-1164
1123,1751,7130,5166,449,1989,1159
1124,-6825,-646,7618,1402,1764,-1009
1125,3757,-997,-156,905,-1829,580
1126,-228,6373,-6641,-102,99,-1948
1127,4876,6280,-7291,-462,-344,-608
1128,7762,6573,-4892,-694,699,1597
1129,6024,3590,381,1403,202,-473
1130,4041,2429,-7656,1479,-1421,842
1131,3046,-4148,-3357,264,-365,-1856
1132,-7353,1974,-4460,-1460,-1424,-30
1133,2455,4525,-2411,-1791,1457,-37
1134,3443,-655,-3094,647,-835,263
1135,-3692,-2671,6612,-666,976,-10
1136,3655,4881,-1146,863,793,21
1137,3789,-6331,-7878,1247,1569,-1674
1138,5650,-2866,1203,211,-86,-898
1139,-71,-2757,4980,-1992,-1461,-1232
1140,-1358,-724,-5764,127,-560,311
1141,4893,1404,7248,1372,-773,731
1142,6850,-7832,2957,-525,769,-109
1143,-99,2272,2534,-1395,547,-323
1144,-6300,1974,2014,1046,-1101,-475
1145,-405,-5924,-3523,664,1629,1116
1146,-5374,553,-1073,646,-1696,-241
1147,6351,2695,-3114,-447,-1256,436
1148,820,2950,4403,1906,-851,-806
1149,1839,4051,302,1066,770,-1617
1150,-3927,7689,743,-871,-739,1172
1151,-5526,3277,-5618,-1496,529,-1619
1152,-4679,3096,1028,786,-268,962
1153,-6110,-5026,-374,90,329,-613
1154,2810,6688,4360,392,929,1640
1155,2905,3677,2848,-36,-721,1062
1156,-2569,7137,-3978,1325,-173,-1907
1157,1851,-3833,-6965,-1300,-1717,474
1158,-3756,1597,-6701,-410,-1339,-899
1159,-7548,-7409,-6731,-18,-1764,-1480
1160,-4353,-1117,-2884,-1669,-724,-1706
1161,3309,867,382,661,307,-1558
1162,490,5641,1568,67,1341,-315
1163,6561,1518,624,1886,-1698,-214
1164,5996,-6119,2216,-1893,-1978,-1300
1165,-5585,-5937,7256,1923,629,-1384
1166,-203,-6106,3901,-482,651,531
1167,1001,-1447,7480,-1353,287,-1687
1168,5502,-7394,1149,-1777,690,-343
1169,3313,6581,-5344,1020,1681,-800
1170,-5596,-7716,-2367,1505,-827,446
1171,2743,-4620,-7178,1739,242,1140
1172,-2805,4026,7391,-566,1345,1764
1173,6792,-6527,-6699,118,-1431,519
1174,-1188,7652,7954,1259,-1534,-576
1175,4905,7663,4540,1189,1092,1744
1176,6062,719,1790,1653,-1556,-1918
1177,-3636,-3850,-7193,-13,-1822,-1437
1178,4424,4596,-4833,1995,-941,-1073
1179,3713,-7636,829,800,1504,-1948
1180,-221,119,-3654,1892,-323,-568
1181,322,-2931,-461,1686,231,-1299
1182,3675,3211,-3893,-1032,-1835,-125
1183,-7161,5059,305,1232,-859,1368
1184,-3179,3331,-3347,-389,1146,1376
1185,7993,7712,-7731,-1198,-323,-517
1186,7898,-6414,195,290,-1451,450
1187,-1107,1466,4462,-441,-1120,-99
1188,4618,-3369,-2639,1364,-619,-652
1189,7541,1150,6899,-1829,155,154
1190,-2005,2504,-5557,-1915,-230,1203
1191,-5906,577,-4855,1674,289,11
1192,425,577,-453,677,1278,1117
1193,-2215,-3987,5617,-1968,691,1511
1194,5245,5348,-343,1502,-1707,1266
1195,-6074,-5738,-1815,1808,2,-1421
1196,-2691,290,-3874,1259,-264,49
1197,3520,-2800,7817,-137,-945,1029
1198,717,-3382,5745,-191,629,115
1199,-7228,-4558,-3095,-854,-1147,-603
1200,-6157,-2669,2363,-1456,857,-1133
1201,-1928,6329,1907,410,599,1387
1202,-333,-3053,5379,-1416,-1681,1078
1203,-1665,-672,2377,573,681,-1207
1204,996,7255,-412,-509,1303,-702
1205,-5738,-7859,-4513,-156,-1753,240
1206,-3791,-2625,-4749,746,-1641,1147
1207,-1418,3539,-1731,-5,-488,-477
1208,5191,7014,-4358,-789,-1430,-297
1209,4054,3932,990,-1192,-84,164
1210,2956,2478,-6225,1615,332,713
1211,-5898,-344,-7101,-1246,1641,194
1212,7897,-1937,2741,1832,1160,-599
1213,-5276,680,-6807,-559,-386,1927
1214,995,-2458,2985,765,362,1652
1215,-3159,3990,-7997,-1158,1932,298
1216,-1790,-3744,392,-1834,1194,-1243
1217,6254,4699,1378,1794,1251,-443
1218,5422,6378,3200,920,-1548,1110
1219,6824,7061,-5385,1370,1231,1281
1220,3404,-5944,-3005,-1326,240,1156
1221,4035,-5560,-6033,-819,1788,-1001
1222,-3280,-3860,6027,1361,872,-1540
1223,-6571,7517,1372,-502,-1696,-799
1224,6114,-5474,-5521,1336,996,-144
1225,-3978,-5552,5933,-1489,1764,-479
1226,309,-5195,3621,-642,417,1673
1227,4702,6531,2141,1870,1511,269
1228,5835,-3493,2670,-1643,-129,-619
1229,3499,-3168,-6811,-410,-598,738
1230,-5020,-6475,1203,-745,-1755,1181
1231,4306,826,-750,1680,185,61
1232,-5904,6893,5937,651,1669,-226
1233,4778,-2052,6559,-791,64,-1692
1234,-3114,-7849,6405,213,-1472,-582
1235,-640,7301,5100,1596,481,-1001
1236,-3815,2337,-3384,1360,-12,1671
1237,-4905,-3674,6541,1566,-980,-87
1238,2310,4342,5014,-459,-1918,501
1239,7762,-6509,-7090,1387,965,-769
1240,-620,-4518,-5168,1665,-1932,-1977
1241,2181,-6614,7622,446,1104,-1179
1242,3217,-578,258,534,1476,206
1243,6816,-5382,-2482,1611,108,-831
1244,7013,-829,-2814,-975,-1160,1310
1245,4311,262,-5498,-290,-745,-137
1246,-6508,4846,1228,1048,-362,-1727
1247,5030,7676,-5866,-444,-1189,1396
1248,-5165,-731,-1354,114,383,-332
1249,3207,-270,-2368,-617,-806,-44
1250,4172,-704,5810,313,-1981,-1438
1251,2525,6943,155,1104,937,1753
1252,5249,-3202,-5961,1920,-1397,476
1253,-6195,-5191,-603,-1406,1582,-549
1254,58,-2077,-6692,902,-780,-1687
1255,5639,-846,5369,1455,145,1309
1256,-2721,-2041,-4022,876,873,-1970
1257,4493,-5957,-5787,976,-979,-477
1258,-975,-7198,2375,1754,-1912,-1499
1259,3607,4078,3443,170,1156,231
1260,-2993,-5183,-5958,1766,30,625
1261,4464,-7432,-1315,1110,1397,-1924
1262,-1381,-443,1287,1544,-1310,-1037
1263,-178,2701,-3655,1335,1659,356
1264,-7676,1780,-3849,755,-273,-1000
1265,1033,6557,7302,1993,-30,-739
1266,-972,5403,-5664,-936,-178,-612
1267,2167,2177,3202,-1084,632,-1317
1268,-1183,5096,-2140,1273,960,1564
1269,1387,-4115,5750,1269,-1578,-234
1270,-5391,115,-1019,-1740,-116,816
1271,-5327,7922,2132,-983,53,-1242
1272,-5806,6241,3786,923,-225,288
1273,-2067,7622,-4676,-291,-1180,1944
1274,-4459,7842,7779,-844,-1500,872
1275,-2967,-5354,-3286,1844,-1755,727
1276,7137,2169,-1060,234,1989,807
1277,1942,654,-530,-702,1411,-922
1278,-4248,-6200,4602,-7,1692,-1534
1279,-3199,-366,-5233,-1481,773,1600
1280,7370,6625,-3247,1511,1354,827
1281,4610,6421,1883,-1044,-482,353
1282,5789,5101,-7974,1568,781,-360
1283,-4891,7554,-7522,-129,-1602,-592
1284,-2608,118,7179,-176,928,-1477
1285,-4205,241,4495,-308,625,779
1286,-4362,1882,-6772,-189,-974,309
1287,2942,1945,-6343,-987,825,-528
1288,-2414,1328,-5267,564,1900,1430
1289,-2861,-4914,574,190,758,-1504
1290,-7177,-899,2536,300,-1964,-1007
1291,-5844,-2449,-1973,303,-1546,1624
1292,-1121,-5323,-5787,1487,694,933
1293,-6711,-4553,474,1344,171,-571
1294,-4213,4902,4059,-422,1324,949
1295,6220,3426,5301,-1365,1939,43
1296,2444,-5573,6350,-62,-1263,-1314
1297,2472,-101,-3940,1822,-848,-677
1298,2782,-4639,-4755,-467,-766,-843
1299,1846,6924,-1556,577,-576,1308
1300,-1326,-3402,-7344,171,100,-761
1301,-1422,6339,-6372,130,-1792,-1449
1302,-1536,-1273,6776,-670,-1260,-1580
1303,2405,-4025,2009,-632,-92,1651
1304,-1111,3517,-2911,71,1698,1946
1305,609,-1385,6613,776,1181,785
1306,-5054,6393,-6199,581,620,-226
1307,952,7442,-5440,1859,1956,815
1308,7785,-3814,-6014,66,1811,1651
1309,-949,3932,5883,1768,-1879,-1282
1310,-25,-7566,3744,433,385,-875
1311,-4354,2901,4148,200,1321,1579
1312,627,-1935,-1000,-256,-1608,1378
1313,-5944,2007,-1068,1591,-321,-31
1314,-4489,596,-5284,1905,-56,-28
1315,-1929,7238,-7619,-1958,-1743,1747
1316,-7192,5395,-6047,-93,249,1877
1317,5642,7092,5751,-1966,533,-777
1318,6296,-161,-4938,-1047,519,-270
1319,-279,-2546,-4035,-668,-575,366
1320,-233,3269,-7130,1271,164,-1885
1321,-5421,1980,-6736,-374,-879,-1913
1322,-4958,4759,4322,-1413,305,733
1323,-4218,3597,-1788,-748,1414,123
1324,-2259,-2187,1562,532,1081,1771
1325,1772,3534,-7810,1269,30,-1378
1326,5374,-4606,-4162,49,1197,799
1327,4809,6222,5870,1636,1497,-1218
1328,-6650,-2649,1213,-1902,429,15
1329,-3879,119,-377,-1262,-1289,192
1330,384,-5058,-4990,1435,-1576,1547
1331,5511,-7384,-166,-148,57,79
1332,-7723,-1102,2468,-703,-1355,1541
1333,-7867,-3300,204,1442,-676,1347
1334,6629,1258,6002,454,1853,-1396
1335,-2361,-3781,2447,-765,1989,1102
1336,-5449,-1125,-274,-748,-1193,371
1337,-331,-5286,-2279,-662,446,643
1338,5646,-57,-338,249,-969,-1606
1339,-2183,1668,-6681,-1083,-500,1800
1340,162,-4481,6777,-953,717,-35
1341,3816,1707,-5580,19,-1397,-968
1342,-7214,6373,2749,-339,1251,-735
1343,3313,-5629,-4139,-1055,1137,9
1344,6461,-612,-4664,1134,-1278,1861
1345,2729,4572,6525,-184,-215,-324
1346,-6610,4916,2907,-1355,-147,1065
1347,-546,-3538,-5945,-1605,-1776,1578
1348,6249,-1700,4069,1972,1269,1794
1349,6061,7530,4486,-878,860,-197
1350,-1111,507,1541,1258,-1411,-1026
1351,-4636,7350,-47,389,-1891,-1130
1352,5193,-3138,-2734,1813,1528,654
1353,5612,-3830,-1826,1884,-394,-1137
1354,1114,-4423,-7430,878,189,-1440
1355,-113,-4101,-4692,-1555,-1958,-1880
1356,-4379,-6904,-27,912,-1276,1123
1357,2492,-3294,7145,698,237,-1851
1358,4608,1652,-624,1213,1925,1839
1359,2209,3840,6086,1372,-1102,-823
1360,-7362,-883,-5806,-1696,598,-1915
1361,5677,2980,6058,651,1390,346
1362,-4487,-1493,-5999,-316,1720,275
1363,7101,-2688,-3670,1409,-26,-226
1364,-2732,3943,-3622,337,1974,1922
1365,6093,4995,-3824,1461,53,1552
1366,-2837,-4275,3659,-1929,264,-1617
1367,7131,1849,-4950,-1137,1144,992
1368,4129,1563,-6003,158,-1610,-1396
1369,7135,267,6935,-1609,866,1425
1370,-5570,-6589,-7547,1544,934,289
1371,-3278,1647,4442,-673,1257,-1110
1372,-3661,-413,7833,-1558,952,366
1373,1728,0,5087,1771,1531,-19
1374,-3957,160,115,-778,-490,1907
1375,6983,6385,1856,1619,1304,-1476
1376,7783,-3376,-4008,-1913,787,362
1377,2291,5504,313,-1649,276,-470
1378,2446,-7495,5226,-1233,-1844,-1218
1379,-2558,-530,-6653,376,170,1033
1380,5154,281,-1821,-1390,-229,-82
1381,1861,-1829,-3259,-299,675,-473
1382,-3849,-5802,810,-1198,1872,285
1383,3597,-5838,6999,18,-1201,1806
1384,2677,-2184,3841,-1823,-1276,27
1385,3465,559,-7793,-376,-1639,1965
1386,-1898,6418,670,-1368,1500,-868
1387,1416,2111,-4123,1347,950,-1058
1388,6138,-5895,2292,1335,1427,-695
1389,-5812,-7843,-3136,-1092,1788,-837
1390,7462,-3840,1665,-1131,1191,301
1391,-5466,-2463,-5299,709,1626,-1604
1392,-5519,-2593,-3850,1664,-177,-1131
1393,-1709,5659,-7811,-467,1203,1953
1394,-2213,7385,319,-660,1791,1653
1395,6179,4601,3889,-639,-1950,1314
1396,7018,630,4093,1612,-673,1675
1397,2181,1656,-6841,273,-1936,-1404
1398,2512,-7327,-248,718,794,1880
1399,-5794,-4165,-56,-535,-709,609
1400,992,4222,-326,682,-313,1226
1401,303,3933,2362,-273,-800,-529
1402,-3613,1920,496,-1723,626,-964
1403,5988,7841,5031,1378,1833,740
1404,-3884,-6072,2502,-651,-1777,877
1405,-5158,-2820,7053,1727,-143,775
1406,-4046,-2474,3356,1435,-360,-1051
1407,218,-4991,-4629,-1279,-1614,-544
1408,6013,-7253,-1387,-326,-746,499
1409,-7502,-2407,353,-1745,-1414,603
1410,7398,6859,-3575,61,-957,1869
1411,-3189,-2757,2566,-1773,-1874,-1754
1412,344,-7175,2626,-1789,-556,1746
1413,6167,7248,1839,-1948,1001,-1701
1414,-4466,1667,4531,-61,-1560,-280
1415,884,7614,-4090,-1190,-1463,1353
1416,-5189,-4147,-2048,-394,-1278,-1432
1417,-7766,-4240,-166,859,-222,-1270
1418,-3066,7185,-2455,433,-564,251
1419,-4127,-970,-5541,997,1337,788
1420,5486,-5544,-2606,134,1697,-584
1421,5338,7924,-803,-1209,-1533,-1782
1422,7117,-2086,5695,325,551,-193
1423,1771,3876,2871,-743,909,319
1424,7496,4827,6956,-1370,-1755,1879
1425,5478,-3708,7770,49,1609,-1181
1426,2236,7601,-2029,143,-674,1939
1427,-4585,-2885,-6084,1898,-183,1501
1428,-3406,5026,-5610,-1744,1976,1738
1429,2631,4965,3351,1122,-614,-962
1430,-5043,-7495,3362,-1753,-1448,-1548
1431,5387,-7070,-3237,749,1754,-1009
1432,-3311,5252,-6502,-1850,-313,858
1433,-5568,-3024,6436,465,1763,-1709
1434,5107,-5582,2730,1924,1374,1328
1435,4413,-150,-7303,726,-692,-546
1436,-2432,-6786,5070,655,1544,970
1437,-4912,4651,7593,-341,-1484,1449
1438,-1807,228,3405,-1998,-221,1806
1439,-3560,7752,935,-788,-96,359
1440,7825,-1081,5042,-1450,1682,332
1441,1630,1472,-1309,41,1967,-1983
1442,7271,1543,-7022,-476,-1432,544
1443,3661,-2250,3443,1905,-1893,83
1444,2669,-4656,-1934,-30,-427,525
1445,-202,-3631,-6144,-1461,665,-1795
1446,-580,-3897,-922,-1396,1010,-1739
1447,3463,-2744,-7219,1344,307,-1356
1448,-6889,717,-7564,46,-1798,-623
1449,949,4202,5505,809,1859,767
1450,-6202,-986,-7575,1659,1092,866
1451,-5564,-980,592,445,-866,334
1452,-5433,-4610,1845,-403,-1968,1545
1453,-3971,5960,-3759,-579,-839,815
1454,7752,-423,-6334,-695,1806,884
1455,-842,-5181,-3293,-1287,895,-689
1456,-4291,3881,-7087,-434,-562,-701
1457,-597,1948,4378,1156,518,1946
1458,3893,-358,402,517,911,-455
1459,7755,1681,5492,1973,270,581
1460,332,1003,6590,-644,-523,1324
1461,-6846,-3625,-6657,1456,-1235,1735
1462,1972,3206,-3784,-1107,1344,-6
1463,5360,-3396,231,-1064,-1935,1983
1464,-730,-1755,-533,-1134,-483,-1832
1465,5297,-6312,6793,-911,65,82
1466,-5130,-1798,-7241,1322,1913,-1269
1467,5905,5038,6359,1637,-1049,1175
1468,7175,6810,3209,1741,1898,-1730
1469,1340,-7466,6485,-502,1081,1931
1470,1223,5939,5404,566,-383,1229
1471,-4888,652,-6795,86,-479,-1816
1472,2039,-7239,-4732,1005,-1829,-1069
1473,-6207,-7404,-3500,-1870,996,170
1474,-3013,-1698,-4981,-502,620,-1860
1475,3590,3451,1947,1487,1362,-1967
1476,5274,-3863,5460,-368,768,-1556
1477,2633,7329,6061,793,1381,534
1478,-5760,-7989,2606,1007,-705,-1746
1479,88,-876,-6676,-326,1078,-1235
1480,7367,-1691,-7779,-1400,250,1474
1481,-3432,2363,4361,-1076,-30,709
1482,7411,-1580,6364,1746,-1121,158
1483,-7228,6846,6729,-167,1608,-1257
1484,-318,403,7771,-848,56,294
1485,-213,-6847,5839,485,1918,891
1486,379,5153,-2919,1328,-845,-733
1487,5575,-314,6801,-1038,853,1071
1488,3954,-2998,1336,1875,565,-351
1489,-1552,4455,-3040,-23,-1972,1635
1490,3378,6786,7437,1825,-1178,-1886
1491,448,7358,-814,-1850,-329,-451
1492,422,2555,-7324,872,-1377,1529
1493,7807,-4476,-4082,-853,-256,1827
1494,6653,4111,4704,-1331,-1890,1159
1495,1640,-808,396,1665,-1974,-681
1496,7744,-4716,-5107,-1146,-1663,-1530
1497,927,-1272,358,565,-1020,-1646
1498,-5606,4131,2084,-544,1244,1803
1499,464,-3804,5200,1821,889,-368
1500,2389,-7806,-4343,311,-45,1688
1501,6508,-7481,-5976,-1982,-939,-572
1502,-3590,562,610,198,1989,-73
1503,3462,2213,5613,920,1404,-1528
1504,614,-1973,3259,1948,-1175,-1395
1505,-2697,7214,1100,1213,1129,1161
1506,-1056,6009,3321,789,-1892,1622
1507,4141,1284,1617,1511,-1481,688
1508,-3711,3881,-7480,1441,-184,703
1509,6817,-6568,1696,1132,1753,439
1510,-7847,7523,-5755,316,1601,1777
1511,3685,3944,1183,1122,-928,-1804
1512,-4581,7659,1510,440,1012,-402
1513,-6581,-6572,-7157,-1222,357,490
1514,-6675,6638,-6686,-827,-510,-617
1515,-3999,-2576,2911,-766,855,-1614
1516,3441,-5101,-1832,-1561,-428,-80
1517,1028,7543,-1340,517,-1790,-262
1518,3368,-929,7077,-1299,1962,-1048
1519,172,1398,-5482,1948,-211,300
1520,-1613,-182,7838,1319,1488,-926
1521,7674,6159,-4161,1868,-1909,-1738
1522,5069,687,6372,-588,-1526,-507
1523,3322,-479,-4545,1180,-556,-562
1524,6412,-2155,3212,-961,1072,243
1525,-6468,6786,-2572,914,1774,156
1526,4595,331,-7715,-760,-245,-1610
1527,6114,1420,-4054,-1593,1331,-401
1528,1816,7073,-6553,1492,1710,-1447
1529,-3160,6264,1173,-25,-1195,703
1530,4369,2422,-1838,-358,-798,-1608
1531,-1577,5637,4935,-1292,1157,864
1532,-1223,-737,-5410,-1521,-1952,520
1533,-1413,-2334,5965,80,-626,970
1534,7836,7096,5947,738,-1218,1365
1535,1022,-4464,4657,-929,602,-121
1536,6906,203,5999,-138,-1825,-1161
1537,-7731,4122,6389,-1747,-637,1796
1538,-3490,4195,7830,1732,144,-1423
1539,-1358,-7996,1126,1433,-1151,-483
1540,2884,-4011,-5203,298,1464,233
1541,2539,-476,5732,-231,484,1794
1542,-2205,1193,3129,-2000,-934,-1616
1543,2345,124,1159,1626,1805,-1907
1544,1171,2406,-1019,-693,-1380,1278
1545,5869,2104,-7952,131,-496,1952
1546,-6893,3021,-708,1788,830,-1727
1547,-1626,1800,-7932,-1457,-536,1996
1548,5353,4878,-3406,-1718,530,-191
1549,5129,-1721,-2613,-1905,385,1724
1550,-4494,-4663,-5722,197,29,-1608
1551,2488,-3733,6510,1313,-552,1036
1552,872,134,3600,-989,74,-1549
1553,4876,2560,5722,-1910,-1440,-177
1554,2863,-561,-4742,-755,-1580,770
1555,-58,-5441,-126,-1443,-1460,238
1556,-1714,-610,-4376,-1634,-1626,374
1557,-6712,6843,3289,-1773,1662,1727
1558,5724,-5490,-6475,178,-603,1753
1559,-7029,7127,-2867,-275,-1738,1992
1560,-5283,2314,4497,557,359,1821
1561,-7630,7153,5292,467,-1004,-476
1562,-1343,280,-2522,542,1364,189
1563,6794,1924,7177,17,-85,632
1564,-7368,-271,3529,-464,1892,-968
1565,1363,2582,3853,1405,728,-1621
1566,4985,-5526,6034,-1849,-252,-1873
1567,-6803,6451,5873,-633,499,1726
1568,-1421,1405,4818,182,1471,-1545
1569,4841,-5512,-4654,-489,-108,886
1570,3061,7364,-572,942,105,-113
1571,4005,-3841,-4325,-1690,1655,1644
1572,-873,2322,908,114,-1382,-1817
1573,-2596,-1603,-2975,-833,595,1711
1574,-7450,-502,-5626,-862,1116,-1988
1575,5362,6387,-2567,-727,-1743,1490
1576,-7573,5528,623,1357,833,-482
1577,3467,5923,-1001,1841,526,-994
1578,-4805,7439,7102,-1612,1407,-144
1579,1759,-2701,4649,1480,266,924
1580,5555,-6289,1008,-316,1135,-1273
1581,3766,4109,5046,-519,1197,-208
1582,2224,-3055,6851,117,590,131
1583,-5982,6137,3645,354,1283,1161
1584,7470,7766,6274,1109,-749,1437
1585,6362,7417,6751,-1519,-448,1915
1586,-2946,-5339,-7702,-495,-383,-499
1587,-7893,-167,-992,1856,-1811,1225
1588,-3070,4835,1512,-266,1948,1693
1589,-2196,-1181,-3717,-1295,-1008,-1662
1590,903,-7572,-1925,-524,-424,-1581
1591,4751,-4557,-2357,875,844,1542
1592,3139,-581,2785,1601,1324,-1270
1593,-5605,-7471,4600,992,-1208,-210
1594,-5447,5870,-3762,-1402,1568,-510
1595,-466,-3102,-1538,809,-1699,82
1596,-6267,-1144,1834,488,1030,-161
1597,-7349,-7285,-107,531,-418,1539
1598,-2633,-5117,1277,-1654,210,-1803
1599,-4884,3704,-410,-373,1976,919
1600,2660,616,-4422,-6,620,-1136
1601,4618,-6106,-6743,211,-24,-1820
1602,3726,687,-5588,-1641,19,-1413
1603,3708,2344,-2388,-1685,1627,-744
1604,2014,2432,5651,303,401,850
1605,-944,-303,6825,-263,-440,1526
1606,751,-5016,6864,-1534,-624,-568
1607,-3601,-4176,-3504,-1939,1223,1822
1608,-1408,5854,7154,1914,395,1
1609,1747,7509,6401,-302,1524,-1
1610,156,-4119,1866,-1080,-660,1082
1611,-2209,-4284,4691,148,1536,-969
1612,-1323,-661,4707,1222,1022,136
1613,-6522,-6963,5868,-934,1792,753
1614,-1367,-65,-5538,-500,-329,1034
1615,-5727,-4328,1768,-1716,-932,710
1616,636,2445,-889,-1950,155,-1528
1617,-3812,-843,768,-1578,1769,805
1618,-3756,-763,484,-1921,1814,394
1619,-6322,-5655,-2741,1914,1295,-357
1620,6238,5676,-5045,1107,1578,1538
1621,1475,7576,5085,-1807,792,341
1622,4100,-2005,-3702,-212,1540,45
1623,7353,-3166,-5319,-1824,232,-1488
1624,2518,-2242,-2870,-1119,143,1843
1625,5563,-4696,4198,729,1317,996
1626,6504,5622,7742,1282,-684,1489
1627,-7703,3004,4906,750,-1493,91
1628,-4983,-6298,-5466,1780,1538,213
1629,-6910,5534,-195,1426,1259,385
1630,-5529,-1868,757,-1824,-1096,-1316
1631,6984,6422,-2443,-201,-1702,-808
1632,5986,1167,-2984,-326,1561,-930
1633,1359,-2744,5910,-33,718,907
1634,2726,7262,-6610,-1888,-1256,946
1635,-7996,-2936,-674,-1923,1673,1856
1636,1325,-1096,2764,-1287,1234,514
1637,-2371,-5745,1138,1392,1275,-1934
1638,1141,-4921,-898,1613,-897,-673
1639,-6302,3597,-2010,470,1849,1027
1640,7141,1132,-3427,598,-789,-1555
1641,-3125,-5178,905,-718,-1658,-662
1642,-4540,957,3115,-1144,-500,1489
1643,5657,-4187,1780,1610,-1086,-919
1644,-5957,2831,-1334,1359,539,-735
1645,-7747,-2280,6689,-252,1547,-1760
1646,-5615,7009,-3961,1137,-421,-1350
1647,-5865,1096,5727,1549,-1972,-431
1648,-7916,1454,5832,1348,-511,-1311
1649,2857,1367,-6183,-472,-1150,-1189
1650,-1639,-2078,6573,1253,45,-1513
1651,-2023,-323,1631,1239,18,1150
1652,2728,-7919,-2952,1395,444,-826
1653,1790,-608,-2267,-1337,1313,725
1654,6612,1087,2637,-1323,-1597,-1646
1655,6469,-237,-831,-1552,-1075,-511
1656,-2243,6591,6960,62,1564,-1436
1657,-4218,6598,-6597,-1795,807,205
1658,7709,-984,3093,346,1191,-550
1659,7800,-5095,-3421,455,618,1256
1660,-645,7988,223,-1540,953,-163
1661,2169,-3053,-6055,-338,-439,667
1662,-575,2881,675,850,-1844,-1031
1663,-2865,7594,6987,667,-781,-620
1664,1621,1092,710,-1185,425,-1124
1665,4661,420,7887,237,-1678,1453
1666,6252,5280,-789,582,820,1856
1667,-7309,5937,637,-1047,1141,1423
1668,7653,7020,-3300,-1519,-1205,-306
1669,2928,-893,3056,109,634,959
1670,-6050,7022,-7562,538,737,-1875
1671,119,2265,-1639,141,-912,-1017
1672,4472,-1506,5759,1452,480,515
1673,4693,-4370,7968,1919,-664,815
1674,46,7355,-7095,-1317,-1823,206
1675,3475,-6064,1726,139,1285,-1832
1676,63,5368,-3696,-255,212,1736
1677,-307,4256,-7137,376,-465,-1320
1678,3113,5657,-3488,171,769,1679
1679,-1143,7265,-2751,-361,-1281,301
1680,-5985,6737,2995,-873,394,-1237
1681,473,3335,4336,1633,-1501,-1153
1682,-5391,3561,-3064,1524,-1501,477
1683,7635,4519,-3053,961,207,1675
1684,5166,6001,930,-1971,148,146
1685,-2558,-7588,-3694,-936,-1751,-1016
1686,-7797,-4882,5371,1022,-455,985
1687,595,6887,-6172,-496,-277,-350
1688,3914,-402,7433,-592,-1428,218
1689,1446,-7368,3307,-1245,700,1799
1690,2767,3181,241,1698,1310,174
1691,-4624,90,-2391,1174,-314,-802
1692,-1139,-1460,2476,1603,985,1844
1693,-7754,7748,6074,-1268,-764,358
1694,-6790,6027,-4749,-1874,1150,638
1695,5676,5452,6050,-1568,-1737,618
1696,4741,-5439,7404,1342,1751,1248
1697,-1822,2935,-5078,1474,75,-1056
1698,-3106,-7953,194,-642,1791,1067
1699,1627,5327,-4218,-387,543,383
1700,-4004,7382,7196,-1243,-1357,-1050
1701,-2899,1155,761,382,692,1799
1702,1355,-2560,-5290,-1909,-1491,-1222
1703,-2887,-7505,-1759,1060,-1616,-277
1704,5272,-3939,3139,-190,566,-1956
1705,7981,536,6768,-507,1196,-319
1706,6647,-7906,4526,-824,619,-692
1707,-5958,2028,-7634,658,1616,-837
1708,-503,6110,6202,410,-1476,-1451
1709,-7405,-1170,-1290,1610,-112,-463
1710,4843,6861,-78,1664,-1572,-1810
1711,2456,-3428,7883,-658,80,-1080
1712,-3297,7407,-6915,1539,-1252,-418
1713,-6517,-610,6083,1589,649,1519
1714,-2723,6223,-2227,487,-137,1153
1715,-7430,-3157,3118,-447,-315,-495
1716,-4547,-1148,-3561,-176,768,27
1717,850,-4872,-878,273,1773,-518
1718,7795,957,7415,-95,-72,-913
1719,6930,-2058,2921,-1759,-625,1385
1720,-7469,-7450,3207,-1234,1602,508
1721,-6240,-6108,-1978,-433,-1651,-1737
1722,-1175,-61,3700,-945,-862,506
1723,-6165,6388,-248,-1409,1099,-1821
1724,-3496,7607,4939,948,-1105,-1475
1725,-7130,6545,1762,-428,-1679,1004
1726,20,7015,6578,527,903,1149
1727,1693,-1472,4315,-530,-934,1623
1728,4908,-3612,2121,-1295,1249,-137
1729,-7426,-7928,6055,-1949,545,-1649
1730,1314,-475,-7436,-1504,211,487
1731,-5454,2548,-2805,783,-758,614
1732,1084,-3915,-1381,1467,-519,-1157
1733,5487,-7697,7434,946,-208,-1990
1734,-876,-3128,6067,-1710,1708,1127
1735,-7600,-6103,1081,-1235,456,1960
1736,4754,7548,3393,381,-312,-1174
1737,-7085,5654,1469,-659,-1325,996
1738,644,-5769,1912,-1604,-1515,1685
1739,-1732,186,-1132,-1118,-421,1728
1740,7578,6692,-2542,-1326,-735,1020
1741,5595,-7449,1823,-1732,-1466,-86
1742,5450,4373,-6140,1869,1626,-1816
1743,-5786,-5521,881,1520,-1871,1035
1744,1163,-5807,1437,-1372,-980,1507
1745,-970,-7655,-7869,1809,456,-562
1746,-1780,5255,4196,1745,-34,1262
1747,3774,222,6019,250,225,-1639
1748,6965,3078,-1640,-1094,1269,430
1749,1860,-3871,6265,64,-323,-1156
1750,-3986,7191,-4024,178,1779,-1307
1751,-13,4080,-5934,-298,1447,-1175
1752,563,-2388,855,-1126,-977,380
1753,857,6255,-6760,-2000,-1921,431
1754,5698,-1984,4520,381,1862,1759
1755,3238,-4978,-5061,-730,-192,-1723
1756,-5880,4705,-2978,570,332,1759
1757,-6118,2442,-3896,-62,-370,-438
1758,1620,265,-7396,721,1690,251
1759,5559,2679,-7659,-672,1368,1043
1760,1963,-5933,1228,509,38,-1387
1761,-3689,-6908,2917,-285,-994,-1001
1762,7299,-1716,7955,503,-1531,1604
1763,-5531,1820,5428,-1429,1748,-629
1764,-6023,-4950,-3605,927,-1474,-120
1765,54,4323,4973,-209,531,435
1766,-7980,3904,7545,-998,-1807,1827
1767,-5016,-2486,-7593,1307,-521,1814
1768,-5209,-7960,-6914,176,-220,-774
1769,-7700,-5799,5038,-1437,149,-241
1770,-4100,-3853,-5066,-1761,774,936
1771,6019,1607,3663,1191,1732,869
1772,-5060,-6723,7575,-192,932,-1075
1773,-6649,4193,6641,998,1336,-155
1774,-6269,-7342,3852,705,743,838
1775,317,113,-2703,858,1786,687
1776,-6516,-1467,3939,1058,1870,859
1777,-5267,5307,-2176,-1213,1553,-862
1778,-500,-7654,1792,-1240,1165,-248
1779,-901,360,6248,-1990,1793,-1148
1780,-4557,3530,3624,-881,1177,163
1781,-6468,4508,-2729,-209,84,211
1782,6346,-2168,3551,1206,1078,364
1783,7004,4486,3480,1044,276,-397
1784,4266,-5350,7018,-1573,-691,-1209
1785,7416,7845,-6896,-945,1874,-1182
1786,-6390,-2702,5893,-1248,-1595,1039
1787,6348,7271,647,-406,-807,-747
1788,-777,2416,4213,253,-842,-709
1789,-790,-2713,5572,1463,-950,-1323
1790,-750,298,-2960,620,-1084,-1313
1791,-5513,-5115,6618,-150,-1720,1075
1792,4017,-7581,1114,73,-581,484
1793,-5341,2418,3755,1339,-973,167
1794,-4215,-3976,4356,1923,1287,170
1795,-1718,2151,-3368,1799,-527,-857
1796,2990,-3436,-1379,-1614,-321,-1782
1797,-6503,6643,-5586,-808,-32,433
1798,7852,-7437,-1652,131,-1869,354
1799,2768,-520,-3197,-1903,1909,53
1800,6586,-875,5371,1864,1383,1875
1801,-3119,7907,-916,999,-532,682
1802,-7402,-6342,-5323,1272,984,-1299
1803,-6017,1906,-298,1683,345,1319
1804,968,452,3506,-585,-255,-1878
1805,1731,-1520,-2064,1012,-1715,-1292
1806,-330,-449,2197,1188,-286,-509
1807,-2607,7265,-6141,91,-766,-1058
1808,1982,1296,2978,905,1470,-949
1809,-1587,3135,-1962,-1096,1623,-55
1810,5431,-591,-473,959,-1585,627
1811,-6504,6307,1405,-119,158,175
1812,-767,-5503,5140,139,-437,286
1813,4161,-2827,-6298,-1730,-1445,1714
1814,-7218,-2855,-2310,-385,-1176,1161
1815,639,3333,-339,-1750,-1315,379
1816,1213,-5753,5688,-1464,-1932,-1500
1817,3545,-4966,-2554,-1199,1067,1259
1818,-3042,-501,2273,-561,774,-109
1819,5714,2199,2997,1479,139,-897
1820,1104,-7713,-6758,1326,1481,207
1821,1607,2810,-6844,-1215,163,-1333
1822,-503,-6655,231,-1326,220,-491
1823,-5210,-1990,5896,1314,-1793,1896
1824,-5788,2396,7363,447,998,-17
1825,7188,4133,1740,-808,111,-1128
1826,3409,-7907,777,1457,-924,-60
1827,-4878,364,-5131,1971,-102,-296
1828,3147,-5340,5540,1866,837,-1365
1829,-4046,-5706,5913,-1166,1543,497
1830,4390,4898,-6101,1798,-413,-1842
1831,-181,-3561,5351,1671,1081,-886
1832,-6352,3578,6260,-778,1094,-339
1833,-3773,-2839,-7676,-648,1221,1844
1834,7035,3484,1728,116,442,-575
1835,2153,1885,990,-206,872,-650
1836,-476,243,-3363,-59,-1145,-1266
1837,-561,-7781,1383,-1582,1174,610
1838,-6315,1912,6628,93,721,-520
1839,5742,-664,-2512,1127,757,1898
1840,7032,-4769,-4288,-1478,-1265,291
1841,-4803,-2089,6938,-1959,-725,748
1842,6301,2722,544,-1749,1595,-508
1843,-4870,-6340,2801,999,1499,-1833
1844,-4190,-2686,-600,-1612,1109,635
1845,-5525,5179,-4320,-1442,-587,-965
1846,-4835,3625,3327,1453,-629,1666
1847,-1976,-3594,-6821,-861,-565,-1059
1848,3237,2839,-5552,-325,780,-1471
1849,7060,-1374,-5293,99,-1114,243
1850,4887,1253,-2881,-1637,-170,802
1851,3201,-3923,-442,-1789,-1262,-1639
1852,-6775,-4589,3711,170,-1868,1310
1853,704,-256,-2071,937,46,-587
1854,-1420,4052,5926,-913,1912,1062
1855,1086,-2844,-2884,438,1555,-577
1856,-7942,-4875,5860,1282,-1681,449
1857,2798,4758,5937,-255,-993,-1329
1858,-6678,2921,-638,516,967,532
1859,-2050,139,-4456,69,180,-517
1860,-7936,-3794,-2177,-847,-112,664
1861,2988,3315,-4193,1904,-389,1999
1862,-5140,-4572,6636,1972,1557,14
1863,2155,-194,-5592,1215,-103,-536
1864,2479,-971,-661,1720,-916,-1283
1865,-46,6325,-3315,-1354,-1213,308
1866,422,-568,-2063,875,761,-1038
1867,-2604,-5443,1051,352,-1769,1040
1868,-439,4420,-6037,1118,369,-1032
1869,-3276,-1057,-2950,1462,68,357
1870,-6124,-4904,6244,1870,930,-1845
1871,-6917,4155,-5079,301,-1682,-1676
1872,-2442,6144,-5882,-1661,-1807,-744
1873,6793,137,-6259,-128,-497,1883
1874,-3093,-1632,6340,-861,1262,-145
1875,3995,7886,185,1704,-538,-1900
1876,7491,7483,-102,-505,7,774
1877,-4209,2169,6807,1250,-1373,-1529
1878,1632,-1076,3533,-709,1689,971
1879,7602,4811,834,-785,-1060,1353
1880,-5160,-5796,-52,1831,631,-1993
1881,-649,-175,1259,-793,-1785,553
1882,1763,-3229,6591,-1378,1407,-670
1883,2289,-5461,6225,-1175,1893,-771
1884,-6617,-6660,-4841,510,1882,527
1885,-5703,-2089,-5622,1207,1824,-1983
1886,-187,7182,3537,-883,-233,-688
1887,4155,6462,-6228,1694,-56,1609
1888,1225,-5638,3537,463,-501,711
1889,-112,3365,-3749,196,1268,-1296
1890,7475,531,-1048,915,-338,-1100
1891,4803,-7714,-5459,789,64,-1851
1892,-4424,567,7893,1315,675,-1440
1893,-481,822,-196,653,-1546,1033
1894,-2262,7997,6786,854,1871,-665
1895,-534,-1235,-7598,774,-1516,-771
1896,-4630,-592,3975,-856,-530,-256
1897,5066,7324,1218,-140,-1782,-1100
1898,6473,2024,4256,1266,-1452,-582
1899,4597,5075,3471,-1268,-1928,1980
1900,-5284,-7774,-2582,551,-1498,-1527
1901,-3722,5752,5284,605,786,-1606
1902,6855,-4938,1493,1892,1791,1624
1903,2942,-3685,2557,1153,1770,-1756
1904,-4181,6064,-6631,-1858,-1519,1514
1905,-6952,-5724,-7167,-893,-373,626
1906,7030,-2927,1701,-617,-1089,-132
1907,4582,936,-2087,665,-1990,-414
1908,1637,-5374,-6998,-951,893,-674
1909,-6492,-6120,-5739,-106,-1214,-1106
1910,-7269,-3646,2615,669,758,-265
1911,-6618,-5867,5222,-1704,293,946
1912,3243,6158,-5096,-1020,-302,-204
1913,2336,-1420,-7006,1784,503,1001
1914,5486,-1167,2916,-1580,1952,804
1915,2246,5011,2041,-1626,-1257,-701
1916,6545,-4888,3879,-1576,-666,380
1917,3073,-4978,5917,-1936,-149,1948
1918,2277,-3758,-82,1304,735,-859
1919,6192,-2806,1254,375,-1311,-1161
1920,6920,-7778,7586,-225,917,-1059
1921,4826,2704,4539,545,91,1431
1922,4970,-749,6463,-1571,-1306,1267
1923,-5538,-247,2263,387,-794,-1841
1924,-4707,-3402,-1348,943,-216,840
1925,2017,2639,-5128,-268,-768,1515
1926,6784,-4435,-156,376,-1101,537
1927,6100,7788,-842,1977,1808,1705
1928,2928,-2210,5099,1899,-971,-918
1929,1861,-5677,-737,1989,-1990,1256
1930,759,1134,-2288,1373,1575,-319
1931,-127,1906,-1176,1931,1286,-572
1932,211,4030,6002,518,-911,912
1933,-1587,-3848,5907,-382,-894,-745
1934,-4158,-4277,2063,-551,-850,1057
1935,1540,-5094,7832,-1709,-1129,-767
1936,-5614,-7981,7132,-1297,1147,-1196
1937,-2929,-3521,-1192,615,-1126,-593
1938,-5904,-6741,-4383,-978,1539,550
1939,237,-3785,1153,-1577,-291,-1072
1940,-5626,5863,-2850,543,10,436
1941,6339,-406,-339,-1433,-541,-740
1942,-5280,1169,-6814,-1121,-511,-1763
1943,-6441,-6607,6318,1962,-1417,-1998
1944,-7294,3609,5030,526,1251,727
1945,2582,-3443,5772,1687,1523,-515
1946,7139,-7421,3522,1576,-1006,1261
1947,6734,2048,6193,947,1095,1487
1948,-1814,-6914,-7067,-1414,1715,728
1949,4223,5818,3220,-1064,1352,1228
1950,-486,7594,-2679,-639,39,1982
1951,6696,-5593,4631,405,454,-1353
1952,4498,-5730,4680,-891,-1928,1705
1953,7902,1584,-819,-795,1179,-857
1954,-5380,-195,4747,1180,246,1626
1955,5807,5055,-7805,76,-71,-689
1956,2962,7460,217,1206,-1722,1985
1957,-4848,798,-7455,1721,1756,-1794
1958,-4016,3217,7106,899,-447,1311
1959,2041,2332,-5970,-644,-1531,-1741
1960,618,1938,-927,-744,-838,1701
1961,646,7310,-70,1894,-521,244
1962,3861,3496,1801,96,-1626,543
1963,-1343,-2990,-7292,-1343,-1525,1493
1964,7995,-6780,4999,-903,7,-1620
1965,329,2526,5579,531,-1473,1518
1966,4482,7101,-5033,-847,987,1862
1967,5577,699,7188,-1013,-696,-993
1968,-4051,-3015,-4284,-1164,635,-1291
1969,6197,2335,4608,203,-1115,-184
1970,581,-1691,-6469,228,-1329,362
1971,2329,-3687,-7042,647,1946,-777
1972,271,-7461,7009,1600,1539,488
1973,3240,2805,-854,1911,-1598,1934
1974,-5229,1838,2206,1317,-1248,-598
1975,-1087,-378,-6478,850,1028,-586
1976,-748,-7243,3534,-1914,1160,-1352
1977,-3087,-3348,3306,-1045,-1605,-1657
1978,-6075,1587,3373,1786,-1384,792
1979,-1323,2904,1879,-961,-1517,-651
1980,941,-7222,-6008,1773,1901,-649
1981,-4551,1901,6298,976,-201,-109
1982,4448,-7146,-6450,799,-585,-237
1983,-7605,-4351,7343,-1889,1089,906
1984,-5397,-7867,3811,-181,1438,-1318
1985,-6028,-6060,3972,699,274,-1411
1986,5764,-7823,5949,-1570,-459,1708
1987,6078,1889,-3539,-1007,-1608,-1149
1988,7170,-2925,-4131,541,440,1953
1989,-5267,-4972,-1626,-273,-1679,-412
1990,4183,4721,-4537,302,111,540
1991,-5977,-1390,-3943,-884,-1105,108
1992,4421,-1438,4948,1307,-1415,1748
1993,7670,2294,2377,175,1415,-1295
1994,-3274,-5580,7989,1686,-80,1491
1995,5276,7485,-5457,-532,586,1702
1996,6354,1035,-7250,1216,380,-595
1997,1630,-4712,7501,26,-1432,919
1998,-7041,141,-7401,-1455,-596,-500
1999,4847,5997,3910,-1023,-1409,644
2000,689,7093,-7403,1811,1745,871
2001,-7639,7852,-3625,1866,1977,-637
2002,4039,6506,-6057,838,449,1845
2003,2962,-6231,5177,1178,1790,-1229
2004,421,-6925,-1251,-1092,-969,488
2005,-7952,486,4049,-56,-870,-1354
2006,4512,5930,-1240,-125,1492,375
2007,-1307,-3661,-6683,1624,1516,1434
2008,7176,5446,4073,1573,-1658,1751
2009,-4549,-6948,3180,616,1107,379
2010,-3253,642,-4224,-1972,287,-635
2011,-2941,-1728,-7243,1502,1615,1421
2012,-765,4142,-6483,991,1737,-709
2013,460,4237,2931,1361,-1386,397
2014,7256,4668,-6812,1904,747,322
2015,6774,-3947,-682,46,-889,-1210
2016,5047,7792,5723,42,-1195,-1049
2017,-725,-1957,-6970,1816,-413,-837
2018,-5976,-3557,6258,562,-699,788
2019,3116,-447,6713,892,-416,-1729
2020,-6755,5090,4939,-181,-1633,1358
2021,1486,5779,-7996,-1019,1185,-36
2022,1985,7103,3756,528,-56,-1955
2023,607,4682,-4513,20,630,-1587
2024,2487,-3828,-4708,670,104,138
2025,-7377,424,2645,1395,-503,-926
2026,-616,-805,-1788,-1368,888,-671
2027,7046,2397,-945,1176,-1731,-1946
2028,2180,-3356,-7182,-1465,1845,-1874
2029,3886,-4069,-179,847,1203,494
2030,1012,-3910,2536,-1685,-512,1409
2031,-2212,-5447,-1150,-175,148,-93
2032,2469,-5760,-3636,-966,-746,-652
2033,6674,7379,-6705,-1570,1059,1305
2034,7806,-6969,-7472,-40,1562,-396
2035,-1899,-5233,322,-51,586,215
2036,4844,67,-2193,-761,-173,-773
2037,-4756,-7418,-2371,-1949,101,-986
2038,480,-4136,4844,1837,376,-1477
2039,6966,7605,-4062,-928,656,576
2040,-5119,-3865,-4400,525,-236,-1874
2041,2894,-1268,-2975,-1193,103,-1863
2042,-4814,2447,-1593,520,408,995
2043,-2557,-5320,1674,-947,-526,1201
2044,-6379,6081,-4472,121,1917,1370
2045,-1789,-2595,6764,1364,-757,-1042
2046,5694,6391,-767,1696,509,-1149
2047,-1979,-1203,2515,490,-945,1882
2048,4673,-5543,-5351,871,427,1025
2049,6418,7574,7795,-1248,1319,-1591
2050,2741,-7383,5725,1436,-1402,-594
2051,6930,-136,-3326,1384,895,-979
2052,-5009,-7597,2571,-1488,-335,1916
2053,-6235,-1829,-6464,-576,-101,-1141
2054,2533,-4186,-5347,1334,467,58
2055,2070,7391,-6596,874,-1388,-1682
2056,-1301,1025,1566,422,254,-1117
2057,-7068,4385,-6737,1702,125,999
2058,-2223,2930,3844,1410,-1194,-334
2059,-4639,-7903,658,-1006,-717,-1171
2060,4961,936,-3737,-892,447,-1375
2061,-847,4844,-5732,-1800,1715,-281
2062,3808,5857,2545,-1684,-1879,-306
2063,5147,5429,-3427,612,-1948,1477
2064,7902,1590,-1678,-619,1900,772
2065,-4420,-3400,-7607,1222,386,-476
2066,-4016,-5799,1977,-1623,-1439,-432
2067,6065,70,-7015,-1165,-267,1444
2068,6842,145,-5914,829,-630,-1154
2069,2588,238,5518,-1834,1470,-1117
2070,6216,6162,1475,609,-874,862
2071,3452,235,-7277,146,43,-189
2072,-2048,-6137,-6994,-1126,-1567,313
2073,1070,5854,2569,-911,975,1224
2074,-3361,4007,1790,1599,-89,-156
2075,-4936,-883,2344,-1031,713,1318
2076,3455,7925,-2668,1963,-285,-155
2077,-930,-5077,5204,-872,-1372,285
2078,449,-3932,-5566,963,945,456
2079,-3501,-5320,-6907,557,1695,-1571
2080,2821,-1540,-3520,422,1480,1083
2081,-5888,4047,-326,-640,1820,944
2082,494,-7626,3,-1282,-118,495
2083,-3765,1020,6176,-730,783,-1318
2084,-867,-7538,-2344,254,-940,-99
2085,926,7506,3578,86,770,1403
2086,3288,5177,4874,297,-53,1524
2087,-3888,7810,-2864,1163,-883,805
2088,6678,6582,3249,-822,-1556,583
2089,5169,356,-4171,289,-683,460
2090,-4706,-3907,4141,1308,-315,815
2091,5228,-7574,3925,324,655,1430
2092,-7795,7653,3167,-69,-603,-329
2093,927,5859,-6681,-1044,-309,-1925
2094,3009,-675,-2832,-1113,1968,-1565
2095,6574,2426,-3187,1844,-1342,1027
2096,6856,1579,5557,-1568,1533,-1416
2097,3200,-6119,7431,167,-1033,-743
2098,-7868,6844,-7652,1471,-1486,969
2099,-359,-4253,-1637,-1043,1299,-593
2100,-2026,6116,-4732,-1315,1484,1442
2101,-7028,-2006,1309,77,1025,-530
2102,-4377,3488,-6549,-1898,-746,1693
2103,-7108,-3962,-5155,-1859,-324,-1145
2104,4767,5069,-417,818,647,-1237
2105,7915,-3824,-4186,-1874,9,92
2106,2296,-5467,1213,339,278,-1302
2107,6638,2934,4728,-362,-1443,-1900
2108,3839,4026,-4419,-881,529,137
2109,-887,7422,1535,1209,1017,-1372
2110,-1128,5819,4678,1842,-286,-1348
2111,-90,1740,3383,-1689,-627,1644
2112,2277,6429,4018,-703,1489,-1471
2113,7055,-1248,-3013,-100,617,1674
2114,-6475,-3939,-7291,-1745,-1411,-1494
2115,-4510,6948,-1901,101,-1134,-323
2116,5852,-5966,-245,1783,-86,418
2117,-3298,6363,-2995,1918,808,-649
2118,-5329,2385,523,-1057,1362,-1704
2119,-2322,1208,4231,-272,1611,-658
2120,3897,411,3745,228,-1787,1599
2121,3797,-7009,7428,1149,-113,-1649
2122,3649,-5954,-4300,-407,-39,446
2123,1092,35,4619,-1336,-1735,-846
2124,-2267,5877,-3866,95,-1123,1716
2125,6452,4257,1244,-1074,304,-483
2126,6345,1284,6972,-824,-186,578
2127,-5604,7441,7776,814,1058,-1200
2128,-341,-4570,2085,1986,542,319
2129,6374,7052,1074,-454,1339,-886
2130,-7835,3729,-5056,904,-1386,121
2131,-4372,740,-3201,61,-1649,-941
2132,6582,-3706,-3811,1920,-1869,1980
2133,-30,-4711,5952,1880,1356,1081
2134,1327,5200,5037,-1829,646,-312
2135,5740,2646,-7941,-1272,-1239,-1586
2136,-3799,1077,-835,1561,1766,-1344
2137,2469,2169,6908,1942,1909,1919
2138,6984,3653,-5261,-707,1839,723
2139,6189,1913,-7407,1572,1986,-1374
2140,3814,629,3098,1034,1806,798
2141,6171,-6007,7267,-1886,-1181,-1258
2142,3587,2257,-7801,966,1737,-902
2143,-256,-420,-1817,-187,415,1783
2144,2014,-1812,5894,-555,1032,-823
2145,6619,1003,2328,1688,302,469
2146,-1544,4108,6307,894,1029,-46
2147,7865,6581,2817,1349,-460,-148
2148,-7933,7251,6145,1893,-69,-636
2149,-445,1214,-2078,1524,1932,-776
2150,-3914,5650,1962,-1431,-1664,-333
2151,3229,646,232,285,797,-1442
2152,-411,-5767,3061,581,325,1902
2153,5845,-174,-5426,798,911,1024
2154,-5489,-163,-3530,934,-598,1550
2155,-6859,7830,-6365,577,715,51
2156,7870,-2075,-1744,-1797,1636,-461
2157,-2037,1165,-3608,869,95,-607
2158,-3145,-2478,-6673,360,-1273,1634
2159,-6486,5205,196,-1907,984,-1420
2160,-713,-6585,5256,-493,1446,-1137
2161,-7370,777,-5987,-1834,257,1074
2162,-870,-2092,1693,138,1081,924
2163,5599,-4983,2742,1837,-257,1022
2164,-222,494,6195,1774,-354,695
2165,-3120,-59,-5567,224,-717,1659
2166,-4677,-416,5211,-1336,629,-1439
2167,-3364,3291,4475,-1235,-779,1802
2168,6292,-7897,-2874,-1149,1964,-59
2169,-7389,4692,-3134,228,-1546,-1941
2170,920,-5113,1693,-683,-435,1346
2171,983,-3744,506,-1706,-1819,-1969
2172,2255,-7049,1286,333,1606,660
2173,4838,-5102,-3578,701,1331,-388
2174,6682,86,-4166,-863,1298,1567
2175,5692,-787,6797,146,-157,-1687
2176,-5492,-1080,-1452,1540,-1766,-591
2177,1312,1484,-5834,-1605,-1948,1909
2178,-4876,4091,-5501,238,-1426,-1586
2179,-4900,3957,-3916,-146,844,-224
2180,-6759,-2757,-1933,1205,-1043,1189
2181,-1732,-79,7956,651,429,-1145
2182,-7883,-6381,-4091,-6,171,-1042
2183,-3108,-981,1514,982,-1435,-175
2184,-6852,-6736,-6879,1564,1420,77
2185,357,-1416,7115,198,-1582,626
2186,-4247,108,3215,-425,-1839,-1147
2187,3550,6848,-7077,212,-349,1100
2188,-153,-370,-7665,-1623,673,-392
2189,5139,3659,5343,1738,-1295,-265
2190,704,3111,-3132,158,-1780,1945
2191,-5870,-2162,2734,-1305,421,1462
2192,-3690,3979,-4573,628,1081,-925
2193,3414,-3574,-3984,-1398,1962,1440
2194,-7296,1806,-666,-1550,-934,1732
2195,5456,1698,-2257,-568,-1406,-1519
2196,-1630,-5315,415,381,645,1283
2197,-2188,7045,-7681,372,-1559,1572
2198,3185,-2944,-7268,1014,537,598
2199,7899,5532,-5986,1073,-1371,-281
2200,617,-4502,6207,-1590,1254,-1035
2201,6362,-6777,-276,1644,-1176,-158
2202,-2163,-6168,3486,1713,-447,-522
2203,4241,1919,-2562,1228,235,1504
2204,-2072,569,216,-1163,28,578
2205,-7477,642,6812,1353,-1262,1225
2206,5675,7187,-7840,1002,-928,1343
2207,3081,-2859,-5755,645,878,1954
2208,5881,4560,37,-81,1236,-251
2209,4675,-1389,3375,606,619,1770
2210,-2590,-3094,-1353,-1006,-1743,552
2211,1812,4437,3378,494,1927,77
2212,-320,-5114,7003,-1297,-995,1001
2213,2730,3021,6886,577,-134,862
2214,3134,6504,-168,1267,-722,1445
2215,1109,350,1174,1529,-291,-973
2216,-4723,-1202,-6493,1809,-946,444
2217,-5673,2852,-4058,-1332,1479,1609
2218,-1317,480,-2456,-1080,-1319,1701
2219,5051,7997,-3519,188,-214,297
2220,6097,-7156,5074,-1441,-650,-360
2221,-5845,-3754,1251,1781,871,84
2222,2509,-1928,752,916,-410,-1104
2223,-7707,7594,-32,-741,-911,-1302
2224,-3153,2065,1996,458,620,1919
2225,-961,-7253,-1402,1796,-296,54
2226,-5017,7058,-6247,-1192,1518,-1857
2227,1550,-6473,90,1911,418,-1648
2228,6412,5438,3797,-163,-157,-1550
2229,-2413,-3407,-4055,-349,1496,-244
2230,1371,-5755,-2560,-796,184,-906
2231,-2937,-4182,6229,-602,420,1889
2232,7328,7076,6690,1203,119,-594
2233,379,-5775,7485,-1067,-1458,1929
2234,-4726,723,-5737,1063,1193,-1951
2235,-2660,-2746,6190,-617,-993,1347
2236,4857,-4434,2457,1350,-1945,-509
2237,-3856,81,2727,496,1780,1284
2238,1619,2265,-6627,1431,-1728,1884
2239,-3583,-7733,-4461,801,1450,-1269
2240,-6425,-7175,-4430,544,-30,398
2241,-407,5854,7955,1051,1824,1649
2242,681,-4063,-1132,-338,-776,-964
2243,6603,-7893,-4335,-449,311,-1942
2244,3465,-5535,1662,-900,589,1137
2245,7859,-218,-7455,62,704,1400
2246,5712,-4056,2799,-1036,-54,1134
2247,1887,2210,-3128,-199,430,1885
2248,6093,-4509,4163,-1796,-463,863
2249,-404,1327,6913,1170,1476,1845
2250,3246,5546,-7054,936,1947,-1449
2251,4500,-2275,7925,-644,322,-1016
2252,6120,-7699,5890,1264,-887,1185
2253,514,5046,-86,1040,158,242
2254,-2600,6418,777,1950,538,1646
2255,-3458,-2078,-5247,1776,1260,-438
2256,-3501,-4608,2494,-1086,601,795
2257,2979,2707,4887,693,283,272
2258,-734,4259,-1367,1736,-1457,-1507
2259,-7726,-1133,977,1802,514,124
2260,-5340,5551,-2943,-681,1217,790
2261,-7969,2185,-7496,-89,-505,-1370
2262,6137,2638,1844,-1091,-300,1360
2263,-310,1334,-2281,595,972,998
2264,4190,4341,824,-12,347,466
2265,-3895,-458,-1433,947,511,-164
2266,1349,-6929,1066,-1879,613,-773
2267,-6435,-1372,-4637,-1678,1812,164
2268,-7901,-6652,-3947,-1595,-374,-1628
2269,5147,-593,3403,-1348,-608,-1559
2270,7426,3623,-6740,-727,-1190,956
2271,7173,7765,-2898,1149,-579,-359
2272,-1922,3254,764,78,-1618,-485
2273,-3831,-3102,7622,-852,1709,815
2274,-975,3889,-637,1089,761,1379
2275,649,838,7306,770,-130,-1384
2276,-3042,-7242,-732,-1112,357,1755
2277,4323,-2164,-5732,-787,1549,1465
2278,-490,-4975,-6372,1110,642,-451
2279,6861,-7416,-1319,-794,274,-737
2280,574,-3140,2034,-1439,-1906,665
2281,1034,-5974,-6538,-1490,-1936,-972
2282,5694,2765,1011,-852,-535,-1553
2283,-558,4551,-7567,-1787,-16,38
2284,-2191,-5704,-7638,81,1946,1900
2285,5642,-4343,-6823,-38,-522,-494
2286,3134,1914,-7712,826,286,122
2287,3337,-6411,-2743,-1025,122,457
2288,-2108,1369,-7230,-1679,-592,1954
2289,-1480,-55,1440,1039,-106,-900
2290,641,-6960,-7223,1255,-1510,386
2291,4771,4155,4259,-457,-1821,1658
2292,3871,690,-7007,122,-1713,-1509
2293,6955,6252,7530,982,1152,1588
2294,2309,-7278,1255,818,-918,-653
2295,-6027,508,3280,363,-1537,985
2296,-4886,4702,5821,-680,1370,-1718
2297,-7643,-3293,-4588,-734,165,454
2298,5165,-6778,-5646,-1679,559,-401
2299,-4002,6348,588,-1644,-40,269
2300,2184,-625,3190,-1517,-1691,668
2301,-4378,-3262,7661,362,1718,-1410
2302,7075,1322,3837,-220,-906,-1592
2303,783,3670,6969,471,-795,1933
2304,6876,5965,3234,-753,-659,-1700
2305,7910,6046,2955,1310,-517,1589
2306,6318,5145,-996,-76,1396,-156
2307,7045,2565,-6929,-1126,-1412,-76
2308,6278,2489,3396,-1736,616,-805
2309,7942,-2505,2042,1090,-842,-179
2310,1366,636,4001,1645,277,-244
2311,-5986,7621,6606,1839,-1561,1619
2312,2169,5684,2644,-454,-1001,965
2313,-486,-1882,-3782,-1763,-1800,-1183
2314,1097,-7975,994,-186,-1135,1821
2315,-2618,-4437,-2551,245,-1972,878
2316,3822,-1614,-6100,-1140,1283,-1852
2317,4344,-2137,6541,683,1237,1345
2318,-1751,-3565,-1540,559,626,632
2319,6124,-917,-5937,772,852,-257
2320,-1745,-3534,5463,831,962,1206
2321,3380,-6497,-1201,-222,768,1366
2322,5212,6582,5334,58,1616,1265
2323,-2497,3376,-5818,171,917,1433
2324,-7265,-5767,73,610,146,1774
2325,-4581,4996,3377,-341,-1381,-1619
2326,7399,-7285,4741,-1105,-1580,493
2327,7222,-1707,5098,1891,427,1046
2328,409,-5786,-5214,1333,-614,-1549
2329,3454,-6913,5446,-1249,-60,-127
2330,254,-662,5782,-1634,199,1213
2331,607,882,-2038,1110,1584,-977
2332,-6306,-4341,1233,-1268,588,1807
2333,6597,7331,-1449,1505,-870,-537
2334,-6736,500,-416,-1561,-1979,1111
2335,6016,7648,-333,-1400,-234,-1241
2336,-5325,7119,-713,935,80,-587
2337,1697,4562,5280,-63,-369,-432
2338,-6839,394,-443,-1479,-1576,39
2339,-5461,6416,-4877,1619,-1110,1740
2340,3104,2259,2172,541,1127,918
2341,-3403,5966,-4552,1841,1664,-1728
2342,-1520,4660,6515,773,284,1900
2343,1437,3473,-4783,-439,1610,571
2344,-2866,566,-6340,-573,-217,1836
2345,1001,3579,7002,-1612,947,-1484
2346,-4380,-1404,319,-539,1810,-920
2347,4847,767,3091,-263,1617,-1018
2348,-897,-5054,-7055,-296,440,876
2349,-718,-4566,4938,1780,1738,-859
2350,-5263,-6110,-1046,-665,726,-170
2351,-2718,-5014,3239,-852,285,-402
2352,-4737,-6233,-425,-80,1219,-302
2353,-7338,-4410,-2979,1794,-355,-655
2354,-1232,-2386,950,-307,427,183
2355,262,-2219,3847,155,349,-1725
2356,7581,-2176,-2965,134,-113,1621
2357,-564,-3229,7646,-479,212,540
2358,-6862,7397,597,625,-1210,-236
2359,6030,4120,-4506,417,700,1594
2360,7585,225,6226,-377,-621,-1776
2361,5991,-7223,-2658,491,1642,-210
2362,6620,1432,6628,284,-1185,113
2363,1319,7258,-7120,-1056,1442,1973
2364,3017,-6492,2225,1933,1893,918
2365,6204,-565,-3089,-411,1709,1032
2366,-6406,-7353,7223,-1735,-997,773
2367,471,520,-744,-1089,-866,563
2368,-5091,1375,-2286,-1281,729,-1282
2369,3003,-621,6128,1866,-241,410
2370,-5946,5163,5603,548,1060,731
2371,-2895,4259,6845,-1647,1584,1909
2372,-3974,760,3663,-1958,654,1521
2373,1041,-3416,7250,36,-1653,1873
2374,-3515,-423,4385,-1982,-375,-909
2375,-1348,1773,5289,961,-580,751
2376,5993,4605,-1042,-1335,363,1496
2377,-6877,-7958,-6189,377,545,-918
2378,7022,-4746,-864,-946,1411,-1823
2379,964,-1463,-7878,376,-1088,1643
2380,-1885,3989,4075,527,800,-121
2381,5130,7785,-520,261,478,-882
2382,-1093,-3174,6869,-72,-108,-1837
2383,6609,-3658,-3303,1707,78,-70
2384,-3294,-113,-149,-1929,-123,-568
2385,-4780,2145,-7946,-1663,68,1019
2386,6351,6933,-6440,188,1580,590
2387,-6528,7683,-914,-790,-1616,-734
2388,6653,3910,-5684,961,891,-597
2389,6448,2640,-4000,-1918,474,-344
2390,-3353,6406,-4363,1831,1520,1516
2391,7583,4024,1189,-1444,-472,1370
2392,6627,-1823,6646,-1693,-819,528
2393,-7466,3555,5575,-1853,1373,-798
2394,1035,1374,-6078,1995,-1284,292
2395,-3701,3015,-2292,620,1417,994
2396,-5858,115,1224,674,-841,-462
2397,-700,5439,6787,789,-1761,-565
2398,-1276,-5717,4726,-15,1253,-1011
2399,7295,2336,-6861,203,828,-1439
2400,5996,3146,485,592,875,-97
2401,-5302,6462,5199,-1618,-1307,-809
2402,-2167,-5512,-7725,67,794,-458
2403,1883,4585,3300,-1471,-546,-703
2404,-1810,3830,5433,-1544,511,-1960
2405,-4086,-2967,-6050,-1035,1532,-904
2406,3073,-5841,4751,975,-746,1801
2407,2766,-206,7748,1402,1148,-1041
2408,-2911,4232,2237,1332,-592,-1408
2409,3631,451,5759,-316,-1190,231
2410,-1667,-7762,4168,-1747,-894,-639
2411,2720,4330,5197,-1161,-1586,-1698
2412,-7349,7465,2907,1513,1837,-848
2413,-6181,-4058,-822,242,-38,-1260
2414,6788,-6678,-4962,-1757,-1047,-1519
2415,-3060,1118,-281,1760,522,-653
2416,7111,-2345,3776,-1194,1129,1618
2417,-5682,3218,6186,-1440,1355,1650
2418,-6767,-2858,-6,125,1976,1568
2419,222,1941,3352,701,-1749,1321
2420,2613,3239,-5831,-1482,1653,-366
2421,5841,-7719,415,797,1425,-1847
2422,2805,-4934,-7237,-468,1505,682
2423,-1563,-476,-153,-1965,939,1153
2424,-6235,-507,7161,-623,1714,-934
2425,7337,5197,-5156,-1591,660,-1150
2426,-1796,-4536,-746,621,124,-1957
2427,1214,-7249,-237,-1508,-1181,1438
2428,4012,-5154,5831,911,-961,-578
2429,1235,-2620,-7687,-413,-1534,-1560
2430,-5044,-4685,417,-957,534,-116
2431,6607,6035,-3494,1513,-1691,-335
2432,6070,3920,6154,1263,-1840,548
2433,5532,-7650,4940,1213,468,-417
2434,-7018,-5243,-7794,821,-1219,1106
2435,5132,4339,-3484,1885,-1428,40
2436,-1673,-7679,-1259,747,271,-1687
2437,-3914,-2319,-4329,-845,-94,1944
2438,5359,-7013,-5976,46,-213,355
2439,4071,-7523,6887,-1220,1162,1325
2440,7685,-7628,2664,-846,-1164,1092
2441,2002,-896,6245,-1020,-1560,1014
2442,2547,1510,-5783,1448,613,-1941
2443,-1433,1180,4637,155,1941,588
2444,5215,3414,6358,775,-738,749
2445,1138,-7276,6307,-1256,-1248,156
2446,7098,462,-2483,1737,-203,-1462
2447,12,-5664,3513,-1305,892,-134
2448,-7482,3647,3172,-258,0,1116
2449,-5234,-5748,5094,-1916,-1778,1173
2450,7285,5510,-227,-369,-7,1720
2451,-2825,7271,-6757,272,1655,176
2452,5678,-6678,-5922,-1642,834,1922
2453,4212,-7027,2316,1037,-1162,-886
2454,-1997,-559,-7975,-389,-34,-1072
2455,523,-7391,2712,-1264,-1664,1269
2456,2273,-7052,6698,-61,-1746,-400
2457,3829,1182,6802,-697,1209,254
2458,-19,-6424,-1395,-1289,-128,-1342
2459,614,-7314,-3510,-1153,1152,-1738
2460,5577,-4170,-2002,-1233,-1374,-806
2461,-4188,2684,-4025,277,-106,-934
2462,-7056,-3112,-1957,642,-490,-1116
2463,4,3076,-6559,-1914,295,-1074
2464,1353,5907,-5156,1218,1164,-1298
2465,-1380,3156,5450,1260,-1343,-1573
2466,-1383,6007,7395,-1818,101,-1641
2467,-3686,6829,758,-1499,436,-1871
2468,1044,2256,6663,1704,-703,394
2469,5994,-3721,6752,-363,-186,-1313
2470,-3008,1755,-627,-1441,1322,-865
2471,6719,-6769,6676,238,166,1464
2472,967,-3303,5204,255,-765,-1134
2473,-4390,-4875,3772,-88,-954,1387
2474,6065,1765,-6613,1345,-444,-1986
2475,664,887,6679,248,34,-248
2476,-3630,-3149,619,-822,-1865,1839
2477,2250,2268,-1887,1250,-304,-24
2478,543,-7956,-1565,-146,-771,-575
2479,876,287,-3356,-1215,-1826,1803
2480,7843,-3542,-3918,1913,-295,304
2481,339,-3140,6098,1884,-1464,-1280
2482,2608,-4472,4646,478,-534,675
2483,2861,-2296,6791,-1742,-527,-72
2484,-6517,-5527,-2166,-220,942,1914
2485,-4965,-5619,-5192,-400,1695,-709
2486,-5034,5203,798,-1356,-1316,-983
2487,7656,-2595,-4589,-848,1222,267
2488,3840,-1439,941,-1596,901,187
2489,-6565,-1096,-1173,-1879,-1176,-547
2490,-7959,897,5406,1085,1619,1046
2491,4915,5766,-4631,1379,-484,1021
2492,-5089,7701,6573,830,996,984
2493,-5906,7,7633,-544,-11,1419
2494,1717,4979,6407,635,-1030,-368
2495,-6519,3266,3229,377,1419,-972
2496,-3574,3582,-2235,-540,-1822,1942
2497,5056,-7816,-561,-1657,-1502,-260
2498,3585,7008,-2123,1012,-1757,434
2499,4490,-4511,-6449,-1135,-427,309
2500,1814,-3921,3688,-130,-106,16
2501,-1453,1428,4875,-1528,161,-235
2502,1700,-5261,-4994,1452,-1353,492
2503,-1324,5558,-5109,-1049,993,-913
2504,-53,2197,2675,-63,-116,-975
2505,-599,1293,-3217,-404,941,541
2506,-7740,424,5676,1781,-1102,-1733
2507,-6207,-3571,3195,1179,-1921,-1932
2508,-7829,-275,484,538,-1640,1787
2509,7746,-1491,4692,1642,769,1543
2510,1058,-23,2026,-1004,-1916,1397
2511,-1186,5463,1295,-534,1597,1523
2512,2276,-269,-2633,-172,-1144,-1111
2513,1939,6876,-4641,1439,349,-19
2514,7793,-3367,5929,-1697,529,1471
2515,-5667,-96,6121,1451,-1876,1440
2516,-2713,4732,5403,-187,-348,1424
2517,-7317,560,-454,308,-1712,-1431
2518,2892,-1217,-5055,930,-1969,129
2519,-5105,-5229,-5920,-1770,-266,-1846
2520,3482,-6511,7909,-1281,1965,-1465
2521,3504,1262,302,997,1552,-399
2522,-1489,-844,-3882,253,1139,-1284
2523,-1385,1163,-5925,-878,284,-1958
2524,-4471,1114,-4863,1874,66,-802
2525,-5110,-7517,-648,-903,-123,-305
2526,-2804,2557,2222,-976,199,514
2527,-3536,-222,3999,1032,-1727,-657
2528,4964,6322,5542,-362,-1327,-1687
2529,5150,-64,3847,1739,-1502,-67
2530,5667,3446,-5987,-1545,-1273,1785
2531,359,5980,1437,781,497,-1677
2532,2113,-4814,-3079,-1262,1083,-463
2533,-6786,-7723,-1419,-347,-772,566
2534,-283,-4935,6804,-458,1176,1641
2535,764,3,-1063,681,277,-475
2536,6588,6820,3674,-231,990,-1505
2537,-1580,-3951,4732,610,-1724,-231
2538,3338,3933,3229,1391,-1971,-444
2539,-1163,4513,-6061,-852,1683,-306
2540,468,-5736,3084,-307,-892,1804
2541,992,7676,-7320,-858,-163,-580
2542,-3598,-2229,-4213,573,1813,-1441
2543,2266,-2607,-1209,-967,-701,907
2544,702,-4452,5258,-172,78,626
2545,1463,-1940,2839,-1497,497,582
2546,3869,5,2339,-1826,198,1556
2547,2973,2020,-4225,-341,-639,-1274
2548,-5068,904,-3800,1137,-1210,713
2549,-573,1063,-3442,630,195,167
2550,6515,1430,-865,1776,265,1880
2551,7827,4492,-3902,969,383,1445
2552,1235,991,-1182,1217,113,1990
2553,4726,2173,4559,1724,111,271
2554,20,-1876,5619,-183,781,717
2555,7910,984,2362,-176,1933,312
2556,-6130,1026,5630,970,1305,1384
2557,-823,1146,-5047,1790,1987,229
2558,793,-5657,6435,1415,-1185,-1293
2559,-758,6876,-10,-1030,-1906,1071
2560,4576,-3185,-1244,-1152,-1690,496
2561,-4836,-6318,6523,-1940,176,1939
2562,-2254,1742,-3280,1737,779,1643
2563,-3528,-180,1882,765,1516,-1047
2564,-6867,6125,261,-1182,26,-377
2565,6616,2109,-5075,1411,1076,1665
2566,-5480,3754,1143,-1265,-702,1746
2567,6179,3646,-4030,-520,-1456,-1025
2568,-4733,-6657,6920,679,850,-3
2569,1327,6759,-3544,-434,-1632,-1918
2570,2867,4412,-5114,1235,582,1949
2571,2194,-128,3451,-1533,-37,-1998
2572,1980,7082,-905,-865,-1218,1950
2573,-1356,-3230,4178,-1239,1495,-1262
2574,3795,2587,6210,1873,1289,1972
2575,1258,5793,922,344,1323,-541
2576,-4069,3895,5568,-220,-40,-1972
2577,-1639,4565,-6673,1585,1432,-1880
2578,-6227,196,-2388,426,-1284,1276
2579,-7320,-1382,1002,3,-408,-1760
2580,1400,-7461,-2663,1891,-1260,1467
2581,-6253,-6275,-7657,1028,1105,-1921
2582,3558,-6333,-3536,-1475,-1784,-1621
2583,2627,-3260,-2336,1170,1327,-1485
2584,-847,-6180,-1488,-1484,1590,1036
2585,7572,7637,926,-1161,-193,-1477
2586,-6627,-2171,2566,1097,353,778
2587,898,-3227,3644,-1462,1637,47
2588,5955,2566,6317,417,-1841,-81
2589,4907,-743,4722,-9,-1124,1611
2590,-1700,-4974,5280,-1230,-1539,1844
2591,-7614,-4433,-4170,-640,-396,1749
2592,3931,5882,-230,1167,1167,763
2593,4094,7842,-1787,210,1077,1261
2594,-5067,2701,-3864,-59,224,-396
2595,651,6501,-6119,122,1406,-1736
2596,6192,4596,6063,1395,-834,585
2597,5053,6977,1834,360,1886,-476
2598,2393,-7993,-6979,-1252,1269,-1820
2599,3189,-7130,105,220,1639,583
2600,-720,161,-780,421,-696,-780
2601,-3918,-1267,4229,-711,1467,-16
2602,2373,-6864,-3051,-1299,-1310,-1884
2603,-6340,-5093,-5828,-1430,-1529,-1878
2604,2302,-6934,7305,1056,-1965,-1683
2605,-1118,-7439,-1624,1601,1247,-1150
2606,-7853,-7595,4893,1988,1841,-370
2607,-5109,6750,1429,-1305,-1500,-948
2608,-5417,3590,1148,738,-1685,201
2609,-3889,-5847,-1480,-397,1421,-733
2610,-92,7990,-961,179,-1679,-1336
2611,5851,-7817,249,-550,661,-1541
2612,-4395,3072,-7459,-829,-173,1222
2613,7080,1343,-5930,1302,225,1595
2614,-686,6146,248,-1115,833,-296
2615,-6586,-6869,1353,-210,-422,-1634
2616,-257,7444,3541,1068,237,-715
2617,7779,-1339,3718,-230,1153,-1373
2618,7031,-4554,3324,371,1485,742
2619,1915,6918,-3136,1918,-185,-825
2620,5381,159,3349,1632,1820,385
2621,3642,-6782,692,56,-202,1086
2622,-4242,7276,5722,107,725,597
2623,7842,6036,-4983,1158,-177,1514
2624,-2152,5164,1680,948,-928,-594
2625,3623,-1481,-6152,-1748,-588,-1976
2626,-2578,3162,6436,-1174,1028,-45
2627,1622,2316,1902,1694,-1907,774
2628,3642,-3646,-1268,-423,-254,505
2629,6994,-910,-975,1089,1596,1931
2630,6299,-2336,-1304,-800,670,560
2631,2124,-2318,7701,-504,-1576,1369
2632,7266,-3090,2208,-1310,493,1479
2633,6228,-2438,4653,215,1506,-1156
2634,-1335,6135,-6869,1936,-1072,-793
2635,-6270,6139,1532,1502,-529,-975
2636,-872,-4186,3550,-336,588,-1650
2637,-854,-2130,-5296,961,252,1548
2638,5845,1671,-2447,-230,-287,-1397
2639,-1021,1734,108,-1104,-354,-742
2640,-6458,4838,6702,-1756,-211,-540
2641,-4539,-5865,-4460,-384,-1068,-225
2642,4227,-6058,-398,1667,-601,-1938
2643,-7183,5840,679,713,-857,1388
2644,4135,2308,-6085,-783,-743,1144
2645,-958,4094,-3855,775,-932,-140
2646,-7978,-7311,-1991,-499,-769,-454
2647,4341,3959,-5096,1372,-273,1886
2648,5098,-7233,-283,1345,-1541,-211
2649,-2044,4690,2899,850,1334,-36
2650,-3353,7918,-7346,939,-1039,760
2651,-5367,2197,76,-1039,-1009,-224
2652,3223,919,-3516,-1476,-1,-270
2653,4877,3448,-5084,-295,-130,784
2654,-5169,-2971,-5166,135,1701,1354
2655,7834,3362,7035,1293,1196,-892
2656,2815,-731,3616,1170,1688,1645
2657,1515,3604,-4050,253,1178,-970
2658,-2748,-2400,6822,-724,868,-1089
2659,-5839,1342,-606,-1448,-463,1812
2660,-3525,-1324,7615,1842,1978,722
2661,-7977,-3717,6065,1811,373,-597
2662,-2440,-5108,2940,-916,-1208,-901
2663,-5736,-3069,-3523,-1533,-1365,-195
2664,-6462,932,7191,-60,-628,-1633
2665,-7622,-6928,-3124,-97,1140,356
2666,-1606,-7226,6541,-1441,-1352,-89
2667,-2290,-7167,-2132,-900,325,-1992
2668,1158,2099,5782,-1283,-180,47
2669,-947,4957,-7201,1634,-776,526
2670,5331,-7079,6572,-194,-1121,-587
2671,-5363,-7585,6639,1166,-1196,616
2672,-777,3774,2126,1557,693,-18
2673,-425,7940,-7508,807,-1816,-1910
2674,4839,4123,-1458,1137,-636,-1949
2675,-4804,-1752,4685,-615,-111,951
2676,-5225,4047,-3869,1119,-1387,1462
2677,1879,-1516,1510,-526,-517,1867
2678,2787,-6637,6543,303,348,-1000
2679,-6133,-5705,-1165,-1839,164,-1439
2680,-4873,5602,-2587,1434,742,321
2681,5587,4254,-5341,786,1809,1406
2682,3921,7552,-4039,-1958,-659,164
2683,-3304,3934,-3073,827,-212,-760
2684,-7332,7998,529,973,-1341,71
2685,-4502,-2583,-5411,1641,-497,56
2686,6161,-6306,-1991,-980,1053,-1256
2687,2466,2762,7627,-745,-724,946
2688,6038,4793,2692,950,284,1100
2689,1066,5104,2801,1562,-327,-1891
2690,-3101,7338,2667,-1689,-927,972
2691,5276,-3070,-3017,25,-1916,1376
2692,-3487,2268,-6230,-1012,1167,793
2693,1271,-2090,-3301,-808,-1914,1192
2694,-5561,-298,-6310,1768,-737,-1139
2695,-5207,6786,-4835,-800,-189,1783
2696,3596,-7224,7926,1932,-59,222
2697,344,-6397,1901,-1647,-821,-413
2698,-7963,-2027,1049,-1186,204,-843
2699,-7781,7539,-2980,748,-1357,-1762
2700,-1022,5330,-2262,-1851,-1311,1416
2701,-3855,-4999,-291,-1684,12,1950
2702,5682,3104,6943,-355,1708,-294
2703,-7557,3489,-2708,1458,-460,1469
2704,-3631,1372,430,-1047,-971,1015
2705,1229,-3072,-6175,1837,1833,1605
2706,-4564,3991,4412,1326,-1097,-156
2707,1968,2829,-2630,-1024,-1057,95
2708,5575,-2272,-231,-243,-876,-1379
2709,3486,6063,7338,205,844,-474
2710,3578,1601,1629,1504,1777,-1953
2711,-3253,4967,-1800,1087,1523,670
2712,-1436,4798,6923,-1810,-1486,696
2713,5758,-4976,-1097,770,-434,-380
2714,-6248,-1676,3417,1409,1714,-1752
2715,6184,2388,115,-712,-1587,1258
2716,-5207,-1981,3841,1674,-1916,-346
2717,-4653,5441,1120,516,-291,1793
2718,4960,-883,-275,315,-293,1011
2719,7261,4267,-7061,-1369,933,715
2720,5570,-5219,3110,593,-932,-1600
2721,-1093,-6174,-3618,1347,-1618,794
2722,1669,-1470,4733,1434,-959,973
2723,-3837,-1770,1358,963,-365,531
2724,3287,5183,2041,-1852,-1981,1281
2725,-4538,1390,-2060,-1399,1851,793
2726,-56,-3639,-232,607,-62,-294
2727,-6985,-2096,3053,-1775,836,-1890
2728,7442,727,-6349,-1717,-516,-655
2729,-7744,-4743,5858,1652,-449,1255
2730,2124,2144,-4944,1742,289,1988
2731,-772,6544,4876,-433,991,-873
2732,5092,-1334,3980,-1310,-396,78
2733,-129,5583,3909,1283,917,1326
2734,-4319,1238,4580,1110,1031,-1773
2735,-4842,-4567,-4756,-1476,-697,1626
2736,-6408,2375,-5190,645,-1234,1659
2737,-3404,6545,5996,940,-663,1303
2738,-6806,-2723,4936,1966,149,-1501
2739,-7836,2420,1329,319,646,225
2740,3773,4900,-1826,-56,1776,-643
2741,7285,6798,-296,369,1160,-1159
2742,262,6924,6838,138,833,-1655
2743,-656,7441,-2870,-1580,-946,1073
2744,-7366,-5429,982,-1599,1203,-1120
2745,-7400,-2063,6940,1844,-731,-1494
2746,-5671,2926,-4467,1805,1351,818
2747,-66,-4080,7067,505,-367,818
2748,1010,7257,-5878,-382,453,368
2749,-2962,-3433,-12,-273,-1001,1014
2750,-7726,-3621,2159,-1344,-882,-1852
2751,-1073,3077,-4343,-1870,560,964
2752,6363,-6711,-1935,-43,-284,-665
2753,-2219,-4077,-5947,-1092,-1126,-1250
2754,-1822,-4250,5203,402,1921,-1536
2755,-89,-7500,1668,-1020,-400,1676
2756,1018,7629,-7194,1997,-1574,79
2757,-7913,5104,-4382,1389,-1957,-803
2758,-4100,-3992,5779,521,-727,303
2759,-1752,6450,-6401,808,-1400,1146
2760,-6631,5,-4841,1250,-1517,231
2761,-1444,600,-7287,1290,-1328,-101
2762,4113,-7512,6699,1890,-286,1788
2763,-1946,7815,5824,1283,-1013,-415
2764,2723,-2138,2259,-95,1695,1442
2765,7259,-4241,1537,1715,1585,1852
2766,-2212,-73,7591,-1617,-271,-579
2767,-551,-7972,-1219,-1660,1171,1214
2768,6837,222,-2916,965,916,1657
2769,-6079,-7238,-4967,-1529,1159,1319
2770,-6452,-6605,-7180,-1026,623,57
2771,-1965,4519,-4969,-629,-1478,-1532
2772,-6319,-1073,4833,501,1824,481
2773,1136,-2073,1925,425,-1220,-1177
2774,5841,-1864,547,324,-1796,6
2775,-3106,1235,-5671,-1682,-656,1667
2776,-4586,-5797,6155,-615,-1991,1777
2777,5194,6736,6295,-61,-1651,1022
2778,-6799,6152,7364,-164,-589,-970
2779,928,6021,4781,1927,-1594,-607
2780,2404,-3847,-749,1177,-642,166
2781,7020,-4858,7005,389,1643,-1773
2782,-6536,-4784,7500,-21,992,1260
2783,-6549,5363,-3715,1563,-297,997
2784,5759,-6140,7392,483,-688,-440
2785,-3667,-5286,-3132,-1878,1965,499
2786,-975,-1381,-7387,1791,-1173,-1003
2787,6097,-2158,5363,1899,-1492,-1493
2788,-4857,-1434,3244,-54,-1834,-827
2789,-6274,4789,-3868,-1057,-1926,-277
2790,-946,-6512,2129,-502,-1929,1930
2791,4690,4091,-7113,-426,-1341,-1486
2792,-2718,6067,5220,299,-1310,395
2793,-505,-6951,7455,-887,601,1187
2794,5808,403,1321,1991,1946,-855
2795,-5532,-5385,1098,-1845,-1184,-711
2796,-6279,-6349,2082,-1394,186,-1998
2797,-3762,7995,-6619,-928,-507,-1710
2798,-5820,7780,4835,538,1854,-935
2799,-3643,-2434,6776,-1328,-1208,720
2800,1974,2475,3621,-580,-130,-301
2801,-7465,-3538,5030,1623,-678,-899
2802,5141,5748,-7447,-464,215,1347
2803,1228,-5045,-3746,-1519,449,1097
2804,6022,3633,1745,-1606,1943,-1486
2805,5589,-394,5962,-1372,407,-1387
2806,-7600,6020,-1268,753,-548,-42
2807,-2298,1831,1856,1648,-1713,665
2808,-5455,-7068,-1458,620,396,885
2809,-4108,-6709,-4045,766,1212,1898
2810,-6132,-4632,525,-375,1454,373
2811,5005,954,539,587,-1699,479
2812,4008,1073,6166,1293,-970,183
2813,-7442,6624,-161,768,1831,-495
2814,-725,-4634,-585,-647,-1774,-144
2815,-625,7009,3580,1922,-565,1689
2816,-2203,-6821,2852,-1683,-1355,1561
2817,-1136,-2942,-5193,-934,383,-1859
2818,2257,-3303,6384,-239,-812,342
2819,3044,5628,-2838,-819,1923,-497
2820,-437,3460,-5163,116,377,-1691
2821,7191,-703,-5784,738,-905,1157
2822,4364,3646,-4045,-695,-1412,-1414
2823,-7048,4638,-7512,702,296,-1365
2824,829,-3826,-6310,-1195,-302,327
2825,-3957,-2628,-2903,-1804,458,946
2826,3108,2150,603,-103,-405,1338
2827,-2761,3386,6648,488,1295,1843
2828,5453,-5702,3563,-1035,-36,-385
2829,-13,7387,3092,-1068,11,-1488
2830,7393,412,-3472,1057,-1071,1165
2831,-6841,-4,1637,-1985,1045,-1831
2832,2878,-4458,-5101,536,-1134,-1337
2833,2595,2628,-1840,-315,-1788,1372
2834,-6778,-7609,4938,1416,443,-1373
2835,5687,-4040,-6262,1763,610,1211
2836,-204,-4260,7626,162,-485,-1413
2837,-4548,-3744,-1256,-354,1715,-1238
2838,1880,6262,-474,675,-592,-1884
2839,3867,5348,-7630,-860,-913,-1688
2840,5269,342,5243,267,1560,927
2841,3629,-4603,3965,-924,1401,972
2842,-62,2350,7173,-1086,1245,135
2843,-5691,-3372,-3983,862,-1564,456
2844,-1628,-691,3257,-1156,1482,162
2845,-1895,-4682,32,-1348,-913,103
2846,-4926,1712,-182,-1668,-73,-1569
2847,2965,418,-4844,-532,1487,1887
2848,2326,-3299,3347,1632,-819,-192
2849,2962,1562,-5979,-490,464,3
2850,-4901,-457,7334,-1778,-918,-1690
2851,-185,5278,-4189,-113,642,-1374
2852,422,-7979,391,186,-154,54
2853,-5759,2342,1192,1591,-1912,-74
2854,7440,2117,7473,-1417,280,1838
2855,7780,7624,-3475,-444,576,-251
2856,4067,1106,7371,-1326,1855,-767
2857,-2725,-4173,-5963,270,-135,1658
2858,-2991,1809,-1520,-1078,-1666,-174
2859,4188,-7977,-3878,1043,-296,1772
2860,-6832,-6960,6108,-1495,-1588,884
2861,-88,-5851,5387,1283,664,-1391
2862,2381,6453,-825,-1327,1419,-1851
2863,7995,7447,2301,268,1403,-814
2864,1670,2232,-6606,1999,1990,-338
2865,5192,-6356,5422,-1398,-1701,535
2866,3538,2222,7159,-830,-1637,614
2867,-3129,-2112,629,-969,-1497,-932
2868,-45,1035,1908,387,459,1862
2869,-4191,4570,125,1148,-475,-1435
2870,3437,3778,6315,1032,467,-1551
2871,-4185,5625,604,-1039,-1690,-1874
2872,491,6697,2376,1769,374,-1165
2873,-4784,5234,-4976,-650,363,1443
2874,-4252,3045,-1491,536,873,1404
2875,1891,-7821,6751,-601,-353,-1013
2876,-753,2930,-6554,505,1870,-1674
2877,7427,3317,-6359,-1538,-680,157
2878,-4230,4715,1503,-689,-395,-968
2879,97,-619,4330,1986,57,1548
2880,4248,4747,6167,460,-1743,730
2881,-7163,-1372,-2116,-1030,-892,572
2882,-1328,-7329,-6708,702,1820,-561
2883,-2867,6559,-7392,1016,872,308
2884,3635,3131,-6576,-950,246,432
2885,584,2101,5653,-16,1431,-899
2886,-6028,-3922,1492,-1953,1496,1910
2887,-6873,3045,-4028,1055,913,-1904
2888,-7977,2961,-6302,-666,1152,-1221
2889,7430,-4618,-7546,1801,-1632,529
2890,5845,2789,1256,-1985,1530,1635
2891,-4278,1843,-2212,91,-361,1122
2892,-2346,1731,7212,-509,689,-1847
2893,-2587,-6434,2845,874,-445,802
2894,-5677,-1590,-7875,-721,-146,591
2895,-844,-7484,697,1165,636,74
2896,-2207,-7494,-6446,9,-1034,-308
2897,-2916,-3571,6992,-1433,-413,80
2898,2495,-535,-1592,-179,-1934,1397
2899,4470,-90,-5248,-276,360,1303
2900,797,3390,311,-488,1712,1335
2901,6535,2494,2725,570,-274,-176
2902,1347,-7969,-6110,1234,-1764,724
2903,1451,-7701,-2296,866,418,1342
2904,7604,-3368,2776,1265,1721,1281
2905,-379,-6193,-7296,-1387,495,-1105
2906,7867,-91,-7574,-1347,-482,1419
2907,2168,-7236,6969,1599,-390,152
2908,7312,-2738,1950,1713,815,-724
2909,6624,2036,4439,857,-520,1152
2910,1702,6641,6279,1878,-240,-1150
2911,7171,-3274,7946,358,-1535,-709
2912,5586,-3310,7373,-48,570,-718
2913,-3779,-3460,3813,-550,1220,965
2914,5940,1238,80,318,1593,203
2915,-7980,-911,7974,-1141,257,1517
2916,-6952,6322,6720,-1513,1187,-164
2917,-5802,7489,-7327,-1018,-847,-202
2918,-3313,3160,4632,-469,1864,-48
2919,3744,6889,-7019,1858,1919,-1482
2920,5962,5000,-3550,-469,-350,-1894
2921,2955,-4576,1267,1856,-1984,-1518
2922,1320,1730,-4981,79,-1323,1543
2923,-7448,5963,5617,574,-696,405
2924,5114,7149,-2896,1636,1719,-342
2925,-7873,-2635,5510,32,564,1792
2926,-5126,7825,-59,1407,279,1359
2927,-6936,-3840,4847,-1030,1376,-1990
2928,1594,7219,3395,1568,1512,-90
2929,6349,2308,-3593,1045,-631,840
2930,-5511,5486,-376,-341,1480,-969
2931,170,2972,3207,-1627,-1212,144
2932,1938,-4831,4038,1411,-501,-1605
2933,-1460,1855,-2674,-178,-1007,-1288
2934,10,7406,-1070,1288,748,1455
2935,-3156,-3996,-788,-1496,-530,1152
2936,-2009,-1153,-5726,-1548,878,-1850
2937,-2737,-3453,399,936,-1444,251
2938,7914,-3158,851,-1828,-451,1889
2939,4329,-3108,944,-1253,607,-45
2940,-1742,-7001,-5580,1692,-1242,-1856
2941,5272,-5680,-1117,-1777,1922,-361
2942,-2277,5450,529,-1213,-1441,-1426
2943,-5552,2226,55,1145,-1103,1475
2944,4014,6838,7088,-1979,-149,-1908
2945,-7403,877,-6636,-108,263,67
2946,6998,-2081,-6588,-135,-471,-611
2947,-411,7042,-2206,944,335,867
2948,-2504,4436,6744,1791,1346,-12
2949,-1123,2404,-2207,984,-264,1796
2950,-233,-6891,-699,-1333,-398,-1100
2951,4607,4487,520,384,306,1103
2952,4474,6090,-354,-1057,-1756,-934
2953,5646,-5365,6777,-521,20,702
2954,-7826,255,1870,1250,470,1292
2955,-4152,510,-1273,727,-232,-886
2956,5636,-3092,4172,547,-1511,840
2957,-6673,-4900,176,1457,-1836,-1054
2958,4847,-304,-648,-922,1942,-1866
2959,1761,5224,-6700,-1643,1414,1766
2960,7745,-1412,2205,1408,1519,-1547
2961,1077,6748,1975,1509,3,1587
2962,-3971,-462,1139,1144,1964,-619
2963,6713,7770,6490,-974,1485,979
2964,-3708,4998,-91,328,-1029,1079
2965,-4653,5051,-112,-880,-1757,1034
2966,7466,1102,-1877,1442,924,187
2967,1281,-2971,-4002,-333,-1627,1164
2968,-3277,-2461,-1680,-1133,1627,-1462
2969,2354,-2476,1798,-283,-1216,1149
2970,-6986,-1235,4214,-507,1286,-1915
2971,-1900,-4629,7559,62,-604,-227
2972,-4452,-2729,5083,1877,-1171,-1731
2973,1073,5681,-3464,1243,76,299
2974,-3882,6814,-1220,-896,-703,-1363
2975,7526,2290,4251,1089,1763,-273
2976,-4050,2277,7546,1483,1503,-1836
2977,-2722,5068,4340,-1446,-1343,-500
2978,-2809,3289,-1435,-571,98,1074
2979,6742,545,-2257,1720,41,53
2980,-212,-596,-2419,1316,1862,-1998
2981,172,4211,801,1738,-300,-1749
2982,1955,-5897,398,112,368,1510
2983,-5404,7007,-6660,757,-561,730
2984,3757,6292,-1890,334,901,-267
2985,-1467,2566,-1365,-1774,844,-1366
2986,1153,-5870,3408,1334,-1699,-1951
2987,-4415,-3612,-7917,1792,-1275,1575
2988,4800,5250,-3221,-262,22,-508
2989,-7929,951,2667,-1534,-1237,1624
2990,-7805,-1197,-7417,-612,1808,383
2991,-6753,1053,4603,-1229,1464,1233
2992,-6472,6849,-5647,1015,-1632,419
2993,-5992,-1204,-3898,1903,-1920,-555
2994,-6572,2941,7646,913,1890,-1601
2995,6709,-6286,-1271,1507,1897,1357
2996,-1804,-405,7168,76,32,-818
2997,7480,1012,-2009,1403,591,1817
2998,-7136,-7887,-222,937,-1836,1879
2999,4708,-7951,588,-577,-1938,-707
3000,-5881,5457,2272,-761,134,-1792
3001,2761,-4499,6620,-1883,559,18
3002,-1829,-5439,6734,355,-1027,1421
3003,5580,-7201,-626,-1071,1713,-591
3004,5803,6342,-1448,880,-127,-110
3005,-5447,-3943,1173,-293,1142,-787
3006,1507,-4685,-4107,-873,774,1006
3007,1003,-3395,-4962,-891,277,-1290
3008,4406,-2236,7114,-1825,1710,1843
3009,1779,5006,3188,-734,519,1095
3010,2583,493,-1538,-82,-334,1355
3011,1876,-7787,366,1325,894,1053
3012,-4833,7510,-7871,594,-187,-1290
3013,-7400,-5733,978,415,547,1320
3014,1950,-7452,-5332,-1911,739,29
3015,668,-6247,-855,14,1531,1060
3016,3618,-6619,-6124,-1750,-1576,-448
3017,4728,7902,-6194,-1480,584,-482
3018,1985,74,6018,800,-1532,-600
3019,2269,-6082,-4219,1961,-1723,1265
3020,-4862,-1571,-3179,1084,-550,-364
3021,-1453,-325,-5181,-48,-153,1427
3022,-6007,-5342,-3429,1910,-1291,-522
3023,5371,4688,7600,1697,-331,1301
3024,4547,4326,5663,1308,1962,614
3025,-5427,7949,-5161,-1142,-835,-431
3026,3872,191,-2178,-367,-1394,-1606
3027,1657,2683,-144,-131,-1888,366
3028,-5734,-6303,4459,773,1730,810
3029,-4221,-5025,6547,225,1090,-478
3030,2766,7680,7527,-114,1873,860
3031,-1967,1819,-184,413,1309,-995
3032,-3217,-2086,-3256,1225,1585,960
3033,-1505,4370,2592,-1989,-1784,-1848
3034,7994,-7784,988,-1222,89,-996
3035,-1627,598,-4379,681,-796,1062
3036,6041,-3461,2037,-1226,-1851,-1598
3037,-1098,-7778,-6819,1761,-754,-1207
3038,-257,2612,3331,1387,-1151,856
3039,-1706,-1257,-1705,-1923,-85,162
3040,5871,5846,-5687,-1791,-914,18
3041,4436,-6946,-6307,291,1600,-1422
3042,1533,1554,-1719,1640,-624,1867
3043,1778,1869,-4868,578,1896,321
3044,-3708,5250,6839,1394,-90,82
3045,1204,-4785,2345,952,1284,545
3046,-2565,6207,6538,367,-44,1388
3047,-1416,-7151,6009,902,-1029,-1804
3048,-6414,267,6733,-1039,30,-1885
3049,-4755,7779,-805,454,-665,365
3050,-2885,-7860,4387,-1615,-1187,-958
3051,5271,4973,-2652,1349,-1384,1658
3052,7126,-465,-798,303,-642,1744
3053,-1531,-7801,6072,-655,857,656
3054,-1178,-5188,-6032,-238,-3,757
3055,7984,5072,5588,716,-1503,260
3056,7424,7547,415,1947,-1149,-1348
3057,-1840,7049,-1291,-1461,1578,-1394
3058,5816,3751,-7987,-947,894,215
3059,4666,-3971,-4948,537,-260,-192
3060,-5977,-5885,6274,1807,1574,-1255
3061,3280,-4304,-2252,591,1176,-1129
3062,5178,5815,-2057,1595,677,638
3063,-1028,-4867,-412,-1823,-1077,1573
3064,3334,3261,-2675,-30,744,1317
3065,4304,-4199,-5699,-666,147,-1863
3066,-2764,-791,104,670,-1596,-826
3067,4982,2676,3243,1357,1220,-746
3068,-5964,726,7517,683,-453,1007
3069,3116,2164,7515,-623,769,847
3070,-3673,-5202,1183,-664,1558,1899
3071,3886,-2472,5383,1716,-686,155
3072,-3822,-6190,6906,-115,617,-1668
3073,5498,-7253,2638,983,394,-271
3074,2818,-2650,1898,-1476,442,-1954
3075,-2982,5816,-4745,-615,-7,-1831
3076,-2484,-2384,-1024,-1114,1254,-986
3077,5480,2432,-6130,396,216,1622
3078,1902,-6585,-7339,-1994,-427,-641
3079,2723,-5674,-69,-364,-1126,-1552
3080,3758,-1187,2378,-577,1146,440
3081,-5132,-5976,-2335,-287,-1386,-1773
3082,4002,-6092,4167,-121,1988,-178
3083,677,7634,-1973,195,1539,303
3084,4810,4803,4115,708,-1224,108
3085,5347,-2233,-5206,-513,-546,434
3086,-6304,-2882,-6240,575,131,968
3087,1353,6427,956,1099,-683,-1056
3088,6470,2118,1564,1673,1731,446
3089,-7757,-1824,222,-1235,503,-1688
3090,81,-199,-2872,1913,1708,-1649
3091,4676,998,-1796,-1596,-295,151
3092,-4545,6921,-5227,1019,1341,-514
3093,4766,-3292,-2311,1561,-409,-727
3094,-818,-5095,-2846,-718,411,-580
3095,-2437,5054,6675,-279,-247,-1559
3096,-3953,5094,3966,575,738,282
3097,7379,-2455,2427,-1963,1839,-1464
3098,7419,4332,-6997,-419,-1280,-1331
3099,-3681,-1503,2030,977,816,790
3100,7672,218,7947,-1914,1471,-1258
3101,3741,7365,-7539,-1030,1899,734
3102,-3177,2206,-2050,-857,-1368,-116
3103,2177,4139,-1334,1606,-938,619
3104,3554,3307,-5814,325,-1435,-1872
3105,6624,-309,4651,-1960,586,1211
3106,-6091,-2954,5182,1089,-80,-868
3107,-264,2634,7037,-696,-217,-1491
3108,6746,-4176,-5350,-1056,1832,1906
3109,1190,-7023,1697,-1784,-656,1753
3110,6641,3624,-4374,-186,-1268,179
3111,2069,-6682,1652,-1431,1677,-1855
3112,1187,6465,-575,1625,1239,-1455
3113,2736,-5497,-6022,-874,-557,-1729
3114,-5702,4322,-3107,1345,-1622,1970
3115,-139,5147,-1656,1680,-5,-1945
3116,-3409,1739,1519,-1089,-1948,44
3117,-5378,-4800,3163,130,-1911,36
3118,-3031,7313,3845,-802,411,-1095
3119,138,1187,-2339,-999,-588,-802
3120,6183,1002,-7826,-54,-1799,-1533
3121,6003,-2606,7695,1062,260,-584
3122,-3054,5407,-444,-768,-1924,1333
3123,-6996,-28,-6460,1617,1948,1223
3124,5874,1304,-6167,-1901,1940,-1311
3125,7434,4235,5282,-953,-911,-1996
3126,7521,557,4648,-1834,-1280,859
3127,-4103,-373,7127,-1520,1701,-142
3128,-4698,-6282,984,1973,-232,1277
3129,-4180,-4000,-83,46,916,-166
3130,-1738,6441,-1791,-1965,533,416
3131,-2556,6586,-2415,-1060,-70,284
3132,6691,5593,-5266,522,-210,-1939
3133,-6293,1538,-946,526,1576,-1120
3134,-7528,5307,-2825,1920,-875,-447
3135,-821,3513,-3592,1241,-673,-165
3136,-3638,-3572,-435,1569,1034,397
3137,2625,-6583,7821,-377,943,-1214
3138,7422,5955,-782,672,815,-1180
3139,-1293,1597,-743,-1363,-1108,-793
3140,-4349,-4838,-5162,-21,-155,-1019
3141,3991,-2699,-4578,-653,1816,1701
3142,-2563,-844,6433,-988,-389,-994
3143,-169,6920,7398,52,553,-151
3144,-5723,566,2000,-74,-652,1911
3145,-7090,6059,-3426,-1419,151,-1192
3146,5786,-6568,-5454,762,408,1174
3147,-7705,-1263,-35,164,135,971
3148,-2209,5862,4080,-895,-1106,1612
3149,7961,7828,-4020,1519,-265,-385
3150,-1919,-1249,-6733,1666,-1949,1920
3151,6812,5113,-6520,-771,-695,-1944
3152,-6153,-370,4571,376,-1107,-494
3153,6233,-3479,-1277,-959,-280,-1301
3154,-3439,5372,6939,299,1604,-1878
3155,3057,-3835,-3091,-601,-1292,691
3156,3831,5171,-4519,-42,157,-1340
3157,-1701,-101,7199,360,-1234,-349
3158,6059,-4939,5253,1136,-844,-37
3159,-3537,5100,-3789,-1572,165,-648
3160,4554,5906,6301,316,-1884,1537
3161,1557,-401,-4110,129,-1472,617
3162,-4030,-1320,2921,-37,-1591,-1208
3163,3827,-1295,6653,-793,-1159,1720
3164,4147,560,-4248,-1790,556,-988
3165,296,-382,2212,1884,-1047,-533
3166,491,-4582,-1422,-1131,17,1296
3167,309,5888,5064,-1050,-1655,-1650
3168,1662,-6447,-6998,1780,-1134,-1800
3169,-992,-5639,2339,-1986,-225,583
3170,-3045,-5603,-1772,1747,-331,1437
3171,5502,-1235,-4389,-1619,-1049,1497
3172,2965,3245,5178,1657,1440,-649
3173,-544,-4366,-1813,576,654,-703
3174,-1407,-6030,2428,1628,1571,-773
3175,787,-6757,-6721,-112,1563,1817
3176,2631,-3990,-1745,-1780,-1489,1000
3177,-7694,-4555,4911,1783,-397,-660
3178,6756,-3402,2606,-882,975,1165
3179,-744,-94,5895,-1385,-1589,-1973
3180,2822,4122,6953,-1544,-348,-1671
3181,-1338,7274,1746,839,-1768,-108
3182,3113,2919,4875,-1154,-536,1026
3183,-2555,5763,-6749,-832,1049,244
3184,863,1564,-40,-834,-1246,-621
3185,7977,521,7226,248,-824,489
3186,6052,3798,-7630,396,716,343
3187,5950,3570,7137,-86,1765,760
3188,-1084,-4671,-3020,1972,-692,103
3189,-1772,-4907,7588,-446,334,1026
3190,5968,-3350,6965,-1683,-1544,-1586
3191,6860,-2549,2913,1352,1710,-89
3192,-4810,949,-6263,1576,-1353,695
3193,2014,289,6783,-1592,328,-592
3194,7231,7760,-5397,775,726,-1724
3195,-162,5178,1980,749,1219,812
3196,6162,6040,-1499,1609,-1663,1355
3197,6076,7346,-5050,-1622,1391,293
3198,6701,-4560,-2353,-71,868,416
3199,4767,-2049,2328,-1860,1439,510
3200,4644,-1300,4212,1152,-811,-159
3201,-887,4270,-2868,1201,-1666,-1787
3202,-6315,4510,-6271,665,1538,1998
3203,-7269,-6398,3661,598,1090,439
3204,-1124,7754,-6019,-1443,-1599,-302
3205,-7695,4201,-3740,1171,106,-18
3206,-6760,7727,1008,-1812,-222,-1930
3207,7481,-5527,4499,1978,-1538,139
3208,-4232,-5573,-1863,1049,-118,1943
3209,2240,-3251,5588,-1836,-866,1329
3210,-7665,-4633,2814,-724,290,217
3211,-432,5167,1932,-8,1903,7
3212,-6428,2905,-2946,-823,769,-1111
3213,2823,4796,-5386,1846,1427,1480
3214,749,534,-6856,1425,759,1948
3215,-4426,5935,2618,-1067,482,363
3216,5391,6573,3516,-603,-1055,-1146
3217,5951,1188,-5693,101,656,683
3218,-2783,7764,2736,-1962,1241,1386
3219,2833,-7627,-5782,1690,424,-136
3220,4807,6801,5049,-187,-460,-76
3221,-3650,-2348,-2328,-1380,1575,736
3222,4814,-4590,-133,803,730,219
3223,163,-1745,-3852,1772,-1616,663
3224,5152,3578,2466,810,1908,-1160
3225,-6443,939,-3923,-234,-1335,564
3226,4889,-7591,-6489,-317,1544,15
3227,2167,-4644,6598,1473,-673,-1074
3228,-1610,-3121,7073,-1991,-1966,1946
3229,6247,-7100,5637,655,1122,973
3230,3869,6369,3549,-1432,-928,1230
3231,-3241,-3240,-1448,241,983,-1783
3232,-4942,-5417,2041,-1278,-1233,-1589
3233,-5311,-2814,5742,1827,965,1970
3234,-1235,-270,1365,261,229,15
3235,-4236,3867,-1015,-272,-1684,1492
3236,-2740,-4580,-4454,1196,600,-1
3237,6815,5093,-1884,-835,-1148,1135
3238,690,5167,6708,1182,312,-100
3239,-4499,-5322,2498,1446,-229,-436
3240,2239,5139,-6704,-503,-724,-877
3241,69,6245,-3164,1566,1310,1690
3242,5546,-4412,6626,-1756,-457,1387
3243,3994,-1877,6119,-294,-1417,507
3244,-7243,-7242,1828,1513,1630,1315
3245,1824,-1313,7720,-1776,1162,-1060
3246,7928,-6873,6416,759,-762,923
3247,-6255,-1385,6805,-865,416,-1162
3248,3820,1522,-3164,1622,-1063,847
3249,4509,4683,4195,-1500,-310,508
3250,-1928,-2822,-7181,90,1335,784
3251,2284,-813,-878,470,-1149,-683
3252,4050,-2137,5025,1314,1578,-1900
3253,7949,-2529,-3835,1899,-1664,1120
3254,-3057,-832,-3274,1448,1209,1675
3255,4420,-2157,-3569,-667,-292,199
3256,6286,2261,-3563,1008,146,-536
3257,-3175,-7533,6596,-1843,-755,-944
3258,4267,1413,-5327,680,230,-1957
3259,5518,-986,-169,-1458,-1380,152
3260,-5308,6200,72,-1572,-1876,-950
3261,3833,2515,6048,-1208,-98,-1674
3262,3412,-7761,5905,49,555,-1650
3263,3073,-5583,3663,1793,-1769,-1756
3264,6135,6890,-3441,-810,-639,846
3265,1121,-5153,-2705,-862,-1641,-520
3266,-7668,-4503,839,-1430,748,-1078
3267,-331,-7392,7357,1104,443,1978
3268,4382,2902,-6861,1974,675,252
3269,-7951,6576,861,1528,410,294
3270,-355,-3265,1511,-1796,204,517
3271,-5434,-2202,4595,1093,1108,-465
3272,1452,-2945,-2135,1860,-568,1015
3273,-7037,-3604,4436,-348,1903,128
3274,7293,6879,-1226,1142,1892,-1099
3275,-5979,-7555,5028,1341,1404,-485
3276,-199,-6448,-4027,1671,-1876,-1544
3277,3635,5194,5127,307,-1007,426
3278,-5970,1641,40,-663,-1580,-242
3279,3859,-543,3665,-1368,1751,726
3280,-4161,3836,5625,-1895,1126,-1077
3281,-602,4306,-3483,-1443,1271,1131
3282,-6862,-2785,-4145,-98,-1425,-528
3283,6989,-1505,3984,1213,-491,1624
3284,-5027,-4092,-1740,1433,-766,1172
3285,6416,3760,1683,1234,-1704,576
3286,2768,-6439,-3426,308,597,-1859
3287,-6577,-1812,-1055,646,312,1389
3288,-2029,3790,-23,-199,1645,1792
3289,-6083,2796,-5429,1073,961,-870
3290,6888,5723,914,920,1583,-740
3291,-6978,3498,-998,577,-760,-1989
3292,4103,-5543,2503,-934,1086,419
3293,1271,1814,1160,1864,-1738,-45
3294,7623,-6382,7359,-993,280,-1765
3295,6688,4951,6470,-1188,-1492,-1834
3296,6540,1994,100,1443,1862,1964
3297,2897,6961,5478,1424,-390,-813
3298,-3575,4836,7129,455,-479,-1740
3299,-1404,4026,3479,1166,-345,1112
3300,1057,-5711,3117,1899,956,-575
3301,-1029,7509,7634,-1824,-70,1658
3302,1299,2024,5784,327,-172,-217
3303,-1883,4802,-3386,-1114,-1393,-806
3304,4124,-5124,5887,1189,1683,-192
3305,6171,7243,1474,-1689,-507,-1607
3306,-2708,-6381,-3303,1352,649,6
3307,1057,-2620,3987,498,709,-241
3308,-5778,-115,4267,-1134,-675,-1276
3309,298,-4969,-4131,-416,-310,1825
3310,-3662,-6252,-2692,1174,1255,1448
3311,-4183,-5887,6651,-1088,162,692
3312,1088,-2092,-4886,729,66,538
3313,1139,-3997,2038,-1523,-855,1624
3314,1597,-6943,-5368,-1411,-1705,972
3315,2031,5393,6308,-370,-609,-607
3316,6588,-5718,-3996,208,378,-692
3317,970,5972,3674,1848,-1045,906
3318,-3355,2067,3455,-658,-1506,-604
3319,6056,2345,5898,942,1678,-1307
3320,7399,-7368,1088,1259,175,1237
3321,-6657,-6756,3287,496,-575,877
3322,-6879,3745,5815,-149,1320,-7
3323,-7684,5913,126,-1116,-1855,-960
3324,-118,7737,7459,-619,330,680
3325,-7638,4495,3401,1809,-840,1484
3326,4764,-4982,5392,959,-45,-453
3327,4011,-2434,7970,-1551,-1064,-1100
3328,-4226,3336,-718,-1766,-1254,1419
3329,-1729,3194,-4482,209,-963,-1788
3330,-5825,6084,-6409,-1099,1165,-677
3331,-6592,-4883,-7447,380,-1923,-189
3332,5509,2452,-4636,-284,-1637,-1316
3333,7574,2449,-2341,-954,501,657
3334,-854,-411,-7693,-1665,403,-1239
3335,3891,-5417,-2815,-1073,-1939,1849
3336,4914,-1987,-2154,-287,1326,1129
3337,2651,-3074,-2885,655,272,-434
3338,-6917,-7687,-6329,1447,379,-1895
3339,-5304,-2131,-6079,-1744,1058,-259
3340,3399,3967,3570,-110,-1705,445
3341,7407,5834,7913,632,-1412,920
3342,4160,-5382,5148,-1520,-446,-1445
3343,-1066,1218,-5780,1124,336,-333
3344,-3096,-6940,-5945,788,-1560,-1078
3345,4480,1913,7821,-424,-770,-160
3346,7199,-1112,-1824,466,-1574,1812
3347,4143,7955,-5498,-214,-414,-1916
3348,-6686,-7263,2979,-1078,-1661,284
3349,-6090,3247,-3942,879,939,315
3350,6131,4622,-2447,1385,-340,-1122
3351,-3698,2550,-4699,1775,903,-1858
3352,-2825,-3136,6637,-1827,966,-1231
3353,-6537,5306,-3344,431,414,1573
3354,7169,-7928,-1052,1619,-1632,-1138
3355,1479,-148,7407,-1490,1716,-1977
3356,7507,759,-5071,689,229,1624
3357,-7144,-858,6136,-1741,918,797
3358,-6775,-4555,-6970,-1534,998,1748
3359,-5453,-3746,6253,-873,1956,-66
3360,-3611,-7585,-4121,859,-1298,1186
3361,514,7895,-1182,1235,-1961,1776
3362,4423,6539,7608,588,1483,775
3363,501,-2819,-3308,-1106,-399,1422
3364,-1842,2843,6481,1111,-1568,-366
3365,-1042,7826,-5650,1716,-1084,-874
3366,3101,-6743,-3882,896,-658,-1407
3367,2304,-2929,-2526,-896,-620,787
3368,5488,1995,-5392,-354,1226,-1294
3369,2825,-1041,1988,-631,-248,1213
3370,-3048,-1866,5222,1117,-758,-1601
3371,6138,6310,4313,-231,-1987,392
3372,4420,2175,-1481,444,877,1010
