Sample,Ax,Ay,Az,Gx,Gy,Gz
0,1608,6669,2075,1749,-16,-1253
1,1886,7505,3943,-1025,1821,69
2,-1135,-7588,-7624,1184,735,287
3,3706,-1009,1228,178,698,-558
4,2016,6669,-3078,678,-1122,336
5,2860,-6425,2778,738,1860,-902
6,5028,-5067,4674,505,-1317,1494
7,1925,-5105,7804,-1122,385,1067
8,24,-930,-4137,-1752,-746,1961
9,6509,-877,7101,-1677,764,285
10,5255,-6761,1064,-1126,-1774,167
11,-5136,-4318,7210,411,-1651,-26
12,4537,-3252,2851,964,669,553
13,4435,6465,-6204,387,-1985,-1314
14,4449,-4615,-1590,-166,830,-1622
15,1945,-3942,4939,-1939,862,-620
16,-887,876,1744,-427,1389,892
17,5906,-3677,325,647,1563,-731
18,716,5175,-7346,-1958,1432,-1643
19,-7011,6536,-1246,1632,-987,-282
20,2268,-4135,5546,64,-868,1033
21,-5529,-1847,-7647,1923,-4,-375
22,6176,-2710,4727,-1152,-1944,1007
23,-7142,-2018,6399,-1837,1896,-1644
24,-3110,6708,-2174,1855,-603,-462
25,7288,-1937,-6889,-1192,-802,1598
26,-1182,7742,-2210,-1228,1241,-1393
27,-202,6698,7685,340,-1081,1799
28,5132,-6278,461,750,1986,553
29,-4833,83,58,-1269,-257,1618
30,-4146,4869,5490,-377,-1876,-1952
31,4808,6196,-4760,-1544,1324,499
32,-5934,-3985,-3718,530,1545,876
33,5005,-7954,7563,-910,1321,469
34,7585,-6885,-5228,1362,362,-47
35,6999,-4584,578,599,68,1793
36,6414,4952,5179,1258,-1961,-1379
37,6587,-1135,-5522,-160,-229,752
38,-3973,-1686,-4849,143,1661,244
39,5233,273,-5876,-296,939,1629
40,-5949,4687,-2671,1960,-1123,847
41,-3925,-2992,-6991,-1881,924,1317
42,5250,-3675,4489,-1529,-594,1882
43,-6063,3002,759,890,-1115,-394
44,-2203,5595,4565,1586,-214,430
45,1624,-6439,-5641,1978,1150,1339
46,-3981,2666,4789,-679,1421,-1492
47,5032,7093,916,1876,1090,1613
48,2578,7570,2087,-1765,711,-419
49,-4768,3158,-2608,-215,-654,1475
50,7088,4902,6929,-1797,432,851
51,-1259,-3926,-3739,-12,1053,-1343
52,-2328,1941,-1801,1541,-634,-1128
53,-6860,3553,2832,1316,1055,694
54,-4976,-3681,-2747,-1304,894,-541
55,7516,7386,1614,-1442,-128,-1801
56,4454,-5366,3950,3,-1132,17
57,7947,5512,-3933,-1057,1442,1478
58,-5175,-4474,-7949,-908,780,1749
59,-5587,902,7366,-166,21,580
60,2909,-5842,5998,1428,-105,1083
61,-1820,5280,-7897,1668,-1530,-1354
62,4407,4088,-7137,-204,-1537,-1394
63,-6461,-4794,1984,800,1756,96
64,-1928,-2975,-224,595,1499,1620
65,-699,2174,-4001,526,1261,-727
66,-1613,7627,-1732,-1078,-263,-1253
67,-5641,6541,3014,1711,-886,-1560
68,-2547,5011,619,1742,-1425,945
69,-5176,-6122,-7935,-171,1368,-1355
70,3570,-6926,6700,-1770,-218,-1452
71,-305,7782,6489,-1187,1745,-280
72,-4401,6935,4644,1112,-1396,598
73,5842,3090,5210,-686,1534,-402
74,-6079,820,7020,-441,-1060,349
75,3955,-336,4249,-1662,1310,-1283
76,6165,-2645,-5771,1130,-565,-1848
77,-6201,614,1507,-883,296,1062
78,-2847,4211,-386,-1374,-1335,1199
79,83,3742,-7792,-1612,293,-1206
80,3471,-6320,1147,-1397,-467,-1776
81,-4389,4402,-1458,1243,547,-1087
82,3210,-6264,-4809,869,1117,1651
83,4368,4301,6441,1455,608,1864
84,4402,-839,1066,306,173,-673
85,-6100,4221,5273,724,-1740,1483
86,-93,-6468,2161,545,278,-1384
87,-6710,-6368,-5135,-1035,83,43
88,4848,-4638,-3044,1952,1770,800
89,576,2345,7604,1431,265,1607
90,-7041,-1979,-2978,1003,1079,-753
91,-5751,7521,-7966,-1224,1330,-37
92,2262,1253,-1859,-903,-1987,1159
93,874,-109,-748,1286,-156,-795
94,4519,-2775,4528,1982,-941,-1198
95,-7944,-4078,-3753,806,1806,-8
96,3932,5805,4973,1264,1631,544
97,5812,4417,-2939,1119,-398,-474
98,-3810,-5532,2202,90,510,-1625
99,-1980,4392,5499,137,-41,1411
100,-5096,-2125,-1960,1244,251,1017
101,3185,5660,7082,719,1908,1165
102,1864,-3085,-7379,-1352,1367,-1780
103,281,5328,-7581,478,290,-694
104,-1251,-7449,5886,276,-640,1696
105,4144,1746,-2500,-1261,-100,1739
106,1896,-6772,-3746,-676,-763,299
107,-7895,4385,-2199,1331,1880,-199
108,4119,7757,-4730,-955,373,-415
109,7279,3134,4977,780,85,-221
110,3751,5891,114,-1546,-284,753
111,-3839,314,-7223,-739,-1879,-777
112,6361,-2266,865,1824,-1713,1029
113,6881,5627,-928,728,-645,449
114,5837,135,566,358,1958,-1471
115,-6128,-87,2171,-867,-854,1260
116,-3233,4349,4739,1735,-137,-905
117,-3863,5496,1234,-1787,-564,-1168
118,3398,3200,-1850,-1237,694,629
119,-7609,-4834,-606,-1372,1900,1727
120,2623,-817,1383,790,-1275,-1106
121,-2033,-7360,6488,1714,53,642
122,5033,-3203,3947,1421,-1232,177
123,3235,4933,-4863,1222,1600,-1647
124,-7900,4850,4358,1470,1479,-1630
125,-5587,7029,995,-1998,-743,565
126,4793,-5154,-4856,-1413,-1541,-1189
127,7762,-7197,6836,-1230,-472,4
128,1235,-4254,6778,1488,1892,806
129,5091,6320,-589,1000,-326,-59
130,-4976,-644,-3006,-924,1949,1775
131,-3321,3779,6143,-900,1822,1162
132,-410,-7192,5507,1384,-236,-1530
133,5609,-1927,-1494,-54,1572,841
134,-4082,3157,-2881,-755,1952,103
135,-6562,2980,-3242,1791,908,-735
136,-1543,7284,6522,1907,1079,-339
137,-6080,-5278,-2457,-1940,1192,-1190
138,-5277,4116,-7295,-868,-1383,-1343
139,-7761,4910,3679,819,-1358,-1688
140,-744,4269,-6868,-1376,1154,1032
141,7659,-902,2235,1525,-1370,-67
142,3935,1533,-3022,-1605,1746,-1684
143,4568,-3487,7489,1582,-314,1080
144,430,3867,-2628,-1635,-140,189
145,-6680,2523,1998,-1004,-505,-1019
146,-1835,5149,-5294,-1108,273,-347
147,-2881,-7953,-5161,982,908,-1468
148,-4330,-2929,-6503,1746,-1814,815
149,-1945,641,-2957,1748,-1440,1687
150,3114,2078,-7070,1350,-1538,-189
151,4392,-4582,-2744,-206,-707,1991
152,-2653,-2348,1537,-1840,1281,488
153,-252,5502,7837,1235,-1390,-497
154,-1272,3924,5149,-1367,-602,-1627
155,3689,7369,-2559,-412,1079,1973
156,663,7790,-1963,871,-900,-778
157,-3165,3738,3079,1301,1616,872
158,2138,-2480,686,-1782,1815,-147
159,6360,1798,2607,1158,1013,-1014
160,3590,-7676,-2157,-1947,-161,408
161,-1214,7968,5185,-1597,676,602
162,254,7249,5272,922,-308,560
163,2292,-4766,-1682,-284,821,628
164,-5689,-3467,-1552,1195,1068,-1977
165,-7646,-6227,3622,-136,42,-136
166,-7788,533,-4031,121,-101,42
167,-7365,-3790,3181,-652,-1006,1333
168,-6282,-6843,-7875,-451,-695,-1411
169,1162,3964,4015,1352,-1848,1590
170,6761,7658,5583,1971,-752,-1544
171,-2455,350,6529,1290,1010,-495
172,-4907,-575,-4917,189,1197,1054
173,-2791,5695,3788,-1184,579,650
174,-7369,-4987,3659,-1376,419,1888
175,6415,-2210,-994,-874,896,-304
176,-6476,-5059,1227,-1986,707,-1385
177,1113,-6618,-7055,668,-1076,1771
178,-3552,5467,-4881,-1664,-1516,1873
179,-1518,-3796,219,1029,-985,-307
180,-6809,-1744,4145,-1603,1813,-64
181,7584,6073,6222,388,-438,-1948
182,-2090,6337,691,-463,1662,1915
183,5006,1556,7643,-543,392,1675
184,7972,-5824,-642,832,638,-1556
185,-383,-458,2924,1285,-723,656
186,-3182,7257,459,-255,1590,-1366
187,4615,-7841,-146,-368,746,-1799
188,-6802,533,6445,1150,-1243,1182
189,-3352,-2284,7165,1973,-1491,389
190,-6955,-5283,6427,1193,637,-328
191,3200,-4879,5350,1547,-114,-1797
192,-6578,2799,-2972,-930,-1542,985
193,3205,7719,4746,1572,-69,1540
194,-7808,-7998,-3916,853,-427,-880
195,4195,-6121,513,256,1404,579
196,-2973,4020,1325,-1552,1782,-774
197,3353,3994,-947,-246,912,624
198,747,2023,2579,-720,437,1770
199,-2165,2802,4688,-1479,1592,1492
200,-7167,5458,-502,-402,-1687,1597
201,954,5820,4393,-1272,667,-1147
202,-5878,-3789,-1450,414,124,-38
203,1558,-5692,5334,-1684,111,-611
204,6984,-2372,-4975,985,92,1896
205,-3958,510,-7553,-1560,-336,1835
206,1912,-5276,-2198,-437,427,1720
207,-3670,-1864,-3307,1108,1789,898
208,7078,4420,3253,1398,-50,-342
209,-4039,-2723,3418,-146,-493,-349
210,4229,-4844,-7230,1817,-1168,1229
211,-852,3924,-6716,-562,1497,-1999
212,387,-140,3903,-392,1598,979
213,-5631,7009,-2950,556,-1533,1733
214,-2590,7246,5670,-200,322,-693
215,7086,-4168,557,325,1196,801
216,515,664,7979,1335,1819,643
217,-676,6411,3530,-712,-1336,612
218,846,-5056,842,1366,607,-260
219,6242,-2870,-3443,705,-478,611
220,-7623,-2271,5606,1453,-1031,-590
221,6459,90,-1110,21,-1758,-1924
222,-6547,-7951,-2651,1219,133,-1186
223,6914,-2274,2087,1897,-1773,1216
224,2058,7826,5421,246,1762,-620
225,-222,6741,4085,896,1053,1247
226,-1365,-2817,7783,-408,-196,433
227,-5008,5240,-1061,1205,195,137
228,6347,5390,3235,-307,-358,-1712
229,-722,-1712,-5066,-1812,-447,-1654
230,-5324,1221,-7843,-154,-1027,1070
231,-3877,-3821,-3762,640,-810,-38
232,-2308,-7111,5398,-1880,-1775,-593
233,-4971,6324,3864,-139,-1874,1713
234,2734,-3558,-57,-1209,-1651,-755
235,-6636,-7750,-3926,1630,1362,-342
236,-3100,5085,-1315,-564,1530,626
237,2787,-272,2516,1560,-1882,1854
238,-4186,4756,3041,1554,-57,-1717
239,-5693,1627,-1594,-1494,-1476,892
240,-1792,2708,-162,425,512,1130
241,-4172,-396,-3417,-1248,-1843,-1739
242,1009,-7151,5773,-1118,-1487,1836
243,2370,-1515,6333,1809,-1490,805
244,-5939,-7564,-1176,1539,750,-1066
245,183,-4736,-7192,-348,-430,1166
246,2293,7280,5304,0,-539,-960
247,950,-444,5006,1866,-449,-669
248,5721,-2001,-5666,1934,-9,-1823
249,-1522,1326,3523,-1620,1140,892
250,-7463,-7274,5301,-433,-799,-111
251,3366,-342,7641,-895,1407,-577
252,6936,-1607,3663,496,-1687,-698
253,7140,5414,-857,-1302,-1138,1718
254,-5366,260,5723,1868,1798,-526
255,2585,-2299,-2981,-956,-347,917
256,-1262,-5111,-2357,1351,639,-1590
257,6232,6977,-6465,-994,656,981
258,-5361,2709,2847,1244,-1777,-371
259,-4554,-6502,-5650,-1909,326,1039
260,-2395,2825,-92,-1917,1771,775
261,948,5782,1445,-1514,1313,877
262,6464,-2031,1241,-682,-1801,385
263,3328,-282,1259,316,927,1308
264,-5595,-6227,2100,719,673,1560
265,-4515,2255,-3143,1002,1895,1935
266,5214,-966,-6217,-1067,1090,-1247
267,198,5132,-107,107,1542,916
268,1519,4596,3445,-51,-1305,1274
269,-4436,4282,-4569,1202,170,-1186
270,-1515,839,-205,1020,384,4
271,2763,729,2968,-1969,-286,1136
272,-6001,6323,3177,-1723,-1086,-1525
273,-5087,3144,-7711,-1093,-1429,-922
274,-6719,-7343,2154,823,1288,-155
275,-2159,5229,2911,-1526,1669,-1007
276,5177,-1030,1077,982,1975,-327
277,-306,268,5557,-694,1872,1649
278,-693,7834,-2800,-229,-1518,-1882
279,4300,7745,4511,-1825,-491,1479
280,2362,2889,-1610,-564,-301,-1835
281,478,5533,-587,-318,1970,-1883
282,2902,5482,-2072,71,-728,-908
283,7103,-3186,3540,1639,-833,-1263
284,6716,-753,6821,-949,1833,-207
285,476,-6712,1883,1123,-1075,469
286,-3518,-586,-1815,-1672,-1678,379
287,5153,5458,-6922,-1443,-1776,-478
288,2486,-4936,4380,1182,1805,1800
289,-7086,630,5726,-329,1983,-1171
290,2967,22,5097,-277,1747,1167
291,-5165,-5981,-429,-1574,-1452,-722
292,39,-1201,-6636,1749,1065,-138
293,3090,-5530,441,-492,1524,-1240
294,-3214,-3205,6798,1387,324,558
295,-6883,-4609,7709,-552,-810,-940
296,5699,6271,-3497,170,-269,1907
297,6272,1653,-1014,-1077,-1361,1316
298,4451,1633,-5003,-460,-1492,778
299,-6836,-3321,5863,-1372,1111,841
300,-5522,-5143,146,-729,-1778,-114
301,-4840,7764,3568,1896,-12,1076
302,1787,-2734,-5887,-751,-544,-1116
303,4268,-3665,-3631,-1038,-759,321
304,-894,2257,-5246,858,-967,-883
305,-729,-2272,6297,-1459,-130,-1169
306,-5068,-6414,-7549,787,-1116,564
307,-1803,-3740,-6347,1418,-1740,-309
308,5209,923,-6303,-722,-1694,-885
309,5210,1591,-2487,281,-916,-1644
310,-2303,-6023,5713,580,-1922,-315
311,-7434,-5899,1099,1296,-1041,-679
312,-290,2759,-1878,797,-1844,-482
313,-5245,-6845,-5228,-118,-1343,1671
314,2592,3201,3785,1127,703,1576
315,603,-610,4509,-562,1088,-1205
316,469,7346,-7654,415,-408,1087
317,-6903,-7370,-1872,-885,-1932,-693
318,-4259,-1974,-3928,-1825,1169,1751
319,3833,-313,6555,1362,-1139,-741
320,3757,-6709,-6237,-828,828,1880
321,1162,4638,-4747,-1858,-69,-906
322,-1590,7931,-6439,413,1407,-1260
323,-3572,-6847,-3808,588,-1775,-1690
324,960,2168,-5894,30,1466,906
325,-4364,-5183,-4497,-1259,-1804,-161
326,7397,2403,-1147,-1303,-972,943
327,-5077,-7395,-1599,450,1761,315
328,3729,-779,130,1927,-951,1144
329,-7002,7220,4442,-400,742,4
330,1208,6235,4875,-1527,-361,959
331,1817,-5645,4906,1076,1675,1876
332,5488,-2823,-3272,-982,-493,-953
333,-3140,-4289,2867,-1274,1851,-851
334,-3107,-3230,2435,191,1627,-1321
335,-1761,-3826,-4387,644,553,-610
336,-2004,4502,4321,416,-588,992
337,-6158,7308,2904,-1864,-1014,831
338,687,-775,-4549,-474,-1514,-40
339,7779,-1504,-1352,-1312,682,-334
340,2913,4710,302,-1588,-1115,942
341,5992,-3915,-7584,1088,-43,1720
342,-6746,-93,2744,-1474,811,1099
343,6070,-7468,4651,1681,900,-1812
344,-2376,7263,-6857,992,575,-1841
345,3529,1199,4258,1489,1846,506
346,-3842,1994,5927,1773,-47,-542
347,7919,6695,6126,550,-1103,-1833
348,3112,1931,-6330,-1477,1132,15
349,-5197,147,-6856,892,-1774,-1208
350,-2103,-2554,-281,1754,-443,-769
351,4097,1058,6880,604,-312,139
352,229,-6627,3837,323,1363,1790
353,-4828,-3058,5024,688,-1651,-69
354,-1648,5117,7273,-94,-1342,1553
355,2990,3961,-7477,-1771,1348,1253
356,-5820,7554,6495,-1905,-1865,-1986
357,-947,5636,-6623,472,-135,1239
358,-5503,1837,-2421,233,899,45
359,4306,-6937,265,-669,143,852
360,-3004,-6816,-4766,1222,475,1754
361,6815,143,7705,-119,-282,-367
362,4608,-772,7982,982,-214,-1553
363,4320,6520,-3963,-1618,-1792,-271
364,-4555,5999,4826,203,-1379,-1207
365,-3586,7331,6461,914,-1529,913
366,1505,7255,-2254,747,-829,-1077
367,57,5005,-4526,-1287,1263,-264
368,6813,851,6635,216,723,-81
369,5271,1204,4336,676,213,1236
370,-513,2583,-1456,1687,-1036,-231
371,-6364,-1008,3824,-1779,1190,-1527
372,-1754,-1414,-7907,1245,1011,-999
373,1168,-2229,-6237,-468,-11,-635
374,3008,-2992,-2237,231,81,-788
375,-2638,6291,640,-762,-517,1061
376,-3817,916,3835,1301,-1453,-604
377,544,2630,6259,85,1256,869
378,-1938,5625,2463,-1887,1643,620
379,886,-2833,1664,-171,-1782,1247
380,6872,4369,-3274,325,-897,1919
381,-1869,-5976,-7486,-1438,-166,462
382,-6447,3914,6336,398,-228,1610
383,-4541,-1547,-4581,780,1369,-422
384,3414,7354,3988,1454,719,1896
385,-6769,-2875,7676,-1906,261,-304
386,5436,-52,-7620,867,-1685,574
387,-2851,-936,-3025,-1895,287,1104
388,-1302,-7591,-5578,1239,-1416,-1517
389,-1508,766,-6570,1389,-1584,859
390,-2432,-4445,-2544,-54,1655,-1235
391,2717,-3446,-1993,-989,1028,1523
392,-7929,1870,-2394,-1392,636,-1727
393,6527,4427,3921,-1405,570,1579
394,852,434,2733,-494,56,787
395,-5242,7298,-7688,1480,-1880,1441
396,2389,-2560,5285,-1165,-949,-1638
397,-7687,-2211,-5109,1131,-1846,-922
398,-6886,4955,6289,-1245,-1795,-1487
399,-2100,-3997,-3262,1146,1312,-1776
400,-6935,-5890,-7827,859,-148,-1487
401,161,-6046,7702,-1030,1281,-1433
402,-7433,4207,4219,-1551,1976,271
403,-6846,14,7593,-326,1921,1057
404,-1346,6345,3597,1568,-1174,-638
405,-2519,2930,-5715,1602,1790,1683
406,816,-6871,2655,929,1084,1816
407,1430,2973,-4252,-681,-1355,1351
408,2173,2445,674,-1843,-863,-345
409,3764,-13,1835,-1990,-249,-1838
410,-4898,-5135,1297,-1072,-1995,382
411,75,7344,-4354,1496,-900,-1000
412,3268,-5364,4314,-1070,1365,485
413,-4024,4897,669,992,-1862,162
414,3788,-3788,4788,-1408,-844,1503
415,-864,-7780,3085,967,1379,544
416,7041,-1865,-2408,1595,1622,278
417,-4419,5521,-7443,932,851,-826
418,496,-370,4236,-1181,-1706,-1654
419,-4141,-2403,2437,227,215,1027
420,6289,-2600,-2226,-758,1847,-1364
421,1466,-1240,806,-1029,668,397
422,1144,2771,6544,1316,-1102,-1046
423,2849,2744,-4026,67,1914,-36
424,2519,3251,-1734,418,554,-834
425,-3077,5421,4427,1825,471,1015
426,4911,3288,3514,445,1517,879
427,149,430,-918,889,653,-1843
428,-3382,-7505,-2679,714,953,-238
429,-2624,-7586,6745,-843,1760,-677
430,-5004,-2343,-2083,1676,-1050,491
431,-5995,-4143,503,1820,-1189,1092
432,7601,7639,6833,-119,1835,180
433,2466,-305,527,1754,-734,1871
434,4225,-7807,-6130,-845,444,1516
435,-1784,-1580,2114,-1836,176,-784
436,7164,2052,-1256,-1039,159,1893
437,5703,-6156,-4479,-149,1642,299
438,-1378,-6358,-3192,-1687,132,1344
439,-6163,-4224,4450,-311,1392,1513
440,-5856,2444,-1041,-1717,-1710,-1463
441,-2515,-4429,-6149,623,-1556,-504
442,-5112,3740,-2233,1868,1146,-1378
443,-243,7555,-3907,377,-1726,947
444,-1953,-3510,-3112,-830,1084,285
445,-977,6060,362,1064,-61,-1234
446,-7706,351,-2016,-760,1180,-172
447,5635,-788,249,-980,-658,-1736
448,-1008,-3974,2510,-542,832,1907
449,3550,1636,3634,1376,877,-1394
450,-831,2182,-7433,766,1604,1712
451,1579,-5931,-5930,27,-281,308
452,-1158,899,-5595,377,-59,1454
453,6273,-2748,-876,781,-481,-479
454,-4778,3516,4027,355,-917,-1851
455,-3050,6843,-3977,-420,1540,-761
456,7179,4795,5213,-795,150,131
457,5860,-151,-7862,1589,1228,-713
458,1013,-5514,-1999,350,-342,-1832
459,-2629,-3610,-3523,413,-1564,-1418
460,-7466,-3463,4133,-757,671,953
461,144,-217,-6494,-1033,-1107,-273
462,6491,4627,-2828,1853,-226,-691
463,6743,5303,7433,-494,-1382,-1367
464,-4375,-1958,-3170,-1546,-81,-1387
465,5945,3832,2833,362,-1172,1974
466,3402,-1663,1389,1737,-548,-935
467,2465,-4521,-2871,443,-987,1620
468,5403,-5722,6845,565,551,164
469,2627,-2479,-2331,1268,-435,1745
470,3715,3656,-534,-1805,-216,100
471,-3051,-1799,2535,1300,1865,254
472,-1303,3566,5885,-1020,602,886
473,-5810,728,-457,1648,1186,-433
474,1267,2717,3179,-1461,983,-335
475,-666,-5004,3829,253,-278,250
476,6498,791,-952,1400,-1987,-969
477,4770,1414,-3949,609,566,936
478,-2986,-117,2101,1045,1686,-1842
479,-7688,-767,4682,-936,788,1219
480,-4478,-1387,-4179,120,-1212,-1571
481,-574,-2846,4940,1801,135,-1145
482,-6180,-5864,-308,-1504,-1322,1448
483,6385,4923,5026,-531,821,234
484,807,6486,4743,1401,1434,-1632
485,1413,2252,6349,1573,1249,-479
486,260,937,-4203,1776,1087,1230
487,-4536,1392,4956,1547,-1188,-1794
488,-7065,2501,2657,222,1246,-1287
489,-5233,-332,2069,827,-862,494
490,1806,-6624,5119,1215,35,-934
491,1872,5355,4906,370,-200,-795
492,-3600,7813,716,-1738,-339,926
493,-2623,-2572,4931,805,-180,-64
494,-6095,-4811,1426,1186,231,1552
495,5183,-3782,-7193,-1556,-1815,324
496,-2708,1528,-5385,1678,-353,437
497,7195,-2361,-7929,-379,1259,-1269
498,718,7543,-2717,-1069,842,1433
499,7595,-6039,621,669,434,102
500,4877,4935,1540,899,1131,-1985
501,1934,-5150,-5615,-807,1338,570
502,818,-6221,1239,1701,917,1377
503,7804,-3610,-6019,-15,-1259,-1619
504,-4778,6971,7508,1108,-945,-1980
505,-880,-851,2254,187,164,72
506,4670,-5241,-3642,-976,61,534
507,-4992,3975,-979,-740,1605,-479
508,3950,-1788,4856,-1389,1084,671
509,3663,7408,456,297,1947,1780
510,4419,-3023,6344,-1099,-1689,1224
511,604,5187,3860,-1508,-204,-1467
512,3676,-3057,5518,-198,-202,-1973
513,-2822,-2826,3849,812,1870,744
514,-6169,7540,-2183,-1235,-1142,432
515,-4230,5868,7397,-1009,-473,1199
516,130,2895,7520,572,1961,-1516
517,3150,-7356,-2153,49,1239,-631
518,-7315,-2417,-7237,-1261,960,-1043
519,7914,-6406,1931,-1299,-796,214
520,1333,-7670,-5656,704,-368,-68
521,4917,-705,3913,-999,1610,1039
522,-3208,6467,7348,187,1629,174
523,1948,6926,1268,-253,1428,-1875
524,-7038,6620,907,1798,1919,1101
525,-1601,-2775,-6899,1619,487,1191
526,-7672,-5144,6514,-204,289,656
527,-6670,-3870,6157,761,1846,340
528,1921,6842,1866,-617,-140,-1171
529,-3388,-809,6971,502,-1582,313
530,5936,7730,-7044,-728,-1799,780
531,5171,-4574,-7988,248,-1447,700
532,-4490,6133,6549,1686,-100,-1756
533,-7250,6662,-6307,1899,1936,-157
534,1279,-5629,1748,73,-122,-796
535,3572,-5502,403,929,837,-751
536,-2070,1880,1925,-631,327,-732
537,7653,-6013,7539,-875,1007,1290
538,-6573,542,-3450,324,-1954,1908
539,2067,5281,-6009,1047,-688,1406
540,-4100,-1108,-465,-901,-487,1277
541,3936,-3409,-6431,-682,-1364,-751
542,6694,3050,7031,-1092,-1338,40
543,7086,-5034,6375,1452,249,-1440
544,36,-3351,2601,1327,-1017,159
545,4570,-5087,-2285,1873,-835,479
546,-5417,2192,4491,-1719,867,-6
547,-3075,-3174,4814,-131,-512,284
548,-2187,5800,-6656,1991,1881,480
549,-1455,2217,-4759,103,-396,-1544
550,2345,-3579,3968,-480,1099,1797
551,-4605,2759,-11,1134,-1797,-1911
552,-2765,-961,3208,913,-1757,1297
553,-6899,4112,1245,201,1375,-35
554,6492,6130,7273,1104,1161,-1540
555,4215,-742,6978,-36,-14,-423
556,2984,2744,-3601,-784,-1782,-1451
557,138,6640,-93,1620,-1977,1783
558,-5117,-5023,1096,1388,1021,-1079
559,7642,-6992,4618,465,-1728,1230
560,-7206,3020,-5296,-1869,1973,-226
561,3731,7239,509,1122,334,28
562,5283,-5952,1758,1015,896,908
563,2540,-2551,-5032,-1234,134,-609
564,-2189,-6743,-4212,450,1903,-968
565,6339,4518,1419,-1598,522,218
566,4758,-2284,-3189,-280,-1376,826
567,4539,-1418,3878,1478,1306,-1238
568,7258,-1965,-445,1798,-233,928
569,-5187,-6455,1519,1872,1880,-1808
570,-5396,-1512,-1477,-1036,1413,1078
571,948,1139,7266,627,85,1927
572,-2596,1874,-5056,222,149,-143
573,-137,5484,-4740,-552,-587,-1991
574,6737,2300,-607,444,1863,-592
575,4764,-3790,327,-44,-1253,-146
576,-4520,6435,1064,-129,-1306,817
577,2165,5450,7938,-1347,-1090,-1245
578,1344,5306,-2325,-883,-917,-1804
579,68,823,-4732,535,-716,-763
580,210,-5735,-1465,453,1847,-1944
581,3444,-2528,6276,-1376,257,407
582,5877,-802,-1613,532,-1859,1526
583,4235,-7105,7527,-224,953,1596
584,10,2758,4953,1043,517,1054
585,3041,-507,993,1102,-615,-1663
586,2290,-3327,-204,-1370,1946,-1301
587,4370,6545,-4609,543,1920,-1125
588,-4414,7115,5293,-1899,1272,427
589,-5478,1462,-3486,-101,1086,-861
590,1008,7737,820,1719,1610,1266
591,-5961,1722,5343,1639,1206,347
592,-447,5054,2512,-857,-1477,387
593,-7824,6162,4902,-1818,1699,386
594,1625,-5763,-456,-656,145,-719
595,-7059,1436,5346,75,485,1131
596,6468,7744,-4317,-347,1013,317
597,-6861,6565,1340,-1640,926,952
598,-6446,4134,3966,-715,-817,653
599,-7280,2977,-2026,-1960,-1578,2
600,-5970,-5014,-76,-1546,1538,-1381
601,1250,148,-5252,-84,1002,1605
602,-6507,-4793,1293,1589,-787,1350
603,-4922,-2901,-1443,-1365,-1207,719
604,4583,3817,4747,1908,1455,1893
605,-1501,2528,1003,-905,218,-1161
606,224,6101,4966,-1728,1399,-976
607,1466,-1249,6597,-156,356,31
608,5829,3096,5648,-1810,673,1324
609,6058,7631,-6684,-519,1989,973
610,2024,-1000,6561,-1767,781,995
611,-1303,3667,-7711,-659,1357,205
612,5787,3190,259,-1505,152,-905
613,5425,6031,-252,-958,54,1379
614,3983,-1483,18,459,586,-617
615,-5240,-4757,-1612,31,-203,-724
616,5243,2421,-4626,-487,959,-1037
617,1406,1284,2637,1459,996,4
618,-7960,5691,781,1763,-442,368
619,-603,3180,-4183,1350,-788,1779
620,3235,-7953,7370,1405,1339,-1519
621,-1917,1500,-7344,-1388,-584,724
622,-5931,-259,-865,-1867,-1327,-1671
623,1804,-1866,4040,667,204,1579
624,6619,2434,-1778,-633,1651,1027
625,3795,-1610,-5130,932,-611,527
626,4881,-7328,6760,-201,-896,1814
627,1306,6411,-1289,868,-681,-729
628,-4173,-4286,-3496,1773,1117,1246
629,-5039,-6784,-2834,-1595,-348,-1626
630,7314,676,729,-703,1331,-712
631,-3275,2055,-6841,1871,-1574,-343
632,7448,3524,-6117,545,-236,-855
633,7075,-4328,-20,-924,1994,-1795
634,-4750,850,4944,-1035,412,703
635,2916,-6932,2529,-275,318,-666
636,1353,-812,-3701,667,-671,-699
637,-5429,-2399,7900,1919,-1242,338
638,5663,4435,-1326,-1929,-647,346
639,-4350,1524,2403,225,1825,-1389
640,-4647,-362,-3168,600,-1938,-1169
641,-7765,-7182,-4559,1164,-986,-92
642,-4441,-2901,4560,-1111,-954,799
643,65,2821,-3006,673,-872,-945
644,1640,2296,3620,1124,-630,229
645,658,-3240,-6058,-1118,1726,-1560
646,6763,1437,4802,-749,1309,1608
647,-7310,-7372,5810,-399,-1176,1437
648,-166,1013,-1707,1839,-734,-681
649,-907,-1352,-7647,328,-208,-1522
650,-1257,5061,-1592,-1943,-1605,-1349
651,1406,-2589,3058,-919,613,137
652,1782,6444,-2550,-1891,451,-570
653,647,1882,-3887,551,-896,-1256
654,5301,120,3955,491,670,285
655,-3969,-4350,-3230,-506,1146,-1645
656,2825,1009,5226,276,-892,-1481
657,6377,-6600,4177,51,-207,954
658,-4446,-766,-3328,-819,725,1196
659,7334,4793,794,-1981,1314,654
660,-7892,2327,-1477,1288,954,843
661,-7488,2984,105,1829,-1651,419
662,-1288,-7035,7870,919,211,107
663,-4708,-7310,5534,-1342,109,301
664,5477,-6872,-3024,1982,-1652,1605
665,-2069,1087,7941,1447,1918,1515
666,-6916,-1708,5958,-124,1537,1775
667,7992,-4506,-1462,877,-843,-1011
668,-6698,-4518,-4844,-777,1056,16
669,5347,7106,-7211,-701,-173,-1813
670,1126,5203,900,1550,1336,866
671,-6377,-7555,7716,-983,-364,-1910
672,-2774,-632,-4195,599,1613,-1337
673,4589,-6821,690,975,589,480
674,375,-3421,-141,1748,-1460,646
675,-5097,935,6430,469,-626,677
676,7750,-2838,6297,1077,-752,463
677,-2164,-6852,3274,-199,-731,-189
678,447,371,7430,177,379,-319
679,-3557,3429,7731,-647,934,1751
680,-1686,7725,-248,-897,-178,-1120
681,-2397,-1502,3084,397,-1073,72
682,1134,-2145,-1079,-1719,853,747
683,7094,-7890,695,1362,-120,-908
684,686,2385,6164,546,-136,-1891
685,2709,-6708,5599,1342,-118,732
686,5079,1969,-3506,1066,322,-1689
687,7243,6468,-1930,-1213,-194,-1958
688,-1487,4733,4705,518,322,-1962
689,3998,2503,-2277,-504,1005,-929
690,924,-1716,-1037,-114,1946,502
691,7149,-4069,3987,1993,-706,40
692,3017,-2721,5974,716,396,278
693,-1690,7963,-2040,1020,-5,1621
694,-6773,-6821,1223,-346,165,-346
695,7907,-3506,3360,1322,-732,1872
696,4143,2890,-2,330,-1716,-517
697,3153,-2087,-6613,-1343,1281,-394
698,1866,-2181,-768,-1028,-259,1744
699,-6958,4678,6994,1380,1242,681
700,-6042,4448,91,1336,1513,1441
701,-6181,6461,2739,1079,1988,4
702,7073,1769,5604,404,1069,-192
703,2311,7042,4982,-1081,1647,-999
704,6006,-3797,7337,391,-965,786
705,1600,-7879,-222,1226,-1438,-884
706,-7106,-7119,-485,1307,-1597,-1832
707,2536,-4195,2538,1872,-1104,76
708,444,476,7016,1500,-52,1468
709,354,-2542,-2855,-467,-773,187
710,-3910,-5841,-1993,381,588,648
711,6246,4637,-4371,-1279,1477,1448
712,-5162,-4392,1814,248,-483,-1819
713,6394,3175,4291,-261,-1305,850
714,4913,-7928,-5968,34,-140,602
715,3406,-7341,-1934,-1307,1252,1438
716,1929,-3050,-6706,-1323,835,837
717,768,-820,3640,29,312,873
718,-2168,-7142,6926,781,1114,-960
719,7726,3621,-7750,-1570,1022,-1588
720,1705,-1938,-6817,-594,1331,-896
721,7763,-6429,6869,-81,-1150,1405
722,-1677,-6687,-6148,1902,1150,458
723,-4149,5542,-1077,1826,-856,1544
724,7940,955,-324,1258,885,-169
725,-1247,-143,-2429,-433,-658,1983
726,-1173,6717,1844,-848,-1840,-1990
727,2835,7648,-5888,1375,-850,846
728,-3006,-2178,-5131,1732,-873,-303
729,-5397,5097,106,79,-78,1604
730,7105,2608,6470,-993,-595,-1469
731,-7536,-7138,6658,-1760,-703,-755
732,-924,1133,3418,239,854,793
733,-6964,1151,-2493,187,664,-826
734,2159,-7796,-5503,1149,-356,-144
735,-4610,-6231,5652,1307,-583,-645
736,-7389,6522,5532,1781,192,-749
737,-7269,-3,4083,392,-192,470
738,-983,1670,-6889,-613,-1636,1512
739,-6578,2089,-6143,1694,-1846,1985
740,6334,-7954,2785,953,1493,-1682
741,2206,6052,6008,-40,1737,1068
742,-3578,-2321,-732,513,715,1085
743,-6870,-7921,1063,1578,-677,457
744,1647,-153,-672,301,1509,-1515
745,2749,5461,4267,-1743,809,802
746,4633,-5820,2663,571,-741,511
747,-743,-5540,-6067,207,1298,-792
748,4514,1638,6183,449,132,-308
749,-1493,5204,5214,873,475,835
750,-1960,2894,516,493,-94,1801
751,-241,1528,3533,-1779,-941,635
752,-108,-21,-326,132,1761,13
753,5009,2215,4524,271,741,1048
754,-3613,-5943,6407,1504,-192,-1279
755,7293,-4605,1337,-962,-1417,-49
756,4400,-1444,3093,-1366,-1395,-593
757,1418,4848,-6035,800,-1645,1375
758,-3747,-194,-1940,-805,-1437,-880
759,-534,-3084,4446,278,-986,1663
760,-6094,590,2494,-735,-1425,238
761,-5889,5720,1556,-590,279,1381
762,-4536,6909,-4068,-778,-1442,540
763,-3208,-2972,-5534,1728,-1672,1086
764,5836,-1050,4770,-1336,-466,-1300
765,-1930,-598,-435,-1466,517,-1860
766,-611,5095,-1672,386,1760,-1243
767,1603,6023,560,1070,1880,-1417
768,1300,7191,-7660,1037,-945,-735
769,3146,6949,2417,-860,1812,1431
770,-1030,-464,7054,-209,1070,-495
771,6097,1656,-6264,-513,1127,1122
772,-587,-5153,5110,1224,1077,-738
773,-5821,-1829,-7320,1308,-173,-1795
774,-3080,-5588,3664,1168,-1822,843
775,-5773,7405,7347,-1793,-1292,1465
776,-5418,7359,2903,112,1009,-716
777,5054,4055,4381,567,26,880
778,6828,-1862,7493,-1956,1386,1723
779,-7339,7775,2921,1512,-1651,-580
780,3973,-4856,-2557,1710,-1476,1976
781,-6852,-3095,7547,612,1699,-924
782,6384,5668,-85,-1541,-552,163
783,-3187,1688,-2206,-222,-1897,-476
784,6083,-3660,988,863,1640,444
785,-2248,4954,-7534,-1350,262,-1474
786,3798,-4489,-4617,1471,87,772
787,-5515,4912,2713,-1199,1704,-356
788,-5785,-2317,-1215,-853,-953,-1987
789,-1352,538,2868,-217,1913,-808
790,-7536,1465,5634,-1308,1379,-1664
791,-4412,4701,6762,375,1322,416
792,7627,-5912,3106,1584,70,410
793,-5172,219,7009,1502,-688,-1594
794,-3123,-6505,3046,1599,11,-1582
795,-271,3895,-6966,-1287,1414,1245
796,-2004,-2348,-5814,443,1956,-1009
797,-290,-7596,6381,648,1235,672
798,2122,2025,-2889,-602,614,1191
799,-7006,1529,-1890,-1036,18,-1013
800,3731,-5845,2562,-1915,-735,-561
801,-2632,-153,-2047,1243,351,-1569
802,329,4845,-4626,785,-1988,-446
803,-4049,-5767,-7103,-789,-868,-1184
804,-5884,-1678,2113,524,1403,1215
805,6620,870,-506,-289,-644,1176
806,6261,-7970,-6083,1032,-883,-74
807,-379,-3161,7894,-294,-1839,418
808,4672,-4745,5560,1061,-1397,-588
809,6886,-7215,-465,-941,1963,-828
810,-318,5653,1399,1750,1375,93
811,-5714,2331,4102,1473,-1229,1084
812,-5053,4194,-219,-782,-1274,-769
813,-4738,-7406,7190,1061,276,-1113
814,-201,-2560,7802,-1134,569,486
815,5222,-6752,-5378,-1138,571,-313
816,1684,-6881,3173,-1639,1298,0
817,-6356,1558,4401,336,904,1179
818,4836,-2812,-2126,1122,289,-53
819,4443,3831,2558,-1168,-574,1581
820,-766,-6651,4615,275,1786,368
821,6406,5384,4786,-550,-340,945
822,3980,-4404,977,-1769,-1792,-550
823,-2001,4302,-3039,-893,-1505,-365
824,6219,4659,-400,751,582,1949
825,-3401,793,5804,-1347,-1994,-1920
826,4930,-4736,-4194,-1537,-364,-1574
827,-47,6441,4006,-455,-879,-1833
828,-3611,-233,7421,-1685,-20,-322
829,1565,-4220,390,1291,963,409
830,-6703,-2231,2761,-1733,-498,-277
831,-3464,-4784,2779,1651,-1628,-384
832,3104,5154,4041,-1382,-1289,789
833,5622,1546,-449,-39,-1793,414
834,931,-572,6767,1172,442,4
835,-3786,1552,-1113,-1091,-421,-1675
836,6803,2706,3819,-1848,-1330,-1304
837,7398,5343,6852,813,-487,-1414
838,-2435,4387,5391,788,-1583,-141
839,2007,2934,-3185,1406,-424,821
840,-147,-3950,-145,649,-1316,-1385
841,7092,-2896,6185,1219,-1314,1623
842,-4063,-2655,-3683,-367,1715,-578
843,34,-2902,1007,-1271,-1912,425
844,-856,-6268,-6731,-669,-785,1513
845,3624,-2618,6824,758,1678,26
846,4957,-3814,4706,1252,206,171
847,-660,-7187,-7838,-1712,708,-392
848,1871,-4295,-5220,852,-1346,-1956
849,-6570,-5954,-7394,-364,452,389
850,7881,1036,-1538,1034,738,1175
851,-6487,2184,-4727,1029,-1296,-1149
852,3708,-6748,5445,172,329,605
853,-7270,-4583,-4480,127,151,160
854,-4841,444,-6746,-537,-52,-1167
855,-1072,-1083,1932,-1890,-1428,1648
856,-1027,-271,1911,-1529,1302,-1083
857,-4056,-2332,-1541,1051,-1841,-1692
858,4463,-6236,5239,1378,767,269
859,6781,-2688,2711,-910,944,1769
860,5994,-1083,-5902,-478,-1572,1154
861,4079,-6265,-3437,7,1321,325
862,362,-5668,6690,507,1102,-1584
863,-4116,6787,-218,1151,-687,1872
864,-2201,6593,-2839,1242,-1388,1400
865,6181,-7957,-4562,-132,1550,405
866,-3020,-9,-4223,374,832,811
867,1001,3382,1654,1390,1240,-1214
868,2136,-5887,6666,549,-889,-1263
869,-3475,-6075,-1261,114,-1870,192
870,4750,6483,-4179,548,-575,194
871,3811,-7026,7550,-32,-1943,1644
872,-3184,2177,5849,-1286,1153,1930
873,3108,5807,5642,1123,-1372,-1021
874,-7504,1768,-4873,1608,1351,1554
875,1625,5709,-4310,-1090,-451,-1037
876,5066,2420,-4982,556,-180,645
877,5351,5643,5154,1426,-1815,-1183
878,-3273,6248,2885,415,-909,649
879,5705,1831,-697,-60,-1258,-1803
880,-5494,2730,3292,1908,-915,491
881,4798,-4464,3046,803,988,-1081
882,5688,-4128,3957,1989,1505,579
883,6537,-864,-4483,-1064,815,-229
884,4713,3019,1175,-1317,198,-1607
885,418,674,-3809,-1575,-1946,1686
886,-3094,7993,-3611,-534,90,-1475
887,-1011,-7601,6639,-1572,1706,-1741
888,-7361,3120,7625,1601,-1327,1700
889,1701,3449,5414,1953,591,-1155
890,5945,4020,7051,132,-1661,1444
891,4125,-1421,-6226,1189,-1327,218
892,-2236,4078,-1157,-158,1779,158
893,-6772,5150,6276,259,680,937
894,3096,-3796,1521,-1381,1516,-476
895,710,-1562,-4484,1159,-1323,1077
896,2003,4142,-1274,-949,-335,673
897,6279,7403,182,301,54,1742
898,3647,-1194,-4971,-565,1974,1262
899,6500,1275,-2240,1908,-1071,278
900,2862,340,-1847,1784,-1115,-1614
901,-5488,-345,-3999,642,203,1957
902,5276,-4963,-192,-215,-1760,1063
903,5957,7612,3106,-1132,752,-1816
904,-5984,354,-5448,1411,1649,1506
905,4290,50,-2614,1539,-30,-1004
906,7718,6263,-7182,-1306,103,-259
907,-4734,-285,398,702,-290,-1235
908,-1635,-3756,-3877,-590,270,-1110
909,5868,5445,6777,655,571,-1568
910,-5051,12,4533,1003,27,917
911,-3713,-5443,-5563,1890,-1681,-1065
912,-6092,-6805,-1852,-501,-1539,-682
913,-7667,-3140,3528,539,-452,-674
914,4762,-3900,505,1883,720,-752
915,3747,4016,-2230,-469,58,680
916,-7696,3171,2937,-680,1776,409
917,-6609,-5707,7592,996,-1062,-309
918,-3121,-7874,-4347,1387,-1637,1446
919,5823,-2401,2915,69,-1281,347
920,3729,6968,-4632,-1256,1498,1737
921,-2411,6612,-1638,-474,1056,1990
922,-2234,1020,-267,-202,-1293,-40
923,2635,3355,-3362,-1823,1574,-574
924,5176,-4926,-3771,1033,-137,538
925,2589,3828,691,1773,776,214
926,-5011,-3232,-1808,-1971,-795,29
927,-6449,-4180,6183,989,-449,-205
928,1745,6963,2045,-310,-503,1573
929,5073,2453,-994,-1249,-1060,-1645
930,-4365,6788,7,-1996,-1141,-1269
931,7560,5655,7946,-1651,-604,-59
932,342,3268,-2928,79,231,281
933,2658,6932,-5496,-1917,844,-1246
934,-197,-1825,100,-124,707,-954
935,-3281,111,4535,734,-1713,460
936,4814,4038,5597,-1340,401,-1635
937,4567,6679,1163,1560,-125,323
938,4807,2607,2701,-866,-435,355
939,-4345,-706,368,1319,934,386
940,3607,6236,-883,1783,-1584,-1558
941,6000,5066,-6973,-341,-1907,1119
942,4594,2683,5806,1609,1250,-1290
943,2357,308,6318,445,323,1440
944,5189,-6967,5344,994,-72,49
945,4009,-1547,500,-1654,-1627,1689
946,-4094,2946,5522,57,995,-471
947,-5239,5460,5636,-1969,-987,-121
948,-5447,4903,-298,1536,1048,125
949,-362,-1471,-5750,-331,-1780,-451
950,-7958,5203,5242,1418,-549,194
951,-1543,-2591,6238,-1894,-1557,1460
952,-5000,-5902,-6906,1053,-508,-1436
953,658,3586,3759,1252,1892,-643
954,983,-7848,6947,-1088,-941,-1920
955,-2387,2972,2129,52,-787,-688
956,-213,7903,-151,-1878,-457,1093
957,5843,4007,-6900,-231,-1584,-1441
958,-1160,1720,-624,-1740,-665,-1956
959,-5042,-2163,-6578,-1234,-1112,1037
960,-4114,3673,-1596,695,258,8
961,6941,5042,448,-1476,-1580,395
962,6079,-1497,6533,1979,-1973,-444
963,-2851,4091,-5482,-1765,-232,426
964,-2184,2198,-1661,1196,-493,1184
965,-4758,-3528,4966,1642,654,135
966,-2538,-2068,7660,-1362,-1293,-1754
967,5627,5898,-2520,1996,228,840
968,-6954,-2240,7544,1201,-1478,-1849
969,5760,3844,3241,1816,-883,1971
970,260,-4842,-17,898,-257,112
971,2331,3553,-6575,70,-1289,518
972,3574,-1975,-6249,-83,392,1016
973,2180,-3956,214,-272,551,-1238
974,-7109,-2576,172,-1680,1657,-1395
975,-652,7781,-4716,1547,-396,-743
976,-4229,1614,2122,-453,1475,-1398
977,2871,-3123,2919,-762,1488,-102
978,-4023,4033,-6330,-1697,-1925,1128
979,4111,7145,7347,-1325,1400,252
980,7949,-7454,3197,1831,-1529,1290
981,-5531,-5814,6221,1393,-1689,1232
982,3335,-2198,3315,-1177,-1692,456
983,7013,-3330,-7040,-216,-334,629
984,1340,-2660,5979,-17,-971,-983
985,7786,-4891,-2831,-1040,1106,-763
986,-310,-6371,5079,-1324,-1464,396
987,-6226,-5598,-647,-1230,1584,1129
988,-6562,-5143,4872,1002,1864,1668
989,7991,-7639,3528,-356,177,1996
990,703,608,2086,-876,451,-1546
991,-1550,-4585,-4468,439,-369,-1510
992,-7920,-4424,-821,1863,1079,-405
993,-5311,-2974,4698,-478,647,-1799
994,1367,-415,-2372,1501,-1743,-1165
995,-3721,1845,2236,-438,-1192,-1244
996,-1644,-2771,-3018,-1639,-1542,-1264
997,2472,6985,4504,1358,612,-1775
998,3431,3368,-7903,-1847,-1512,668
999,776,1575,-2379,-1768,1992,963
1000,6866,-3291,-206,-1762,-1648,414
1001,4407,-6919,-4020,853,-332,1899
1002,6536,-358,1983,-1071,-1572,-1396
1003,-7774,7259,5124,-1519,-1246,129
1004,1952,4687,-2733,-1548,-371,1104
1005,3007,4779,6758,-392,-430,1219
1006,-6144,1876,-6733,-204,319,-1979
1007,2871,-3595,6034,-1727,60,-706
1008,-6137,-7796,-793,687,-905,-1785
1009,7740,1465,-4845,-1119,-1795,-315
1010,5,-1681,-2716,-406,-1465,134
1011,-4397,3443,-4364,1626,-1637,91
1012,-1766,1976,-5705,40,1725,-920
1013,7136,-4358,5068,-451,-374,631
1014,-1462,-50,1258,1813,-467,-165
1015,-657,5513,7965,651,-987,1490
1016,-4632,-4984,1520,1875,456,-184
1017,5742,-7918,-2560,-349,-1358,1755
1018,-4058,2169,1438,845,-767,1159
1019,1458,-2154,-2219,1340,167,-1750
1020,7514,-4056,-715,337,-1965,572
1021,903,7068,3715,95,601,-343
1022,7547,-1232,4609,-1479,-217,1351
1023,-6885,7829,1140,1448,924,-1130
1024,-4760,6717,2894,-858,-263,1624
1025,-5859,7647,2716,1062,-1158,-1018
1026,-6094,-6137,449,-1426,1738,-1289
1027,-4498,3072,4784,1966,940,-802
1028,4949,6153,5034,-36,-1006,-1558
1029,1535,-1260,564,1000,-140,1121
1030,-2465,192,-941,1863,613,834
1031,5832,2723,-2403,513,-879,1210
1032,1579,-632,-6257,-1683,520,-1849
1033,1003,-4926,-3348,-1467,-1507,-1483
1034,7513,3204,4811,722,-612,880
1035,4306,1731,7356,-1284,1924,1190
1036,-7567,-6669,498,-967,1016,-1328
1037,1933,-5651,3909,1724,-1823,1317
1038,3372,4210,-6837,-1057,-1077,-1596
1039,-713,3250,-7862,164,486,484
1040,-1315,7909,6296,-1562,1820,671
1041,5425,1693,1796,-1995,1314,1915
1042,-1430,2921,5811,830,-88,1592
1043,4687,877,162,-1554,-1161,1071
1044,7375,-6608,-3176,-1131,1450,-987
1045,-7661,3686,-2997,670,747,628
1046,3543,-547,-5262,-628,1859,-1690
1047,3724,-1144,-7125,-65,-584,1695
1048,-2842,-1648,1290,1283,-560,-387
1049,-4966,3040,3279,1220,593,6
1050,5794,-640,1372,-382,-1956,1635
1051,4843,218,2158,517,21,626
1052,443,-5068,4342,1324,-508,-1207
1053,-6917,-2600,-6859,1175,880,-1528
1054,7944,3486,-692,1486,507,1251
1055,-2693,6375,3218,546,-393,904
1056,5573,-7324,-2453,1522,284,-1588
1057,2706,-6828,-6161,487,-255,1973
1058,4168,5575,-7577,210,-913,1246
1059,-7418,4861,2022,-1805,417,1773
1060,-1240,1980,-4922,1129,-1064,1001
1061,7531,-2067,5827,1747,-1760,1887
1062,-5874,-2428,-4968,799,1456,-862
1063,-2417,-688,-5450,-2,1632,1217
1064,6355,-2274,5262,1318,189,-934
1065,3173,-4346,-6840,1675,1738,-796
1066,6802,750,-2877,1695,687,-1753
1067,1233,7844,2700,18,-1555,-1832
1068,-288,-6297,-4090,499,915,1521
1069,-1806,-6887,-5065,1163,-1847,18
1070,5572,4520,7248,-802,-1354,-662
1071,-848,838,-190,731,-202,881
1072,-4781,-1710,-6361,-1842,1239,267
1073,1327,-1802,3631,-1634,775,-460
1074,3143,-3466,-4269,1863,1447,495
1075,459,-3792,5966,-1434,-451,639
1076,-6782,-6111,-2101,779,-1435,-1979
1077,-2922,6434,4024,-1578,892,-167
1078,2013,7757,-2785,524,882,774
1079,2673,-6447,7159,-713,-1892,-1987
1080,-3600,2693,-3903,642,1912,1115
1081,-3300,2128,6774,-585,90,1604
1082,4796,-5868,4624,1326,1043,-1155
1083,981,-5242,-4748,1628,1917,302
1084,7721,-7442,-6049,-511,-1192,109
1085,4882,3267,-196,182,-1136,1132
1086,2342,-6475,-5046,573,-61,-1689
1087,3222,-5533,615,-1623,426,-1158
1088,-3400,-4486,-1873,-1352,920,-198
1089,6228,5788,-1152,1761,845,1476
1090,5587,-2648,-5388,406,-363,-323
1091,3680,-3297,-3674,-1905,83,289
1092,-1637,3489,4313,-1362,1125,1143
1093,5821,-6860,-6908,619,797,-729
1094,-6068,5727,-6730,-665,-801,218
1095,6243,-2008,7092,22,-938,-462
1096,-1269,-6481,294,-1842,-1252,-1437
1097,3568,1915,-6832,-585,-1572,-1049
1098,-5047,-7014,1860,-1707,716,539
1099,826,3787,-4111,1912,1913,-1217
1100,-5084,-830,-2916,1610,-1613,-514
1101,-3125,3689,-3116,1279,-1107,-487
1102,-3715,-4300,2541,720,-637,261
1103,3929,7257,5131,1816,-1475,1093
1104,-1677,-6315,-1232,1843,-1356,1854
1105,6422,6650,1501,1923,570,600
1106,4089,1688,2050,1412,-255,-122
1107,-7973,1147,-4428,-237,1151,483
1108,6027,-497,2858,779,-838,1804
1109,5901,-1041,-5516,-673,-1631,-572
1110,-3862,-4422,446,-765,1511,1738
1111,970,-1506,-4794,-281,-628,-609
1112,6746,3447,-494,-1404,1575,-1441
1113,5081,-3653,7108,-1954,-153,1795
1114,3696,-4648,7869,1939,-877,332
1115,-3484,-7153,-495,-431,-1405,-248
1116,-1930,7673,6308,-945,-1348,737
1117,-2817,-5949,-4457,-69,32,305
1118,7564,202,5822,989,153,-1922
1119,1054,-1579,875,423,-1254,-882
1120,4913,-3269,-7051,-1032,922,497
1121,7859,-5627,6113,472,844,-509
1122,955,-7660,7655,1053,-1883,-1090
1123,4587,-4851,6869,-1635,30,1067
1124,-2302,3381,5163,403,-1856,-919
1125,451,3456,-393,-485,-441,-877
1126,5668,1925,5927,699,-42,-593
1127,-6532,168,6775,874,58,1251
1128,-4045,4421,1463,537,-1159,1512
1129,-3137,4234,-5720,698,1936,1555
1130,-272,-3741,2803,1178,484,933
1131,-4391,-1278,-2423,175,-904,-1024
1132,-2325,-5528,-6303,-1225,1954,1362
1133,-5383,-6243,-5557,-1207,-750,1837
1134,-4206,5175,4973,-1405,-428,-1457
1135,-5165,-1382,2533,-1679,1926,-1618
1136,-7219,-6112,-2943,1672,-1203,1995
1137,1375,-224,-635,-25,-1826,1667
1138,6376,7517,3636,-533,-1041,-798
1139,-3813,-4520,3129,-885,-1654,615
1140,485,-539,-3751,1603,-937,382
1141,4488,-5034,2906,-1353,838,296
1142,-7332,1310,1537,-1605,-139,1746
1143,44,5126,1033,-1037,-38,-1305
1144,-4258,-879,-2721,457,1427,1558
1145,-2838,-7551,2680,-327,-1386,-853
1146,3589,-5423,3545,-55,1656,-1135
1147,-5964,-1846,-2394,1293,359,-296
1148,-5624,579,3271,1613,685,-1448
1149,58,4068,-2952,1985,624,300
1150,-5952,2609,-1087,205,1274,1441
1151,3046,7451,6511,-632,-1626,826
1152,352,-1723,5577,-891,-1768,-1101
1153,-167,6761,6324,-526,494,-1544
1154,-6608,-6216,-589,1360,1226,-1160
1155,-6256,1972,4955,695,19,1293
1156,-4407,-4747,-3344,-660,649,598
1157,-7273,4465,2165,16,-1699,479
1158,-918,-7189,5651,-543,-1655,-1386
1159,6678,6469,-4550,1052,-393,984
1160,4377,813,-3082,1719,-1099,-1746
1161,-2177,-7423,6961,-1812,-167,51
1162,-445,-4122,-6275,86,-1529,-1173
1163,3333,-2552,6443,1268,-1726,205
1164,-2606,-6213,-2602,-1157,47,-418
1165,-3977,2135,-3896,-662,-1050,1897
1166,-2742,1787,5614,1353,63,-314
1167,-2852,-4020,-1792,114,-356,-63
1168,6435,-189,5636,-1585,-1471,1664
1169,-6691,1620,-4063,-985,1064,787
1170,400,7746,-2057,-391,1098,-358
1171,-7606,-857,-4087,188,1559,-1755
1172,4085,4920,342,1186,-867,-506
1173,-7463,4854,-4245,-985,1834,1533
1174,2150,-3151,758,-380,-1841,1271
1175,6687,-4887,-3429,-675,1818,919
1176,2947,-2126,1724,-291,1070,479
1177,7519,-5540,-3731,-579,-1431,1378
1178,4634,-4664,-5869,-1149,-346,467
1179,87,-4180,3463,-1402,-1515,1900
1180,4254,-5072,899,-1314,-327,1731
1181,-1011,-1679,3714,1994,-251,-1712
1182,-4852,-3067,2490,434,-316,956
1183,1851,500,-5022,-1116,-378,973
1184,3931,6002,1963,-40,-692,-1493
1185,4926,-6798,-2436,1838,-1628,1637
1186,1145,5832,3852,-1877,-1918,1231
1187,2217,-945,-873,-176,1108,-748
1188,3443,-3614,6007,262,1715,1605
1189,5164,-1196,-2345,-32,-532,-887
1190,5622,6959,5979,1723,1757,-1723
1191,5550,1785,-1854,1253,1806,1537
1192,7991,-4841,-4142,-1385,-459,1489
1193,-2470,5545,5466,1886,1855,-1906
1194,-5724,3604,-4261,-516,543,-485
1195,7464,-5360,4864,-1199,169,-490
1196,-6583,-1964,-7064,1784,-835,-1072
1197,-4365,1197,-135,1421,1101,-1376
1198,-1684,-6670,2759,-1139,-1829,114
1199,-6155,-2943,-6571,25,1201,1072
1200,-75,7252,-1275,-384,1420,-433
1201,7913,6092,2487,1536,386,-1731
1202,616,1241,1017,-1523,-612,-777
1203,7043,-1948,5540,574,1611,-1790
1204,-4419,-5069,-7286,1722,-519,395
1205,-5508,-1686,1878,-896,-768,349
1206,7986,6375,-4365,-1329,-459,1064
1207,-2197,-467,6637,418,-987,-1312
1208,-4483,6775,3695,1204,-332,1218
1209,-2801,-5396,-4000,1688,-1455,-362
1210,-1156,-7336,-7817,-375,-1258,237
1211,-3464,1680,2558,1836,-487,-76
1212,-3304,618,-7464,119,1410,-895
1213,1646,-3496,7341,349,-99,1346
1214,3295,2985,-3636,-1967,606,607
1215,3501,-4630,-636,-587,-496,1932
1216,-4762,5893,3171,-61,532,1294
1217,-1911,-4762,-2521,1613,602,1148
1218,-2940,7853,6330,-1697,-1209,-959
1219,-271,6296,-2968,1360,-1725,463
1220,-6905,5750,5438,-226,1125,1287
1221,-208,7565,-6452,-1685,-1113,1676
1222,3116,-2623,4237,1867,-1611,-340
1223,-868,3687,2759,686,-128,1727
1224,-1119,-1203,-4201,1451,-1889,1313
1225,-6741,-6829,2684,-383,1909,80
1226,4073,180,5726,1624,-87,1075
1227,1995,5690,-7530,1536,-434,399
1228,3205,-2011,-7314,-152,737,588
1229,6800,-2578,-4739,1573,417,-1384
1230,746,1577,-5478,1463,-589,1090
1231,-4823,-1252,-6610,-913,664,-158
1232,3302,4751,665,-1533,1336,-1596
1233,2387,7054,-3054,583,1051,291
1234,-5349,-6518,-5404,908,-407,-1468
1235,-5325,4037,-6229,552,-1582,1321
1236,-1275,-2927,-3034,193,-1850,-1559
1237,-695,-94,-6346,-1952,1235,-1912
1238,3689,6415,5741,1934,-564,-1946
1239,924,-3361,-136,1469,-328,1056
1240,-5602,476,6167,-451,-207,-734
1241,7420,2657,-6777,-586,613,1685
1242,-5968,5904,-6402,-537,571,1622
1243,1781,-7598,2144,299,-593,-830
1244,-1724,2798,1103,1949,1567,1742
1245,-2335,-2396,-209,391,-290,562
1246,4632,5576,455,-1811,1555,-308
1247,-7248,2167,-5173,1395,1243,-1384
1248,6495,1219,5045,1474,-1972,207
1249,5314,-5546,630,1952,-1428,1040
1250,-6646,3747,5555,1432,1996,1885
1251,2006,-3657,-389,827,-218,-395
1252,-4438,-1699,2843,967,-1323,-1316
1253,2299,-1358,3404,811,-221,198
1254,-7595,1171,-1913,1864,908,1987
1255,-6269,2966,-663,-54,-1443,47
1256,-7356,5476,7130,-363,-1492,1894
1257,-3590,-2356,6986,369,-1240,171
1258,-1217,-3359,-7898,-1927,-1923,-1432
1259,-2328,-3359,2690,1931,1062,1487
1260,5585,-713,-4824,-1141,1581,847
1261,-5819,-6636,3153,1282,1815,1356
1262,6074,5644,2441,-1265,-1439,-979
1263,6866,1240,1230,704,1024,-1269
1264,-5614,-6184,-3993,-259,-1175,1949
1265,1360,2144,7075,314,375,1391
1266,-2436,-1928,-5033,434,929,-177
1267,7293,-5341,-7847,1882,1369,1381
1268,1568,-3745,3127,-1703,1185,707
1269,-7476,3156,6434,-855,1539,-485
1270,-121,-1076,-4221,-780,16,-731
1271,-4396,-4244,628,567,196,-1259
1272,931,3111,-245,-927,1672,1286
1273,7282,27,7879,-113,-492,-761
1274,-6321,-394,-7417,-177,-15,1070
1275,-6661,109,-4580,871,-528,-1789
1276,1176,-4190,-831,-568,-1698,-402
1277,3216,4170,-7157,-1510,-167,-1380
1278,-3425,-7497,1846,-346,-1923,1517
1279,286,884,-2992,1032,1436,1950
1280,-739,543,2422,1902,-98,249
1281,2518,-2946,5149,-1436,-1306,-1970
1282,6481,7196,7382,-906,70,-975
1283,5356,-7138,5673,1338,1037,-1844
1284,-1499,-7889,-2981,-1673,-650,1970
1285,-5712,197,-2812,-449,1897,-213
1286,6167,1522,-1877,-754,1989,-1335
1287,-2730,-530,6348,108,1432,228
1288,738,-1541,1601,933,-1113,-1746
1289,2394,5673,-5894,739,892,-62
1290,-3371,4535,-490,-1300,495,1558
1291,7393,-7675,7034,-1037,1383,1109
1292,-3581,4083,6730,355,-938,-202
1293,5679,-6278,-4878,604,-1379,-910
1294,-765,1690,-757,62,234,756
1295,-6474,5603,6406,150,920,1170
1296,3384,125,7233,1247,1660,820
1297,412,3566,-3879,-872,84,-1198
1298,-7453,7340,877,-1628,-1652,312
1299,5851,351,897,-1573,1773,-1746
1300,3340,6209,-3890,919,-1557,-1536
1301,-3367,5802,-6277,1696,1106,-1177
1302,-7448,5623,6526,1326,-1599,1982
1303,-6052,874,-6398,-1217,886,-1097
1304,-4143,-1720,5444,-1626,-560,88
1305,-6957,1946,-5731,4,-1107,-519
1306,2314,-3164,-5172,934,-996,-1896
1307,-163,-5917,3415,-1016,-1280,805
1308,-3842,-564,634,1939,-1671,-1628
1309,-3819,1668,-6919,-370,29,-901
1310,5215,852,-1884,-1672,-711,-1559
1311,7640,2030,-5505,-1463,312,1277
1312,1060,-6890,809,-122,-170,-1830
1313,-4621,3618,-204,708,1249,1793
1314,771,7677,2322,-1879,-707,-650
1315,632,6477,-972,1417,-1370,887
1316,2995,5143,7616,-1782,285,903
1317,4563,-7319,-855,-654,458,1137
1318,2629,3739,4402,-967,617,1638
1319,6195,1392,-3390,-1137,-1045,-865
1320,7868,-4985,-4490,-1543,1456,-17
1321,7817,127,-164,660,-141,-1528
1322,2104,7628,-312,293,1437,142
1323,-5226,-5293,7162,-771,-281,924
1324,5753,2079,493,-1560,-1739,1318
1325,3436,329,7443,-1365,123,-1668
1326,-3399,2526,407,-1569,1323,-881
1327,7617,-1595,723,1707,-1889,1123
1328,-5879,-3343,-1614,-549,-137,-1907
1329,4624,-4113,5007,-862,1166,1753
1330,6397,-1193,5820,859,-1440,1933
1331,4413,-5947,-211,750,1884,1935
1332,-7974,7638,-6352,-480,304,977
1333,4331,-7722,-4993,-460,190,588
1334,4435,2733,-1094,-96,1099,-1802
1335,-5378,-368,-2308,606,772,1026
1336,4900,5415,1938,-586,208,-259
1337,-7631,7050,2940,-442,989,-295
1338,5656,-3076,1539,1667,-303,-606
1339,4153,7039,6902,1274,1571,988
1340,3871,4026,1138,-521,1308,-104
1341,-6377,6682,6292,-1874,-328,-645
1342,-4268,-3997,2732,1105,1836,-1967
1343,1245,2962,4374,-1451,1208,-282
1344,2579,1520,-2785,1570,1190,6
1345,-5291,-7719,5021,-458,58,-1353
1346,3470,-3180,-7585,1320,-303,-1074
1347,-2810,7576,6103,783,1902,817
1348,-599,6532,-805,-105,-1995,423
1349,1102,7706,-2594,1289,674,-404
1350,4987,-6866,-1317,1060,-181,-841
1351,5614,3173,-3068,974,-667,-518
1352,-3547,1804,-1664,-1220,-44,209
1353,3138,7085,5592,728,265,-527
1354,-5582,-6747,7802,-1455,-1187,1724
1355,-4911,2362,6182,931,1740,89
1356,6580,-5006,-7053,-1401,-889,-1810
1357,1121,3021,-6806,-1572,-1586,1147
1358,-6910,3686,-2346,-34,1380,-1796
1359,6654,-296,262,1637,335,-1283
1360,-2090,196,-6062,-1744,-1924,18
1361,-143,-4253,-5539,-1114,-24,-785
1362,-4579,112,-406,1452,934,-1470
1363,3742,4696,-292,-1268,-960,1662
1364,-845,7277,6960,-1196,348,-1443
1365,2974,-3059,4378,-1451,-1364,195
1366,2140,-2016,3538,254,1134,-1349
1367,5467,2098,6564,-238,338,593
1368,7282,-1574,2856,1955,1860,1144
1369,5438,-1228,-7756,1099,1152,-652
1370,-86,4627,887,-82,390,-1933
1371,-3533,3838,4352,946,-760,232
1372,-2584,-5696,3061,-1303,-183,-919
1373,-2900,1712,-6668,-1035,1463,-224
1374,-5220,6926,-3333,1174,-600,1045
1375,-6520,-7059,-6158,10,-1763,579
1376,-5798,7058,2350,-1396,-264,1375
1377,7247,7421,-6131,-1843,1387,-387
1378,7099,-3851,-7061,1080,594,230
1379,-2691,6889,-4121,-775,1894,273
1380,5557,-2841,-7849,-1135,443,-105
1381,-1974,5713,3838,191,-190,1629
1382,664,-5300,-5670,-69,-1696,352
1383,7063,640,1309,1937,1012,-1614
1384,1212,-5852,1883,71,-983,363
1385,6107,7679,2727,-1024,-1722,311
1386,5901,481,2520,-778,-722,1528
1387,-6372,-3797,5411,784,374,966
1388,-1167,5686,4078,-927,522,-221
1389,-3807,4497,6408,953,-1662,-552
1390,7450,-1671,4055,1682,-346,-578
1391,3985,-6470,2081,761,1230,20
1392,-3559,2873,3413,681,-1031,-1494
1393,-4906,-6398,1994,180,-1345,-1846
1394,1018,-1308,-4851,-126,531,441
1395,-7760,4215,5501,-1274,-921,521
1396,-4663,2644,4012,601,334,-1636
1397,7167,7557,5628,78,-435,499
1398,-3298,-7457,2491,492,87,974
1399,-1933,6363,-1459,343,-479,-316
1400,-7335,-7844,-6080,-1449,174,-1292
1401,-820,-3990,4604,338,1277,905
1402,1481,-7099,-6516,366,112,-1879
1403,-3343,-7903,-2180,1999,1256,105
1404,-742,66,1586,-1061,-33,1057
1405,-3294,-6568,-2755,-1564,-120,1379
1406,-3903,804,3771,-856,-538,-787
1407,1739,5079,6343,291,1275,-1222
1408,7013,3292,5251,-1740,-266,-1456
1409,-6954,989,1236,1186,-704,-350
1410,846,3878,6361,1979,1919,101
1411,-5628,6519,290,-1687,-1989,449
1412,-2555,4663,2252,-1626,-1786,716
1413,3079,5926,4206,-1582,492,-127
1414,6573,-3136,-2946,231,-403,-1496
1415,7257,5970,-6713,-838,-1246,157
1416,-42,-5481,5084,-1725,-786,-1598
1417,5301,-7699,4758,728,-690,1155
1418,-5078,-1550,-7620,183,-970,1338
1419,1156,2946,4579,91,-1126,157
1420,-376,-3812,-7546,-1630,636,-1524
1421,4025,-6595,-4836,371,666,1242
1422,2268,7611,-7758,539,-432,-1983
1423,-5533,3265,6612,1469,1960,-650
1424,-2544,2864,1473,764,1063,-1533
1425,-3352,-3407,6713,-962,1020,-173
1426,-3228,-6389,-4410,1905,1280,771
1427,2320,958,-3745,1577,711,-976
1428,-3902,-6778,-2903,391,1808,1525
1429,5746,-7761,-7817,-1974,-1270,-1764
1430,3500,-6741,5206,1065,1558,1725
1431,4259,-1399,4831,-638,-96,1201
1432,4780,681,2298,-124,785,1792
1433,4805,5428,-7629,284,593,-228
1434,-2711,-4888,5596,1327,-1286,115
1435,-7889,-7330,-3969,-376,1826,-170
1436,-3559,7794,5387,369,-1674,50
1437,5375,3952,-5195,-1928,-1387,368
1438,493,-6948,3910,614,537,740
1439,1818,-1106,-7726,673,-1078,1573
1440,323,-4091,4490,1525,896,1718
1441,1067,-3608,1510,-299,922,100
1442,6859,2197,-111,-1340,-136,-598
1443,-6240,6746,5478,1130,-923,-1278
1444,-2890,6922,-5185,1024,899,-1889
1445,-6698,6382,3108,497,-264,993
1446,-5618,-6854,1097,-1491,963,-1003
1447,376,-3184,-6464,-1922,553,-969
1448,1641,7150,-279,-963,-1451,275
1449,5095,-1391,-3475,1338,-441,1132
1450,6999,1203,293,1644,-1347,515
1451,-7496,-4375,-766,-1187,-1602,1586
1452,5389,-2972,-6709,-1264,558,-1146
1453,5923,2635,-977,927,152,925
1454,-5539,-2632,3473,774,-1469,1918
1455,-1358,-6990,-3299,1442,-1498,-1109
1456,-5000,-6788,-2799,1892,-155,197
1457,3526,1889,-1236,-330,-941,820
1458,2787,-7321,-2596,-928,-1788,-114
1459,3205,6805,-6422,-1308,813,-624
1460,-6119,-3132,-6043,-583,1708,950
1461,2267,5252,-1348,-1394,-1207,-46
1462,526,-947,136,1674,-1089,-1452
1463,6158,2748,-872,1208,979,-81
1464,-1693,-5011,5619,389,1344,593
1465,2948,-1331,-7415,-1445,-1241,949
1466,-5234,1145,3728,-828,775,170
1467,-2814,903,5980,645,-422,-787
1468,7231,5757,-1221,134,-71,-275
1469,-2461,-5917,-4335,-781,309,107
1470,3164,7034,-1008,-811,-100,355
1471,5413,6400,-431,219,426,-1468
1472,-689,-1504,-6698,-38,-284,1438
1473,-477,-2572,7523,507,-1061,990
1474,-5016,-2397,-4516,705,-1769,-691
1475,1376,-1054,-3112,1017,-669,1495
1476,-4103,7408,6737,71,-1469,899
1477,-6873,5959,3505,854,-1805,-773
1478,-5332,-3127,-4509,1353,-372,951
1479,4641,5161,6322,-1188,635,1402
1480,-5405,5271,1409,674,1940,1526
1481,-4050,-3573,11,1002,-657,1225
1482,-1736,28,4181,-1559,-702,-1978
1483,3895,5519,-5613,-1410,-899,-989
1484,1290,-1822,-1696,148,1313,892
1485,-2781,-2618,4148,455,-1804,1481
1486,7360,2565,7136,-1587,1334,-525
1487,6595,-2030,-5634,1079,-713,-926
1488,-1859,4337,378,-1338,-1010,247
1489,971,-5290,7200,-11,1837,1252
1490,-4760,1221,5144,-560,1438,261
1491,-4091,-3986,801,-731,-826,-721
1492,-7919,7974,-4532,81,1566,684
1493,-901,-268,-3909,-974,-1879,1206
1494,6311,2650,3936,1608,565,-161
1495,-1322,-5849,-2847,-511,1061,-1165
1496,-542,784,-6282,-375,1352,-1512
1497,-4973,4044,-3345,613,-1967,-1729
1498,-1695,-4052,-3895,-1336,-1595,1435
1499,-687,3455,-2441,-19,1936,1092
1500,-4090,590,-3856,1467,914,-156
1501,7113,130,-2063,1649,535,1846
1502,7348,2884,-2754,1455,-1058,-20
1503,-2396,-6349,-7012,-1281,-601,-1274
1504,-2254,-374,2881,514,1927,1526
1505,-1758,4531,-1435,-242,-1101,526
1506,7126,4655,6955,-612,1307,-1272
1507,6176,117,7219,124,-1233,-1106
1508,4069,2820,-6420,-1956,-1581,811
1509,2136,94,5337,524,38,-190
1510,-6875,-5469,6589,-727,-548,-1682
1511,-3642,5698,5201,-1387,-63,-198
1512,-5237,-214,4421,1943,1062,-583
1513,-5592,7034,1672,1526,407,456
1514,-1086,-6958,-6328,1981,-320,1512
1515,1778,2115,4325,134,-1513,404
1516,-1985,-584,4919,1260,-1418,1599
1517,-5588,6951,7513,-1641,259,-1000
1518,-7039,-2038,-7202,-594,-424,-1196
1519,-827,-866,1835,-526,60,-996
1520,3565,1812,548,795,-956,-558
1521,6330,-4378,3135,1785,1835,1097
1522,-1398,6311,4816,526,-586,1311
1523,4777,-5983,-7369,1144,-1844,459
1524,-1957,5396,2518,-774,-498,-950
1525,-4893,-1441,-277,1580,1843,-1652
1526,-1588,-3804,4750,665,-1028,1448
1527,-4371,-6035,2263,-1525,1636,-1267
1528,3728,-760,5775,-88,-1124,-1750
1529,-3221,-6672,6108,-1127,531,-118
1530,5143,-7216,-4359,1921,-506,-1452
1531,7132,3809,-3289,-1080,1161,1613
1532,7902,-1788,5368,896,-574,1832
1533,4073,5325,-7436,-199,-1555,-44
1534,6713,7906,2229,-1545,-996,1216
1535,1674,-5124,2947,848,-1376,1534
1536,-6954,1587,5520,1501,-628,776
1537,132,4318,452,667,-1146,-1393
1538,904,-7299,-484,-1021,-992,1473
1539,-3171,-2105,-1347,1050,1353,1565
1540,2698,3246,7823,-1458,294,573
1541,-4675,6051,6529,-1197,-825,224
1542,6474,-4208,5118,-204,158,-789
1543,7654,4936,-5335,-1104,653,1252
1544,-2406,222,-3217,278,1176,1725
1545,-3698,-4768,-5185,1427,1186,-646
1546,4396,-5329,7271,1924,1781,234
1547,4000,-207,-411,-1476,-1858,479
1548,-6496,5094,7565,1427,678,1232
1549,3396,-4700,1001,1086,-92,70
1550,7498,3688,-7355,-978,1200,1319
1551,3669,1354,5049,-366,1701,1024
1552,3378,-417,5486,1522,1702,686
1553,5470,-7725,5215,683,-560,-1428
1554,5228,7870,3514,-68,887,-65
1555,-1341,5103,-4743,497,932,-363
1556,-6396,-7838,-2306,-1563,1809,988
1557,-6950,1069,2181,-1345,-1978,-462
1558,-4145,-2069,3130,1458,1925,662
1559,-6842,5948,5038,988,683,190
1560,5587,1169,-6697,243,457,-1474
1561,-2485,-5274,7741,552,-1786,526
1562,3402,-7747,5752,1552,703,1267
1563,-4591,3005,82,-359,99,1537
1564,1199,-4761,2253,1078,-1780,-1485
1565,-7265,7668,-3929,-1581,987,-1257
1566,-4958,5310,-51,-1508,-1416,1146
1567,1314,-7223,2308,-1894,-1500,1518
1568,-5209,-7809,-1252,-34,-543,699
1569,-817,-3628,2071,-34,-386,-1377
1570,-884,-2962,1596,-702,-1289,1582
1571,-6412,-3011,-6265,1506,267,1225
1572,-6790,-6964,6189,-170,1818,-333
1573,7185,2211,-948,-1483,-1907,1312
1574,-7526,1842,3440,-1341,-1365,1170
1575,6282,-2621,4946,-843,1350,1521
1576,1522,3200,1637,-1549,-1937,180
1577,4512,7970,-5423,1240,1926,-1775
1578,5883,5171,-2328,285,-883,-1415
1579,3188,-6706,5698,-46,1621,-1762
1580,-6722,2302,-2847,-1808,-1098,441
1581,4057,3894,-2230,-405,1632,925
1582,-4310,4258,-4454,418,880,1099
1583,-7031,3825,-3505,-1000,1757,-1552
1584,-7063,252,-525,-520,5,-1387
1585,-4597,-2138,6047,1586,331,-884
1586,-4689,4921,-21,331,656,-1287
1587,3316,-3944,4544,1338,751,-1736
1588,-7725,-529,-3409,1303,209,-499
1589,-2098,7661,-1033,1911,1501,1115
1590,-429,-5325,1828,-1886,-285,475
1591,5794,-7948,3337,165,1697,1273
1592,4954,7542,-5500,-383,-354,884
1593,3548,-1359,4406,347,1675,556
1594,-4462,-50,-532,-1374,-1723,-519
1595,-1284,788,3966,-1667,200,1779
1596,-1370,6549,-811,1450,-400,1134
1597,6791,-2510,-1762,-1858,1279,529
1598,4504,-6911,5888,-196,529,-445
1599,863,6130,-6154,-1538,-624,466
1600,-2582,780,-2535,1656,250,-308
1601,7627,2071,1483,-1655,324,-1318
1602,-7755,-4128,-2718,-1680,-1699,107
1603,-7140,-2776,-901,145,1387,-1088
1604,4739,-3555,5495,-1442,1194,-1964
1605,-2513,1424,-7997,-519,1869,1662
1606,-6310,4765,-6463,1428,-1119,-1246
1607,-4242,100,976,427,-1609,-494
1608,6776,197,-5802,-29,1958,-15
1609,-2368,-2310,3946,777,-1783,137
1610,-2700,557,3034,-419,-1283,1063
1611,-2991,-6267,6365,-1632,1219,-847
1612,4369,-896,7759,-71,1014,-1393
1613,-4045,2164,1668,293,-1014,-1108
1614,3883,7369,3282,-472,-1469,-1131
1615,-7470,-4643,-5414,-1158,1770,-1847
1616,-1252,4603,5275,-1465,950,-1930
1617,-1942,7757,-7048,106,-179,-532
1618,-6507,-2674,2537,400,469,-1932
1619,3187,-665,-2411,1764,-1300,-1848
1620,-2690,-5114,161,-1700,488,1071
1621,5778,4830,-622,-859,488,-1004
1622,5476,2569,236,-223,-1983,1554
1623,1376,-4979,6915,1285,-159,684
1624,-7720,-5773,1503,-1140,-1997,1512
1625,1001,3826,-2484,-176,1437,-605
1626,3847,-5176,-2929,1634,-1533,1443
1627,-6871,771,1068,1361,-1813,-906
1628,-6016,3882,7904,-1954,1334,-78
1629,6767,-1924,51,1735,980,-1669
1630,-5035,-1429,495,512,-199,933
1631,-1037,5581,5482,-1083,-1194,-1362
1632,2777,5717,-199,-1920,261,1778
1633,649,-5105,539,641,1172,1262
1634,-6034,6969,520,-550,1601,1413
1635,7433,6715,-1920,-1693,976,-1762
1636,3614,-1599,48,-1043,-734,-784
1637,1596,6823,7400,-1799,1789,-148
1638,136,735,3041,1466,-685,-906
1639,-4001,-4884,4275,-1026,-1714,-572
1640,-7006,5603,-5725,1107,-123,-1609
1641,2592,-4374,1720,-1117,-1950,194
1642,-1003,-3430,5362,1903,593,-1012
1643,-3899,3298,-5788,-972,-886,1414
1644,-2435,1533,2332,-1794,1510,-1522
1645,3848,-5807,7038,655,-870,446
1646,-6712,2644,-1872,-556,685,707
1647,6263,-614,657,1095,-1758,831
1648,-7764,-1410,-318,-1078,1657,331
1649,5455,-3928,-2242,1795,-1281,454
1650,-2967,3497,-205,1479,1343,-1244
1651,6282,5546,311,674,936,308
1652,918,3448,-6305,691,130,1586
1653,-7775,-4918,3243,-1975,488,-1397
1654,-1135,-6443,-7115,-745,-258,1052
1655,1520,1499,-1916,618,465,-423
1656,-3169,3624,2707,231,-884,-1204
1657,-6753,4685,-3489,-1620,1813,-1822
1658,-7464,-674,1675,999,365,-1050
1659,-5849,6648,4097,-853,318,535
1660,-7131,5168,5424,-769,-1809,1012
1661,-3946,-3404,-1410,-1862,12,-1606
1662,-1668,4393,-6972,770,800,214
1663,-1257,-5588,-944,1112,-158,899
1664,-7965,4571,-485,-920,1670,-767
1665,3911,-4760,4322,-1071,-812,-1168
1666,7685,-565,3809,-302,-1666,-1774
1667,-773,1906,5378,805,-385,1505
1668,6715,7550,7409,-368,-1145,1495
1669,-3786,-7809,-7681,-1681,1651,-944
1670,7880,-7663,2436,-791,-1781,1980
1671,5136,7824,1820,784,-260,299
1672,-2677,-1619,-4025,-244,1045,1285
1673,-4918,1538,-7858,-932,1628,-756
1674,-1137,-5569,-92,-1923,-377,1917
1675,2627,652,-7254,1497,1414,1537
1676,-2373,59,-1128,1463,364,-1267
1677,-7828,-1482,-3373,-1524,-760,-238
1678,-791,6371,-2447,-17,137,-1395
1679,4367,3316,5323,285,-1359,-1694
1680,-6968,1035,-2597,-907,638,-551
1681,-1040,-1594,5207,-13,477,1729
1682,7040,-6786,3042,-1494,882,-505
1683,-1901,2011,-7316,905,854,-110
1684,7221,7862,7102,1380,64,-305
1685,-766,5856,3286,1021,436,-1779
1686,-3698,-1919,-5638,1919,-1093,-1775
1687,-3180,-4424,-4532,1953,-1304,714
1688,6531,172,2167,-215,1871,-712
1689,4931,-6585,-7458,-1060,722,-535
1690,665,-5299,6551,831,-1400,201
1691,359,-3389,4477,284,947,-1176
1692,-4396,4896,-7908,-980,300,119
1693,-6861,-7879,-3996,929,-669,415
1694,-384,-7671,1931,-288,1453,594
1695,347,-7690,2321,635,357,-325
1696,2255,-7306,-7778,-924,-1817,-992
1697,-3512,6914,-7447,374,-550,1800
1698,-4510,-4218,64,-1636,-1314,-781
1699,-4170,-7326,-2783,-1219,1752,-401
1700,-829,-3591,-2217,-1837,-272,751
1701,4928,5601,-7880,1925,977,-913
1702,-169,5203,5937,1841,-1263,609
1703,688,259,6810,1044,-796,1225
1704,-5689,-7293,-4570,1173,-591,871
1705,-5318,-1674,2733,1368,1832,1146
1706,1035,5593,-1169,-91,573,-435
1707,-1830,-2895,2350,1945,-1175,1368
1708,3172,7637,2195,586,-1723,-462
1709,-5616,485,-2209,1969,1861,1563
1710,-7796,-3108,-6625,1115,-791,218
1711,-41,5049,-1107,-1206,-1181,-515
1712,7562,3736,-3708,578,264,-1699
1713,936,2423,1186,-1943,-1265,-1239
1714,-2190,4145,-7884,1161,746,-1047
1715,3969,-4906,-1638,-1109,546,-1525
1716,-904,2778,3568,-198,-1893,-1729
1717,3239,5514,-6061,1718,-963,-1208
1718,-1412,1121,4981,-1124,-945,1090
1719,-7105,-4784,7107,-84,1531,480
1720,6591,179,4136,1502,1755,-636
1721,7820,-2551,2466,789,-1078,-1484
1722,3114,-2415,5822,-1732,1257,1870
1723,-1534,-5775,177,-487,-1195,948
1724,7042,-5775,4937,1757,-1345,-317
1725,-7606,-4323,-6962,-1365,1275,-4
1726,-2604,-454,6393,1906,-1316,432
1727,-3835,152,-5249,-1544,-79,1725
1728,-930,-4247,-3233,455,265,1571
1729,-3399,6143,-3078,1116,-1931,-1916
1730,-7134,-7834,993,762,-1344,1301
1731,2696,4620,5168,855,-1454,616
1732,-2725,4454,-1931,-866,-1971,-801
1733,-5459,7374,3833,1833,-365,-922
1734,2620,-3619,-6159,-827,-705,-1194
1735,-6600,-831,-3655,551,-1807,-746
1736,-4234,-499,7853,637,1234,324
1737,5097,-2039,7359,-1860,-374,-1164
1738,1710,7822,-5292,1385,1204,1703
1739,-3238,-2207,-2738,1444,-840,226
1740,7789,1854,-1962,-123,-914,-1758
1741,1610,-7848,2061,704,180,48
1742,-761,4634,3545,1941,-1903,-549
1743,-5802,-5811,-4905,1975,-1702,-1233
1744,-6495,-2887,-7700,1852,1773,174
1745,6162,688,923,216,-294,518
1746,-521,-3388,5399,-1468,1432,514
1747,-3649,-5346,3939,-1461,-1172,898
1748,1949,-3871,754,-1048,1157,-1255
1749,-5415,2268,1722,-1531,1670,-97
1750,-7823,-1454,-2997,-461,-1245,646
1751,1120,-6288,83,858,903,243
1752,7326,-3022,-5600,446,-503,-1502
1753,-7128,1222,-361,1665,-521,1354
1754,399,5140,-4782,-1441,-1086,555
1755,-5572,-7711,-2298,-1695,-1494,1164
1756,-748,-5879,-1133,1514,-1209,1621
1757,2469,-1339,6766,1594,-1479,-1275
1758,-6218,-5634,731,1491,922,-1768
1759,-4702,4065,-4180,1621,-252,1611
1760,-6710,6192,968,-51,-1666,-864
1761,855,-5014,3950,-1084,-366,836
1762,-7911,-5829,7641,-225,-408,-195
1763,4157,-7611,4579,-821,-957,-101
1764,4137,2142,2949,174,1875,1298
1765,-2986,-5247,486,-1367,1047,-1932
1766,7701,1251,3753,-440,594,1625
1767,-3430,5381,6464,-216,-1462,1843
1768,7860,1229,3344,766,1440,107
1769,-6405,-2329,-6178,-1228,1827,-1510
1770,-6576,4618,-3412,380,1194,1597
1771,-3249,-2129,-5591,-69,514,1265
1772,2314,6443,-7422,359,-514,206
1773,-315,2752,4114,-527,1081,-1226
1774,6916,3524,-7172,-1740,-937,-1692
1775,3476,775,4461,-1621,1041,-1249
1776,7453,6179,7699,-421,-429,-164
1777,-3535,5410,53,-398,371,-427
1778,-1922,3537,7046,-1114,1388,1392
1779,2581,400,6325,-404,1683,1387
1780,966,3641,1116,-1072,-1962,49
1781,-1496,-7179,-7291,-1786,1042,-1395
1782,-4174,6851,-273,-976,1666,1367
1783,301,-6332,6715,819,-1180,200
1784,-5858,1821,-2633,1587,-601,-967
1785,4917,505,-1830,1830,-517,1454
1786,-5552,-3566,1087,1717,-666,373
1787,-2173,11,-6801,75,-1295,1270
1788,-275,7133,-3430,-1559,1291,-744
1789,-7689,-5997,529,-1372,-1595,1373
1790,-7412,-5243,-968,1621,-1430,1862
1791,6273,3066,-6891,-1037,-637,192
1792,-4763,-3590,2759,-603,-709,755
1793,-6435,369,-135,-777,1091,1536
1794,-3451,6020,-6829,139,1270,-471
1795,244,4453,-6096,1289,-1342,1160
1796,-3652,-5062,2897,-731,1747,-1834
1797,1840,2896,6977,1814,927,-871
1798,-3955,4140,-1689,-1733,-1278,-593
1799,-760,7293,3326,1627,928,1643
1800,1556,720,6269,627,-1387,-328
1801,-6834,7974,-461,1577,-1797,1359
1802,2602,5029,-1484,1832,389,-1126
1803,6968,6029,-5461,435,1431,-220
1804,6845,-794,2946,-779,-1162,537
1805,-1032,-3666,-4930,1009,573,560
1806,-2523,5234,-4622,-226,1417,-342
1807,-6664,-587,-3142,-239,-265,-588
1808,6404,4581,560,1383,-119,-629
1809,-2419,-6041,-6250,-33,-1794,1115
1810,4391,-6818,4014,-1775,801,-1763
1811,-6726,4327,-5389,-1093,-955,929
1812,6554,-2497,5776,-1352,-1289,-1413
1813,-6522,3109,-4149,-1911,376,-1839
1814,1230,-2354,-5651,-1605,-949,-485
1815,-4527,7826,-1299,-224,1612,-1004
1816,-2863,5070,-229,463,-772,-1494
1817,2928,-7857,7051,1599,-902,491
1818,1145,-6633,-7192,786,775,176
1819,-5910,-4135,-6805,1124,-835,861
1820,3437,-2282,-1363,898,1911,1169
1821,-4537,-2557,-3784,-1489,-1041,291
1822,-5287,7280,3544,1160,1438,235
1823,-2786,-4591,4365,1995,742,-1609
1824,3429,-3559,-4957,1241,997,26
1825,2917,-1588,-2151,1256,-709,-1768
1826,-2294,7180,-2591,1038,-1533,497
1827,-811,3195,3866,141,-249,1703
1828,-1989,-863,-1929,-1704,-535,-108
1829,-692,2994,-2377,1341,-203,-1459
1830,475,-221,5884,-801,-585,-1776
1831,-5323,4861,-6531,-994,-505,909
1832,-6915,-3461,2,464,362,-1862
1833,-1585,1887,-3610,1165,-1523,-1725
1834,-4937,7264,-662,-1708,857,-1561
1835,-7504,-1108,979,-892,85,1442
1836,1339,-1083,6804,1454,1730,-1109
1837,-794,-2138,-2856,-1272,388,977
1838,7269,-7223,-596,-376,1797,648
1839,4678,-5575,-6399,783,245,-80
1840,4582,7536,-3523,-407,-45,1342
1841,2000,-5379,5198,1006,-630,572
1842,-2366,-5164,6339,-1500,1059,907
1843,-1639,951,-6576,1444,425,1327
1844,297,4176,-4266,-417,-153,-1600
1845,-3139,-5161,-6973,102,824,81
1846,3938,1007,3885,-1970,1687,1290
1847,5960,-2857,1282,1444,1139,-366
1848,539,7168,-7349,474,1198,1214
1849,-2035,-2847,2917,-1220,1673,296
1850,1175,-2858,6613,103,33,264
1851,-5929,2204,-1409,-1934,1346,-1266
1852,-6407,3470,-3507,299,923,574
1853,-2420,-1030,-6737,-1661,1645,810
1854,-3470,-747,3231,-1656,-147,-30
1855,6484,2287,-4035,494,1017,124
1856,7643,-5257,-3204,-1214,1020,-1547
1857,4665,-4579,-248,-1340,1680,-1874
1858,2271,-6108,5596,-1966,1021,-1
1859,1462,-2378,-4976,-1773,591,-1769
1860,-5882,-1439,1283,1952,-924,-1463
1861,4679,-2334,-1253,-1832,-601,-1307
1862,2187,1615,1495,559,-1469,-437
1863,-4364,-7468,4427,971,-971,-244
1864,846,6754,5495,-779,1421,128
1865,-4640,2097,-63,-177,1999,1780
1866,-2348,2825,4928,731,-1511,1717
1867,7661,-6632,4554,-737,1414,-1803
1868,5373,4170,-917,-949,-1975,905
1869,2426,-6113,5262,1273,1076,126
1870,6037,-4818,-5415,-1934,-1263,1625
1871,-7876,685,-4726,-1119,-345,-1121
1872,-4097,-4287,5944,-689,-1378,21
1873,-3343,5069,5303,-254,-1990,478
1874,725,839,-3484,341,-343,-989
1875,5826,3050,7497,-1518,325,-1060
1876,6977,4544,-4618,-658,-873,-1512
1877,-5967,5464,-1989,1148,-92,-1274
1878,-3912,2043,-5735,-1882,1370,-557
1879,-4086,-6958,-5804,803,-3,-439
1880,-1832,-2516,4228,-914,-329,541
1881,-4760,-3335,-7339,-577,-1258,-754
1882,-4261,7749,6221,1550,1773,-726
1883,1215,-5979,-2581,-314,-848,-1649
1884,-415,33,1667,-497,1224,-1555
1885,-1702,7714,4119,683,1415,-890
1886,4901,4972,3860,1216,-1778,1891
1887,-1846,-3948,1013,-1697,552,-911
1888,166,5198,6873,-1376,229,1048
1889,6215,-5360,-1118,-1005,1860,359
1890,6852,5755,-3390,1834,1704,-1458
1891,-781,-4895,-976,-138,241,-1686
1892,-7281,-2810,-4214,548,532,140
1893,2121,4180,62,1114,230,876
1894,6475,6054,3364,1839,601,-739
1895,6892,1201,6455,-173,1342,-200
1896,5876,-3241,7347,103,1961,-1098
1897,-2873,-2208,-7357,-415,1748,-612
1898,385,-3318,-6499,-1635,-452,1993
1899,-6424,-6055,4876,1801,-1469,-1289
1900,2404,5753,-7327,846,-777,-1015
1901,-6323,313,-1476,-1455,235,-1189
1902,7878,58,-5548,-1827,69,-1511
1903,-1539,5238,235,-42,471,1173
1904,-4646,6254,-2034,904,-1559,737
1905,-4490,-3436,-2916,1775,-1805,1646
1906,3304,5654,-5892,-634,1859,177
1907,-6163,-4857,1468,1730,1967,971
1908,4959,7080,-6746,-69,-1419,-1069
1909,-4595,3595,-7710,-72,-1695,-128
1910,-2766,-5421,-536,-1025,-879,-1685
1911,1872,581,6143,283,1477,58
1912,-6360,5858,-774,1114,-196,-153
1913,-1579,4256,674,1053,-511,-1014
1914,-4428,5525,4230,-698,501,-575
1915,4616,4397,-7276,222,1111,1779
1916,-3219,576,6905,448,-440,-1286
1917,-2631,-4469,2066,1328,-513,-1416
1918,-2133,7913,3489,1860,559,1227
1919,1865,5390,938,1731,1648,1342
1920,557,6750,1670,237,-579,1986
1921,-3245,-4295,-919,1950,1049,-125
1922,5340,-7704,263,721,1171,499
1923,-3301,6730,-4803,1802,74,-1772
1924,-609,-6030,2644,-1654,1561,1631
1925,2205,-429,1846,920,-810,604
1926,4177,-4314,4776,-201,1272,-1480
1927,-3316,1445,5387,359,-1207,1235
1928,-283,-4521,-4936,-1633,-1173,-1096
1929,3885,3696,-291,1141,-1899,-1283
1930,6796,-5742,1829,292,396,1011
1931,-2603,189,-1639,-1206,1643,1915
1932,6956,-3863,-417,-180,1041,1683
1933,2374,-2569,-5784,70,-1266,1909
1934,-6804,-4871,587,-239,279,-104
1935,496,-1960,-3370,1047,1447,-1371
1936,-7621,-1613,4189,1481,1903,-901
1937,-5685,-4290,-4214,-1159,-1077,1908
1938,-5292,-7289,5187,-1228,-1636,-200
1939,-585,-2363,5430,-949,401,1742
1940,-7232,7122,-5048,865,732,-607
1941,4555,-4498,-6883,1303,-1019,731
1942,-6845,-4134,-5351,-112,597,1540
1943,5392,7590,-5894,83,-1111,-1974
1944,1893,1145,-2183,-824,1303,318
1945,-141,1694,-6722,-1547,1883,1955
1946,4942,-6192,-1608,1303,-40,1417
1947,5188,841,4213,-19,-1747,-779
1948,7065,-6734,7560,1131,1901,804
1949,3551,1645,4455,834,519,-108
1950,-6127,246,-5669,692,222,-1821
1951,-5678,-2230,-2021,1393,286,674
1952,1916,-452,7780,-1090,-521,1526
1953,5252,3926,-6098,-518,-33,-1480
1954,-7052,7420,-4203,1491,-1782,-1994
1955,-7048,5468,3987,-1032,-1053,470
1956,3451,4988,6037,1836,-1651,-1512
1957,-3094,-4152,6364,24,547,-1223
1958,512,-5435,-1774,-856,1988,-640
1959,7397,3511,-3505,-632,236,-1343
1960,6855,7919,-1180,1107,1945,-1859
1961,-4106,1440,5866,-1906,-1145,161
1962,-3003,2833,3891,-1564,1565,1995
1963,4687,-719,-464,1651,1056,185
1964,456,3908,-5873,1999,-1141,-1996
1965,-5374,-1883,746,-850,-942,-155
1966,1027,-4694,6849,1351,-1429,1683
1967,837,-215,-3047,-1255,938,-490
1968,-7843,3860,-2987,34,1098,241
1969,3756,-4480,427,1679,-911,-1188
1970,-3845,2318,-3741,-1299,-1517,1381
1971,-3507,4521,5194,-1756,-502,1284
1972,-2349,-907,-3105,200,-1264,63
1973,5215,3111,4966,1451,-1120,-751
1974,19,-3772,3305,-768,-976,-1799
1975,-3543,600,7466,-357,962,681
1976,-7871,6601,-1781,1208,-842,1889
1977,-5087,-7825,1891,571,-1458,286
1978,6868,5945,4214,-492,-1643,1461
1979,4436,2561,4164,-985,-1714,1320
1980,1183,1532,-7706,849,343,-1252
1981,838,4133,-6334,777,1890,998
1982,-3981,4645,7218,-783,-303,522
1983,-790,850,-6240,1265,-197,-1615
1984,-7508,5772,7863,1200,-1818,1688
1985,-3983,-1477,6774,557,604,1424
1986,-3760,-3435,-674,-671,-1754,-1753
1987,-3443,2555,-4155,-1642,1331,-189
1988,-5947,7679,-3230,-206,-172,982
1989,2462,-3997,7434,-435,1708,1984
1990,-5226,-2830,98,1658,1847,95
1991,-1105,6246,-2980,-1952,-1127,156
1992,3641,-1322,2871,-1146,320,-973
1993,32,-2385,-106,-898,218,-155
1994,-4321,-5182,-7638,-48,-1102,-487
1995,3248,5582,-3364,-606,464,1277
1996,6945,-1915,6971,1485,889,-193
1997,3194,-7170,460,-1358,621,-1462
1998,4383,518,-7645,-787,615,352
1999,-3290,-4672,1302,1240,951,-1061
2000,4742,7999,932,-1703,516,-659
2001,654,-1079,-1878,-890,-233,-1345
2002,2790,60,6198,-1992,-1325,-350
2003,3450,1408,-611,-892,-1583,-431
2004,-3890,-7708,-7213,839,85,-1132
2005,-1411,7707,4639,100,1020,-1622
2006,-464,2999,6545,-1613,889,-1092
2007,5063,-7713,-7745,101,-1021,-1573
2008,-1676,7463,-6658,-1198,-1681,-999
2009,-2653,7631,-5745,-1293,-1497,-1615
2010,2371,-1122,4674,955,1995,-1938
2011,-3790,4202,5103,1116,-575,-1115
2012,6131,5167,4558,365,893,-568
2013,-693,4943,-1367,-1901,1407,311
2014,4428,2729,-966,1341,539,-265
2015,4057,-478,-7809,182,-1152,-625
2016,-6165,1728,-3583,1171,-1880,-1075
2017,2918,4289,6285,607,-1115,788
2018,-7842,-2200,-708,-1832,220,1971
2019,-6287,7206,4123,1146,-1504,852
2020,-877,-710,-2612,597,772,-608
2021,6063,7755,7829,157,1435,1216
2022,3671,-6404,-3946,-855,759,-1132
2023,3132,-1379,-5443,1502,-1441,1085
2024,1234,-37,-1482,883,-1473,-1358
2025,-2892,3403,5905,-1528,-74,418
2026,7056,-3335,4531,103,-1017,-99
2027,-1050,4068,1759,-157,1584,-1358
2028,-6290,4102,7749,1145,-1897,24
2029,-4245,-5383,-3360,-601,406,1086
2030,130,-6207,-2967,434,-934,1004
2031,-5514,6772,-4442,-1130,-1833,-371
2032,-283,-3163,-688,-1164,1451,1956
2033,-3456,713,1096,1099,-865,-961
2034,3360,-224,2811,82,-1234,976
2035,4056,2597,664,-238,-1103,1187
2036,-2997,-3222,-3169,150,1773,-371
2037,1388,3681,-1547,-1294,-25,-293
2038,-870,-6836,4511,-815,-717,187
2039,4040,-5853,1700,-885,-1927,-1428
2040,-1107,5773,3280,143,-182,417
2041,-1710,-2615,-4357,533,-400,-1188
2042,2378,-5610,-2767,-921,1662,319
2043,3395,7764,-7703,1329,181,-970
2044,-5539,5754,7013,645,-125,-1797
2045,-1465,5694,6464,1700,-1742,1214
2046,-2849,-3334,-1680,1430,-1394,1986
2047,6281,-3916,3055,-990,1017,-1582
2048,3516,5142,7784,-1043,-559,-1814
2049,6369,1151,4448,915,-897,-1545
2050,-5700,-1236,-3087,1670,1616,-1597
2051,-2711,-637,6553,1677,-276,-2
2052,7177,534,-2301,-1018,-383,1920
2053,-4555,5721,6370,653,-843,1776
2054,-3610,-2725,2175,-1949,-1293,-1782
2055,-3381,1236,3350,533,584,1378
2056,-141,-1942,7324,1356,1115,-1260
2057,5603,606,6918,-859,-1844,1016
2058,-3394,-6199,295,1681,-1314,-411
2059,-5485,1772,2858,-159,1160,238
2060,1645,3781,7111,-1376,1649,-501
2061,7148,-2704,2189,1894,-1749,-1709
2062,-1561,-7357,5594,-1509,-1489,-596
2063,-4564,5818,4689,-1305,1714,-981
2064,3864,2380,5524,-629,-168,1935
2065,6657,-3796,3573,-504,507,-193
2066,3995,-6428,4594,551,1139,-1101
2067,-2558,2246,-5355,1845,1102,-909
2068,6887,4840,-6509,-1806,594,1217
2069,-3591,3835,-3063,-631,1503,988
2070,3725,833,-1955,1346,1031,523
2071,-6306,5676,701,-372,726,-651
2072,4062,2827,-1282,681,1988,1205
2073,-7042,7782,7265,211,-1233,715
2074,-5510,-1923,6176,1318,-1328,-650
2075,957,7595,-2970,-743,1013,1535
2076,-5210,-1519,1533,-127,344,265
2077,6547,-6419,1053,-1039,1262,1718
2078,-6668,6672,1755,-1237,-757,1820
2079,7893,-3035,-356,-1276,-1001,594
2080,3897,-7540,6322,-866,-210,-1094
2081,-2708,1890,-3214,-978,-1699,968
2082,4078,4056,-2428,-1613,821,122
2083,1970,-7795,-7315,-1836,817,813
2084,139,7780,1390,-1114,1262,-1889
2085,4225,-1617,275,108,-902,-649
2086,5504,2955,-1665,286,238,1878
2087,-2830,-1698,-1382,1379,632,702
2088,-7527,-2606,731,-1085,-414,357
2089,6296,-5286,-4215,-1655,-1709,178
2090,5917,4164,6461,700,1960,-485
2091,2065,-381,7936,644,1697,607
2092,6456,-6332,6628,-324,-1755,-106
2093,-5767,3205,7798,1504,-1286,704
2094,-6079,2488,-2740,1038,-1684,1622
2095,4496,5758,5887,-366,855,1821
2096,-1141,-1408,-5775,-1591,151,553
2097,5986,-7791,-2099,551,-1133,-1090
2098,-6892,4315,7202,-1559,732,-723
2099,-3946,5550,-6785,-524,-1116,-1908
2100,-30,-6651,740,374,-431,291
2101,4362,-6076,-2763,868,158,1828
2102,2309,-982,-1967,-1239,312,1759
2103,-3259,5333,-6898,-1289,-1984,1655
2104,-1792,3683,-5845,51,-1278,299
2105,5413,1960,2670,-1426,-1715,1816
2106,-2838,-2913,-7764,-1615,162,-607
2107,1056,-1948,-6416,-1363,492,-36
2108,-3421,4987,7074,983,-507,-1029
2109,5494,7135,-5879,-83,-751,1730
2110,-379,6652,-5599,-1240,1466,-857
2111,3035,4487,-3232,1465,1827,-929
2112,-1603,-7743,3110,-1304,-357,-984
2113,3288,752,2298,368,-1363,1306
2114,43,-7304,4483,-401,-1225,332
2115,7574,6343,-1252,155,75,-530
2116,7840,-1598,5324,572,-1576,-1719
2117,5411,4579,-1030,66,-826,-1223
2118,-7833,2740,1259,1257,-1314,1375
2119,1777,1756,4413,287,-1599,1439
2120,-2022,-473,-5076,1683,-1851,1300
2121,-7669,-7522,5846,-1417,-498,621
2122,5243,-2048,-7088,-866,-1548,-1355
2123,-1561,-1641,-7249,920,-267,1546
2124,-5470,4980,1706,-680,682,-826
2125,-3913,4995,1529,1948,1306,1058
2126,-5990,-7135,-6032,-428,1941,-377
2127,-4540,2012,-2684,931,-842,-623
2128,1472,6325,4288,-328,-1889,55
2129,5074,1531,2896,-1104,27,1573
2130,4812,4195,-4744,-491,-1055,-689
2131,-552,5110,-1924,-1025,91,1540
2132,-4761,4432,5877,-779,-1581,1593
2133,-17,-891,-4944,1468,-1364,-1636
2134,1048,-1334,-1483,1081,-628,-539
2135,5148,4327,3696,-586,-736,461
2136,2195,5821,-4242,758,581,-1662
2137,-5282,-7289,-3873,1487,300,362
2138,4259,2194,-863,1068,-1137,-1047
2139,7053,-2724,7416,1788,762,-393
2140,-2701,-4883,-839,963,-1799,859
2141,-2519,6365,-6648,-293,-1968,-665
2142,-1325,1529,-6466,1833,1097,-398
2143,-2108,1493,-3103,1745,594,1753
2144,-1347,270,2041,-392,860,976
2145,7380,3169,3562,990,1192,-257
2146,1337,2137,4081,-1867,259,-1058
2147,3283,-946,-5335,-1908,1214,1334
2148,3238,6034,-2568,-82,-539,-759
2149,-5706,6189,-62,-811,1270,623
2150,-4522,-1716,7219,-1657,1401,220
2151,47,3962,-2109,533,1490,-866
2152,7923,3440,651,-1038,796,-173
2153,5181,-7208,-903,1637,1349,364
2154,-7096,4619,7436,-1453,1072,-1084
2155,5207,-1604,-6929,1950,-457,1002
2156,-5393,2116,6488,1410,-1125,569
2157,-7684,-3562,-4538,1353,1630,-1369
2158,3468,-1125,1950,-399,1474,1073
2159,-2242,-2465,-170,1755,683,1447
2160,-7467,1476,-6377,-860,-1053,806
2161,4739,3119,1758,1895,-1723,350
2162,-7778,7510,4395,-1440,-590,-1474
2163,-2189,-5447,682,1411,-1825,-1465
2164,-652,735,5628,-1666,1214,136
2165,1683,-6986,2548,1481,-1644,-1671
2166,-6921,-2080,-5239,-301,-437,1126
2167,5227,9,2005,-340,1589,-372
2168,-3184,-7291,7869,-1350,-811,-423
2169,2922,2495,-341,1730,860,1300
2170,-3467,97,3950,1345,-1626,1870
2171,6266,4977,3302,-957,1330,1317
2172,3556,-7907,2163,1649,-617,-902
2173,6466,-1707,-6547,215,944,-1181
2174,-7172,171,6145,926,561,-1690
2175,-406,7393,1584,-287,-1808,-707
2176,-4823,-466,-7697,1062,869,520
2177,-7133,6043,-6738,866,-1021,-1089
2178,592,4442,6647,-637,1470,-634
2179,-4246,-2094,6569,356,-961,-1379
2180,7161,-3929,1446,-753,95,1130
2181,-6577,2089,408,-1093,-1410,1519
2182,3015,-6193,1489,1590,1221,-1531
2183,-5322,4739,1119,77,1205,460
2184,-7016,-7633,5263,-750,1576,912
2185,-3642,4685,-447,-1556,1082,-1709
2186,4336,5121,3553,3,226,-1980
2187,7379,-7479,1495,-543,-1947,-250
2188,2123,4797,1594,1560,-484,-1524
2189,1115,6134,2302,1336,87,949
2190,-932,7114,-7980,1339,838,1629
2191,-1358,5453,-878,1714,681,512
2192,-1776,4244,2980,-1937,-1523,254
2193,3208,-1262,2614,971,-425,794
2194,-1781,1767,-2891,-963,-521,-1904
2195,-925,-2157,-6745,-952,-1003,461
2196,3345,-3695,-5618,789,-1372,424
2197,5991,4570,3313,-812,1450,-1020
2198,-6622,-5453,786,-1451,1729,124
2199,-2519,596,1769,-270,1628,760
2200,2296,6773,-5163,1566,1162,252
2201,-6999,6017,3931,1170,-38,428
2202,-2091,5403,-6262,1184,-109,1159
2203,-839,2846,5280,-637,832,-1399
2204,-4762,-7495,3900,1014,-34,-1850
2205,-7525,4206,-6325,1080,-668,-1143
2206,-2486,7568,1291,-664,29,-1525
2207,7325,-7352,5164,-957,-490,-163
2208,-7214,-6482,2693,1418,-1714,375
2209,5314,-7812,-3135,-284,-319,38
2210,-6638,-1261,-6998,1371,-472,1612
2211,6876,3437,360,-689,87,-853
2212,2477,3411,-2448,1511,-1333,-1152
2213,3902,2345,-2104,1199,-47,-1915
2214,-4365,-4841,5795,-1934,-608,-803
2215,5873,-7534,1495,-635,989,-281
2216,2920,7230,4405,-346,-1556,-1632
2217,-4211,1073,-3740,-1496,-1217,-1818
2218,-7699,-2470,3813,1143,-1789,979
2219,86,702,-4956,374,1108,616
2220,-4179,7853,-6358,-446,1656,1329
2221,-2417,-1204,-7541,722,-795,-611
2222,2165,6006,-6299,1961,-1455,777
2223,-6803,-4149,-3808,1793,444,1443
2224,7871,857,4568,418,904,1979
2225,3375,6229,-7924,-1487,1914,-1717
2226,-5720,-1664,-4831,-1886,1687,-520
2227,-3029,-7381,7934,-677,-1377,1264
2228,-1009,-2428,6650,1818,417,1738
2229,-3004,-7778,1843,361,1351,868
2230,4390,6707,-6711,644,1422,253
2231,-1246,2689,704,535,1707,1829
2232,-3769,-1381,-6069,-1831,1032,-956
2233,7125,-473,3289,1637,971,-708
2234,-4386,-1085,3195,-691,-1683,166
2235,-894,561,-1109,-1974,1564,-844
2236,-2156,3774,-5002,-906,1641,1944
2237,7597,7947,325,1085,1129,1276
2238,6980,-7554,-6176,-1958,-931,-1999
2239,-1739,664,7361,452,-1806,-275
2240,3682,1727,58,730,1384,-366
2241,1436,-785,-2395,-315,1357,472
2242,5577,5467,5288,611,1072,-1728
2243,5997,-6339,4060,1895,-779,-1868
2244,-7610,-5588,-1821,-253,-1029,1055
2245,2479,-7760,4056,1151,-1702,60
2246,-2236,-4400,1058,1225,-728,-1433
2247,-5369,5516,6176,-1916,91,-166
2248,7533,309,560,-1433,-1544,1863
2249,-7478,818,3420,-1865,-1441,-879
2250,5180,-1339,669,1333,-1665,853
2251,-6717,627,-3420,1402,672,-1244
2252,-1790,-3347,6047,-131,-1013,1318
2253,-2571,-7492,3405,527,390,1579
2254,3576,7895,-6034,-415,215,-927
2255,6075,1166,-1465,-1107,-1467,-785
2256,-7717,-3940,1996,812,-1585,1817
2257,-7998,-4028,-5277,-837,-571,-549
2258,-4806,-7255,-4214,-1031,-232,1490
2259,4428,1568,3073,-732,-260,1718
2260,-7475,-725,3813,-1637,-771,-1588
2261,-7189,-7368,-2566,1800,1286,-617
2262,-7891,2101,-427,641,1316,-1138
2263,430,277,-5206,1942,1149,1632
2264,7068,-7676,4668,-61,-1613,130
2265,2921,6287,5545,1858,110,1038
2266,198,4511,749,-177,-1374,-1121
2267,-3045,-4111,5576,-1765,-636,501
2268,733,7347,-3390,-635,-1346,701
2269,6562,-7083,-6051,-1180,121,86
2270,5756,-3337,6759,541,-290,933
2271,1062,-1977,-7681,1775,-1604,-1876
2272,-7396,2919,2895,-990,740,-904
2273,3219,624,5997,247,-1611,1108
2274,-6179,-2147,-2213,996,1407,1049
2275,-1208,-7121,7400,1328,-796,-223
2276,-4779,5320,1937,-97,184,-656
2277,2090,2603,6468,479,-1840,-1626
2278,699,-3681,-933,912,1394,-1905
2279,361,6036,-4574,-518,1390,131
2280,-4315,6681,3333,1966,-1385,-1209
2281,2232,-193,-898,-620,247,1213
2282,-3459,4876,7581,-716,-1884,896
2283,-7409,-4337,-5952,1516,397,-1150
2284,-3786,-7174,-5851,956,-1956,-1602
2285,2034,7438,-6721,660,1519,-49
2286,-6808,-964,6789,-1699,-868,-485
2287,-5279,-1069,-6435,167,906,-1301
2288,1431,-1749,-4688,-1223,-99,266
2289,7937,-1064,4445,746,-1751,449
2290,-839,-607,-3986,-1486,346,-1930
2291,-7723,-6688,-6071,-1595,38,-1064
2292,2804,3705,-5766,-163,-1000,-497
2293,5724,-2652,-3412,1987,-1400,-1001
2294,-5309,7476,-1874,-499,930,882
2295,1664,-6026,-4042,221,1635,386
2296,1117,7306,-5642,1010,582,-1199
2297,225,-4000,-6817,-32,505,-866
2298,-7826,4279,2766,-289,1947,843
2299,7167,-4797,-5992,-373,-195,-1850
2300,-583,1026,-6779,672,-1288,1106
2301,-2350,-4861,3049,-615,-209,727
2302,-5799,-5273,-739,-1464,-431,1446
2303,-2263,1477,3115,478,-382,1318
2304,-6268,-1542,7804,-867,-1839,1098
2305,3810,-4198,-6543,-1269,-1071,1037
2306,-1310,-4787,-6093,1280,32,1129
2307,3629,-7994,-6724,-266,1286,-1610
2308,-4148,-530,-3251,-505,825,316
2309,-6031,-6144,4155,-1125,742,-1604
2310,-5115,2343,-5990,-929,453,1823
2311,-7723,-6220,-578,-479,622,-1507
2312,-1582,2978,-1651,1383,-486,-1870
2313,595,1642,-4314,1113,-1610,-60
2314,-399,500,-4919,970,-889,726
2315,-5330,2419,-5984,288,1389,1564
2316,-4955,-2262,-2211,-41,-1425,-149
2317,-7413,-1886,2971,7,1852,1076
2318,-4304,-6867,-4043,514,688,-797
2319,6429,-195,-6022,1234,418,-1337
2320,-1867,5425,-7600,-1005,-418,684
2321,-1776,1874,2043,672,-677,1988
2322,4826,-1167,1568,913,-1855,-298
2323,6450,5299,-2921,1059,124,1591
2324,-3065,-6027,-1939,-146,-1995,-1967
2325,-1996,-1642,-6794,-89,1894,1173
2326,7477,-1991,3484,-448,-1533,533
2327,-7923,7446,-396,1800,-872,126
2328,7387,-1735,-105,-923,-812,93
2329,3865,-6222,-6606,719,1660,238
2330,4609,-4166,-7742,501,193,-1795
2331,7070,148,3525,1832,1130,1283
2332,2377,3989,-950,831,-61,1714
2333,6976,7701,-5766,-1941,-279,-1275
2334,4994,-2630,2824,-85,780,441
2335,6655,4524,958,-369,-988,-700
2336,1677,-3876,705,-247,1260,-1465
2337,-7465,-5814,1245,-8,1089,1162
2338,-4973,-5529,-7993,-1792,473,-208
2339,4932,-1872,3989,417,-1322,1778
2340,-5961,-4994,-1473,1967,-756,460
2341,4358,-6706,-735,857,757,1846
2342,-2294,-3624,1785,1864,251,767
2343,4776,-351,-6091,-318,-1292,-1335
2344,-5526,7681,-2077,1846,1084,-1957
2345,-737,6625,5043,-2000,-1990,1342
2346,-264,5406,2132,-966,-1292,-1057
2347,3341,7508,-7134,677,1709,285
2348,2542,-5739,-1143,-1549,1649,73
2349,4693,6792,592,1749,417,711
2350,-4301,-2904,4585,-7,-831,-1938
2351,1934,-928,2881,-134,-1952,1039
2352,-6997,-5851,1630,602,-1284,-1701
2353,2824,1620,-211,-1804,-394,1692
2354,-3417,6535,7574,-1337,-1342,-938
2355,-3947,99,6196,-270,-1270,426
2356,2156,7321,7926,1013,-709,-961
2357,7482,2939,7413,-8,1012,317
2358,-5253,1340,6758,-1145,1076,-1341
2359,712,1529,-3676,-374,-1575,-408
2360,2937,7887,7758,1093,1864,1344
2361,5946,5041,-3676,518,1697,1736
2362,-2136,3766,6091,1994,-467,1531
2363,3673,507,-920,-504,-611,692
2364,4617,-6121,-5107,-1440,860,-894
2365,-2426,-4567,5070,-1368,-1543,-1367
2366,-1941,3016,-2867,1623,-913,1095
2367,-5457,-3799,-3514,1847,-1191,-1484
2368,-6993,-2908,-496,-427,1592,1329
2369,1891,1925,-1653,1707,-717,-1987
2370,7405,-2242,-6017,232,-1735,1179
2371,-6707,-2112,-5846,1364,-1705,-759
2372,-3518,-348,-2543,1303,-832,-487
2373,4610,-3462,7613,-1257,370,1253
2374,-5183,5001,4681,-1619,601,624
2375,3392,-305,-3589,1759,1570,-1140
2376,-5294,6124,2695,-1422,-336,-736
2377,5745,814,-5631,-1055,-633,-1589
2378,6433,-5970,713,552,183,-986
2379,-5794,-4213,-1005,-1035,-1378,-874
2380,7183,-4483,6646,426,-1178,322
2381,1457,648,-2130,1482,1268,-946
2382,-1797,-3511,-2624,1422,-139,-541
2383,-6150,786,2463,1344,-470,-1921
2384,1351,-5938,-7205,-1706,337,-722
2385,-2946,7905,5017,369,717,1829
2386,1936,5893,3362,-1831,-1515,-199
2387,-5701,7205,-6942,837,705,-134
2388,-2269,1072,5999,-1212,1231,-478
2389,-4196,-6678,-1625,706,1266,-1098
2390,-3318,-1053,-6814,341,1531,-471
2391,4272,6239,-7204,-778,-684,-1388
2392,7874,2531,5448,21,-94,-550
2393,-5481,4383,7047,554,-1351,-1471
2394,-5145,2828,-6779,438,104,241
2395,-2560,-4916,2131,1740,-1317,-914
2396,7680,-3331,1382,1588,-386,200
2397,1350,5378,-7165,894,-524,1650
2398,-4817,1645,6331,-949,295,479
2399,-2896,2911,2425,1325,376,-1931
2400,1316,7276,141,-1895,-838,-1014
2401,3638,6297,5518,-829,-780,-614
2402,7162,-3707,-7233,1125,1008,992
2403,2545,-7229,-1910,506,-297,-149
2404,-1146,-2574,2868,1395,22,-745
2405,-1394,-6164,-5481,-1368,928,-1662
2406,100,5008,5701,-1616,-688,-468
2407,-6075,-6755,4648,1399,-556,1135
2408,7154,-4335,599,-1799,1168,-489
2409,-4117,-3191,-5443,882,1710,-1019
2410,-3483,3361,2705,1851,-328,-1241
2411,5626,5245,-2197,840,-772,-1599
2412,2628,6713,7279,-1105,1337,1218
2413,-2799,-7843,443,-1636,-1875,92
2414,-7151,5514,6457,-1115,804,1983
2415,6369,-5902,4791,1468,-218,-473
2416,3147,3214,-7183,1145,-1734,1694
2417,-6534,3507,-2437,468,1914,788
2418,7035,3264,2511,891,-58,1830
2419,6122,-1875,-2509,-533,1652,835
2420,-7288,2640,-1673,-1494,-1798,1258
2421,447,203,-1907,619,114,-972
2422,-4640,-6086,-4503,1794,1543,-588
2423,2891,-6825,2056,974,1240,1308
2424,-2074,-2755,-776,1550,-724,205
2425,1433,2221,4581,-17,1026,-1030
2426,2757,1931,277,430,-11,1688
2427,1983,4322,-4066,1849,1130,-1817
2428,-603,5410,1703,-1392,-1584,786
2429,-2950,4591,-4182,-499,-1808,442
2430,105,2299,-4314,-1896,-461,-154
2431,-2932,7687,5131,-1617,-1803,1825
2432,309,7743,6570,575,-564,400
2433,4805,-7872,714,-1973,698,1180
2434,4797,-4513,5257,-231,1944,256
2435,-3616,2638,-6664,-1994,-1141,-588
2436,-7300,6478,7580,-730,-990,-801
2437,7669,2207,-2027,-876,-1620,-1176
2438,4600,-7023,4816,675,-1753,864
2439,1442,-7210,5344,-790,1801,825
2440,1813,-3894,6748,1641,592,858
2441,-5293,-6366,1344,1089,1913,-1903
2442,4056,-5163,-3861,112,-1995,1530
2443,-1623,-4152,2836,1109,254,1180
2444,6979,5782,1121,1570,-1174,-215
2445,-314,-2058,-4825,1862,528,-283
2446,-7457,2600,3767,-1440,571,1641
2447,-5678,-567,3332,337,807,-1069
2448,-3989,-5952,7120,468,-938,-280
2449,-3761,-5644,6215,1336,-1099,-1848
2450,4791,3739,-7986,-120,-1091,385
2451,-6280,-4196,6696,-493,-846,661
2452,6387,-1926,-882,937,1219,-1331
2453,1388,-6176,-2961,1199,393,1644
2454,6620,7220,-3492,345,-1219,959
2455,3049,-3802,6790,-1404,-1998,-83
2456,2974,-5905,-2544,-600,-1006,-847
2457,34,6240,-4503,-1743,-1383,288
2458,-3820,-2021,5382,-1134,-1459,53
2459,4402,-266,-6263,918,189,1293
2460,-1821,-185,3050,1892,-376,1993
2461,5234,-7007,1071,35,278,-1598
2462,-2017,-6665,6673,-1139,-699,606
2463,2423,5482,2526,-1606,-339,297
2464,2159,7578,2514,1585,1014,-800
2465,4267,-7458,5949,-213,-1108,-1022
2466,-5788,221,4890,1782,1595,6
2467,1145,-4401,3973,1409,-526,228
2468,-7043,-1804,-4161,-1766,1040,1419
2469,-3080,-3748,-2495,-1096,35,-438
2470,7253,-7848,5310,614,-1417,-1318
2471,6583,-2731,-5825,1386,-901,-330
2472,-2205,-7505,5169,1157,-113,-251
2473,-5067,-6922,-3044,-355,-1839,-474
2474,-4547,1867,1364,-1812,-776,1834
2475,-7484,3940,-4924,-1302,-1011,221
2476,930,4415,5042,-404,-1881,1502
2477,-6337,-102,1031,-351,-1400,1240
2478,-2677,-5337,7860,-1925,-78,-398
2479,4078,5422,-2266,-1616,1043,651
2480,-2074,-369,3570,-564,1500,-944
2481,-2520,-319,-6121,1924,693,-1261
2482,-2592,-146,-2429,-499,-1622,1962
2483,4091,817,-3712,-1156,400,1529
2484,-1987,-3133,-6195,-1689,-1075,-1086
2485,-1828,6907,4630,-1741,199,-502
2486,-1085,6303,-5850,-639,1295,-1313
2487,7965,-4260,-5089,-1372,59,-1480
2488,-4328,6218,204,1106,46,-1713
2489,2846,-1675,-2796,-568,-468,-1678
2490,-3824,6643,765,-1649,800,586
2491,-5249,-3578,-17,-295,-1814,1799
2492,-7720,1853,7893,-1436,1458,-411
2493,7008,-4848,-7812,-858,-1403,-457
2494,-6555,7357,148,63,1939,1316
2495,-5824,-6305,-3202,-1016,-966,-369
2496,-2166,4158,-7664,937,773,-1810
2497,3838,1170,1807,-1635,330,1974
2498,4299,-4604,-78,609,978,1580
2499,-1478,5286,7410,-1970,494,-622
2500,-2298,464,-7854,-378,-435,-352
2501,5653,5144,2918,-502,1877,-319
2502,1085,-1912,499,-1268,1871,-62
2503,1254,-4120,-3836,-1808,903,1973
2504,2134,-5234,-1823,694,-1613,-1453
2505,5384,-4116,-7381,-1888,-330,1800
2506,-1394,-1085,-5307,908,414,1947
2507,-2672,-1278,2165,689,-601,986
2508,5974,-2483,-527,724,802,1190
2509,-4370,-323,-525,370,-1815,1532
2510,-2405,2047,6456,1416,575,-203
2511,-5304,-1042,216,1560,1476,1521
2512,7700,-7088,-7861,-438,-1121,-1014
2513,7466,2066,-7600,28,1747,-1703
2514,-5858,-2633,7901,384,777,-1738
2515,7899,1703,5811,523,-909,-1253
2516,-5535,-5549,3597,-1816,-554,1274
2517,3577,6247,-2328,-1579,-1755,-1093
2518,-5904,-7834,-6592,-353,-987,-1525
2519,-5435,-246,-4524,1880,-970,-543
2520,772,-4326,-6364,-1294,755,432
2521,-3609,-6168,384,87,-846,-1827
2522,2736,-5858,-543,-1925,439,-1408
2523,3583,-1975,136,-269,-1527,-1231
2524,-3210,-413,5828,-1245,538,-1356
2525,-1372,4256,-1928,1809,-754,486
2526,2328,-1111,6463,-86,-475,694
2527,-3093,1570,2618,-896,-45,-1338
2528,750,2326,-1588,-659,1102,1584
2529,1066,7766,7264,-552,-694,-1018
2530,988,-4346,-5352,1527,1278,1083
2531,2625,-7719,-1758,-1196,-1720,-161
2532,-2369,-1223,-5813,905,1231,1068
2533,-4496,395,-7379,886,184,-32
2534,-1079,7558,-2220,-1730,183,-692
2535,-3061,808,-4802,327,-1478,133
2536,-654,3127,-7260,-1687,1340,-140
2537,-1373,4420,4876,352,354,1516
2538,1664,6076,5919,1358,-971,474
2539,-5629,7390,-3826,-677,-717,1223
2540,7121,7131,3330,1596,1144,1561
2541,2450,393,-4736,560,-1112,-1141
2542,2757,4908,6812,714,506,86
2543,3009,329,1883,-907,-1560,1770
2544,4842,-2918,-6328,-757,206,748
2545,6691,3064,5793,630,-678,-98
2546,-5148,-3359,3484,-599,720,1912
2547,-1003,-1146,-2519,1336,281,1793
2548,4917,-5039,916,-1524,-1056,174
2549,3774,5123,-1074,812,49,-1838
2550,-7075,807,-7179,332,-495,300
2551,-2730,5439,3354,272,-620,745
2552,2293,7203,4457,-493,-751,-1045
2553,-7500,-3996,-3996,-1279,-1424,1661
2554,-5274,5853,-1115,66,1991,-1766
2555,5191,5609,5198,206,-456,585
2556,-6122,3672,5464,-1406,-1980,224
2557,2184,-3409,3109,811,-11,-533
2558,5733,410,-349,-1076,-95,-1226
2559,5301,-1724,-6215,-1728,1172,-711
2560,-7804,-6941,-7878,14,-20,1521
2561,-5670,-2966,-3529,1426,-59,-1882
2562,4023,7626,-4333,563,612,-1544
2563,-3681,3488,2389,-1144,-846,446
2564,-7054,5177,-912,-1077,-495,-1207
2565,-5624,3745,6142,1980,1475,-156
2566,4286,4971,-632,549,1141,-92
2567,-7475,-7482,-5473,-1902,1478,-1389
2568,3879,-870,2746,686,1431,-1030
2569,-6784,-3790,-6274,504,-484,767
2570,1316,-5662,3495,-1904,-1960,-805
2571,-4611,506,2065,1587,-224,1627
2572,7000,-1594,2092,-60,-1080,-1449
2573,3336,-3145,7887,1062,857,-1307
2574,-6108,-7285,2744,-1446,-1174,1867
2575,-2977,-1095,-5095,-1407,280,-1433
2576,-6107,-2229,1440,-1970,994,-845
2577,-654,2390,337,-1946,-1871,841
2578,-2288,-5,-1523,-648,-1964,-1928
2579,-1237,-7879,-7486,1976,-1429,-1591
2580,6262,5044,-2611,1089,439,-731
2581,-1746,-1680,2699,1934,-707,-1897
2582,-6143,-6534,-956,-1910,-245,-1393
2583,-888,3958,-4838,-1316,-496,1348
2584,5625,-3053,-1233,-430,1370,1026
2585,-7787,7146,4030,-1330,-1392,1533
2586,2224,-3085,3517,1089,-1553,-1757
2587,994,-848,3564,110,-795,-779
2588,-1213,-5117,-1286,1277,-1927,898
2589,-7996,677,6300,-1186,1679,-1985
2590,-3958,-5517,7223,-481,1016,-326
2591,-107,6235,-3209,225,1851,-1279
2592,-3882,6810,-7488,-995,-1431,284
2593,-3722,2656,-888,222,264,173
2594,-6352,-334,5082,-1833,-1472,880
2595,-2045,-6378,2373,196,368,1888
2596,-3454,-2190,-5995,-1557,-1482,699
2597,5744,4155,991,-999,-218,-777
2598,-479,7444,-985,968,1771,-925
2599,-6827,-7421,-3210,-181,-1456,-804
2600,7029,-4574,-6891,1141,-845,1422
2601,2751,-7909,-6672,-1527,-1851,956
2602,7673,-3837,-2609,776,-69,887
2603,2960,-819,2870,-1394,1440,1448
2604,-3926,6125,626,-1662,-768,260
2605,4106,7768,-7979,676,1626,-526
2606,7845,-3859,-851,-1911,324,1711
2607,-5191,-2324,-4184,-440,-605,620
2608,-3346,-6940,7744,1511,1956,-776
2609,3905,-3188,-801,237,-1993,437
2610,-7573,-5586,2451,-1542,185,-425
2611,3995,4765,-4095,974,1662,-1423
2612,-1536,-5071,6694,1783,-611,404
2613,-239,-1058,3365,1352,-1461,1742
2614,1013,7690,3540,1324,-187,762
2615,5850,-4945,-2605,1330,-76,210
2616,7038,6898,1125,867,183,945
2617,-7895,-3716,-4953,-1695,14,1222
2618,3489,2834,-2232,695,1945,234
2619,2211,-4921,4998,-33,1867,665
2620,-1355,-1824,1345,1821,-920,344
2621,5581,1557,4438,-552,1207,-890
2622,-2048,-6751,3007,62,1282,1107
2623,6388,-3988,-7116,1273,-196,-463
2624,4545,7074,1738,1582,1616,1783
2625,5513,2776,7197,394,1317,-333
2626,6231,-1606,-3580,-660,-556,-930
2627,-4191,2604,4184,-493,1397,514
2628,-7794,6753,3758,-2000,1614,1644
2629,4728,-7790,7500,-1069,1251,23
2630,4784,-2890,1733,780,1898,-1596
2631,-3562,-3049,7958,-1474,383,588
2632,6394,5600,-7687,190,437,-467
2633,-1920,-1326,1391,1064,1452,1930
2634,1322,5974,-4294,-140,-1173,-1158
2635,-4714,7510,6852,197,1988,-1029
2636,-3456,3402,4058,-251,-1828,363
2637,-4105,-6061,-133,-1905,-183,1300
2638,7879,-828,-2056,225,-1549,-1112
2639,799,3555,3496,429,-513,-86
2640,2450,6273,-1746,-1915,-1590,1847
2641,-4379,7874,-722,1111,1872,-818
2642,7684,-4125,-7425,-355,-52,1879
2643,4909,-4196,-19,-1178,-1422,844
2644,-1694,-1808,555,1617,647,-484
2645,6505,7855,-2167,-742,735,-933
2646,-3278,-3553,4111,-1442,-233,197
2647,4722,1429,2294,1445,164,909
2648,-1793,6093,-528,341,-1605,-414
2649,2557,-6053,6297,746,-53,1215
2650,-7159,-2917,4778,-1090,-288,275
2651,-2135,-2316,1733,-25,-1384,1433
2652,1454,2735,202,684,-600,-1772
2653,-1116,3619,2442,-1272,-276,-827
2654,2411,2090,-692,-179,1572,-714
2655,-6702,2867,-4302,-1379,-1760,1393
2656,3642,-2768,-1741,1906,32,1547
2657,2759,-4424,4516,-790,1034,-1450
2658,-2606,710,6838,-1794,11,-1537
2659,-3864,-770,7540,846,1622,-1202
2660,-6711,4755,-3897,-1389,-1832,-1500
2661,-6274,-7277,-5609,-712,1171,1375
2662,-3763,5147,-4714,422,697,-146
2663,-6277,-3739,6431,-1007,189,-75
2664,-1128,1500,-3666,1211,-1672,292
2665,937,-5102,-3968,1849,520,-772
2666,1561,-7630,-7796,555,-1433,-402
2667,-452,4568,2805,-1369,1541,21
2668,-3522,3159,1741,1543,-1179,-1289
2669,-4010,12,4746,-224,-235,15
2670,-6562,-7737,-2450,-911,934,3
2671,7941,-4371,-7850,149,1868,-261
2672,4151,-4384,5241,1337,-1805,1350
2673,-5729,-3713,4238,-978,407,-794
2674,-6982,838,7815,-1418,447,-560
2675,4804,-6794,1491,-1128,931,-473
2676,-6801,5555,2229,-532,613,-902
2677,-7015,-5416,-6231,1974,1671,1069
2678,2227,3412,2953,388,1998,-642
2679,-7351,-4272,-6215,-641,484,883
2680,-3412,-5320,-4315,-717,59,1873
2681,2999,5514,7988,-1743,-119,-1747
2682,6887,-1622,7453,1549,-1383,970
2683,5816,-4161,2861,1945,-1392,1741
2684,-5606,677,-7508,-1299,805,-1702
2685,4741,-4308,393,1806,301,89
2686,-7728,4158,-3083,-1875,-163,1195
2687,2591,-5527,-3885,1365,1218,1561
2688,3401,5150,-7482,6,-1611,914
2689,1027,-4006,-6571,1923,1298,196
2690,-592,979,5311,1501,1565,-1761
2691,6102,5183,4108,-965,820,-1195
2692,2013,7589,5465,-121,-1994,1963
2693,7361,-1952,-6257,847,-131,-117
2694,-3650,-7801,-311,87,1801,-271
2695,2930,-3026,-1022,1745,-689,1052
2696,3407,6458,3021,-1697,-129,1789
2697,-803,-2424,5758,1446,203,866
2698,5694,329,-6301,411,-805,-772
2699,1675,-1426,-7508,-1916,-1828,-121
2700,5566,5257,-5722,-248,1893,1227
2701,5218,5887,325,-1870,1642,1176
2702,6167,4449,2795,-869,-874,1861
2703,737,3633,-6537,-1029,-808,1494
2704,3418,956,-1963,-1042,-865,1217
2705,3204,1407,-7485,-1398,104,-1259
2706,-1304,-1583,7270,-1651,1791,-1792
2707,4605,3377,-5951,1632,-753,793
2708,-1346,6879,7703,-610,1617,-1401
2709,-3486,4632,4086,-512,543,-1602
2710,-4594,4483,4021,818,953,1175
2711,-746,-5347,-4313,-1214,-1990,783
2712,245,-1962,7697,990,-1150,1712
2713,-5672,-2878,2963,973,1019,27
2714,-434,5995,-79,-705,1405,-1406
2715,-2052,6089,2162,-924,969,-747
2716,2685,3469,-4294,384,103,258
2717,-25,3716,7991,1240,-626,787
2718,1022,1297,5741,-841,-1775,950
2719,-2536,3338,2546,-87,1436,-1914
2720,-7667,-1732,2539,-366,-1761,1737
2721,-4813,-1014,5689,-303,1781,682
2722,-4869,-5080,-1554,317,212,1600
2723,-1130,724,5645,1179,686,-1812
2724,-6701,5395,6847,-588,-1599,-48
2725,6072,3976,-1594,83,348,-620
2726,-4218,-1507,6478,1372,-1116,639
2727,7873,2867,682,-671,-950,1594
2728,-7417,-2000,-2986,-1619,1658,570
2729,-1849,5180,647,1442,-657,1532
2730,-4167,-7743,3487,-1738,-1158,964
2731,-7549,7233,-2940,635,-1660,-1312
2732,-2572,-1965,3808,1292,-716,943
2733,-2303,-6915,-901,-1747,1755,-1316
2734,3271,6066,5473,1912,693,645
2735,-3769,4750,-5213,890,358,582
2736,-136,-602,-7796,-134,367,-173
2737,747,-2336,6668,1556,1160,144
2738,-7809,-5119,-7055,-1583,282,-1087
2739,3731,2902,2938,1014,-1598,-1159
2740,-4930,6250,1031,1525,934,992
2741,2188,-798,3253,-1201,1629,723
2742,-4301,-2925,3690,1609,-1616,1010
2743,-682,2425,-4426,-683,-1200,-802
2744,2703,6984,-6168,-196,600,-1107
2745,-3970,-5886,4708,-1688,1721,1532
2746,-5906,3406,-41,-650,-750,-1763
2747,7096,3142,2851,960,1848,-985
2748,4001,5378,4427,-1070,-59,873
2749,-4578,150,4568,1830,153,-465
2750,-3708,4522,4276,854,-127,953
2751,-2666,1278,6140,865,1416,-1868
2752,-2641,3078,4693,-680,1348,-1750
2753,-5856,-4625,-962,1698,-507,1585
2754,4370,5764,-7807,1883,570,369
2755,5987,-4385,4202,-750,-1149,1481
2756,-187,5993,-6498,-71,698,1877
2757,-5052,-3186,6448,898,553,1175
2758,-3728,-1893,-5560,1240,-23,1756
2759,2132,7562,5724,1914,138,404
2760,-590,-402,-1664,-854,-1875,753
2761,-3144,7766,6891,395,-470,-1403
2762,-1363,5614,-7909,1721,1317,1891
2763,-7503,-4298,7203,-1262,222,850
2764,3633,5960,6622,719,-176,71
2765,1341,7593,-1590,-421,1682,-1973
2766,-5295,-897,-6096,785,1943,-516
2767,-4235,-4219,-546,1523,-1657,442
2768,7860,-4786,-432,-1199,108,459
2769,5701,1572,-3286,906,-989,1577
2770,5487,4081,5624,1554,1242,-651
2771,-65,-1393,5532,48,1056,-1310
2772,-2577,-1485,2391,-1075,1619,-1710
2773,-4728,1739,-300,882,-669,641
2774,3041,2119,2766,1404,-1868,-886
2775,2902,5615,3086,855,184,-962
2776,6252,-2455,2343,966,1185,1802
2777,-7021,1744,6795,1229,131,-19
2778,3651,7881,2584,-683,339,1577
2779,-6784,-2315,4541,-155,1230,578
2780,-3078,211,6588,772,1951,-1350
2781,5309,4962,6275,-522,1009,442
2782,7136,-6989,-5680,306,-874,-1915
2783,7049,1615,2445,142,1649,449
2784,1281,-1057,5594,-1303,-817,-1073
2785,-4995,1100,5071,-1862,695,-1814
2786,4189,-6687,-7841,-1825,-35,-1320
2787,-5984,2204,-7962,1808,-911,-723
2788,-431,-5613,608,-187,-225,-831
2789,6912,-4422,-1392,1573,-154,-691
2790,-2903,4273,5150,-1834,847,1723
2791,1575,2638,6373,996,-1085,-718
2792,-5174,571,3705,-1925,-660,272
2793,-7782,-2011,-7370,-346,-886,-1596
2794,6900,7508,-5936,985,696,301
2795,-2308,2994,-1544,-910,-1571,-721
2796,3987,5349,3398,1086,-164,228
2797,5485,-2175,4786,-290,1307,-140
2798,3910,-355,3201,-1409,831,784
2799,7296,3964,6118,-1883,-1583,808
2800,3732,-2336,6326,95,-1759,-1238
2801,-3115,-3386,-3213,-985,1749,1719
2802,4701,5060,-5436,-506,1080,-687
2803,-5023,822,-3792,-1879,-1440,-897
2804,6348,1752,-5021,-1494,1026,1596
2805,5172,-1716,-7015,168,748,890
2806,-4946,-2413,-4924,-1034,-839,-1551
2807,-7265,2232,-859,-391,1741,-1166
2808,-3197,5845,5183,1180,-979,820
2809,-6813,3062,5956,1598,515,652
2810,-311,5677,-1335,-1010,1289,8
2811,-906,-5649,-7474,1546,-1966,658
2812,4673,3658,20,1332,1692,1219
2813,-2941,5623,-6073,1365,-636,1719
2814,-1961,6485,-5136,-1838,296,-78
2815,-2562,4525,734,-129,1160,117
2816,-650,-3731,-6259,-317,1536,1038
2817,4793,-6322,-4844,1786,-1987,-1907
2818,5545,1505,2828,-1083,-1040,-454
2819,3342,576,-2142,11,-694,110
2820,-1985,1230,1681,1303,-881,1137
2821,-2858,661,-3019,1452,1543,-1993
2822,-6651,-7647,-5717,-1709,-161,-1117
2823,2880,7227,6282,-833,-160,-1156
2824,-4204,2913,1607,316,-534,-1473
2825,3998,-1049,-7046,-186,-729,-586
2826,3745,1546,-5208,-228,434,303
2827,3019,-2003,-3925,-1878,567,803
2828,-1618,657,5148,-916,744,917
2829,-3717,1725,5686,79,-1627,1475
2830,-736,771,-3065,-219,-1418,-1341
2831,-5070,-7361,1376,1435,-225,728
2832,5832,231,915,655,1742,1129
2833,-2112,6396,5409,-1904,841,828
2834,5332,1983,-364,-1401,-1629,-1013
2835,-7572,3265,-2832,687,1172,-1738
2836,369,-897,2043,-379,878,-1401
2837,6248,2939,-647,-748,549,-1199
2838,-1368,5826,7943,821,-968,611
2839,4148,4123,427,1567,-300,206
2840,-1872,1336,1918,1992,-781,-1050
2841,-7135,482,3832,1425,36,1540
2842,-826,7957,6571,-241,1194,1496
2843,5484,-6028,261,-650,1683,1020
2844,1597,2845,-2718,1251,1185,-470
2845,5111,789,7144,753,1663,-56
2846,-321,-3735,-232,-169,1506,-1391
2847,-7168,-6107,6888,1225,-608,1308
2848,2045,-5703,-1250,-164,-1136,1734
2849,-7319,719,3729,-1425,1293,908
2850,-244,-1390,5413,-1850,559,1279
2851,-5543,-5963,-677,-12,-20,138
2852,-5783,6863,-7690,-1184,676,-270
2853,782,-5457,5707,-323,1448,-1637
2854,835,3438,5926,-549,647,-1169
2855,5348,5672,-7818,-1325,1009,-1731
2856,2969,4655,-6918,1859,-1657,-1918
2857,-1559,7408,6071,-828,1468,-1247
2858,-7462,-5034,-3271,-588,154,-1116
2859,6313,6971,1183,-1284,-751,-1402
2860,7250,-6771,3094,817,818,519
2861,-3330,7623,7134,1558,-1476,1989
2862,7978,6858,-4483,942,1355,7
2863,-5171,1727,-7368,-1288,-1064,-669
2864,6708,1234,7157,-125,538,1455
2865,-5301,1576,-6273,368,-1556,-1375
2866,-704,-5402,-3939,1918,1345,1898
2867,-4184,2096,-5813,1648,889,-74
2868,-4287,-7378,1618,678,1620,-188
2869,1996,-1273,-6559,1142,-1374,319
2870,-7248,-4012,-5411,1728,-1989,972
2871,1264,-4693,-1820,1252,1921,-1403
2872,2306,7273,-2076,-835,-163,1214
2873,5990,5083,-2560,-1556,-39,245
2874,-3522,5605,-259,1537,192,-597
2875,-2940,2188,4229,-1187,-698,-419
2876,6551,5672,3020,994,1594,-529
2877,-4093,-4059,-1590,1163,446,-535
2878,-2648,6739,2583,974,1129,-1507
2879,257,5566,5241,-1979,-164,-1295
2880,4003,-5150,5210,2,-338,1478
2881,7026,1496,-1148,-750,-326,-863
2882,-4398,-4624,-1619,1397,-613,-301
2883,6801,7919,-1961,112,-357,1511
2884,-4695,3497,6201,-203,-1577,-790
2885,-2574,-7479,-6148,481,-697,-1653
2886,3337,6181,-1441,50,-1471,-831
2887,-2253,-1978,-1076,174,1116,224
2888,-3656,5267,-1275,-1667,1277,-519
2889,7061,5238,5419,638,-1279,-426
2890,1447,-690,6382,-321,-358,1462
2891,3667,-2475,-6928,-1134,704,888
2892,-7849,5647,-3588,-793,-983,-846
2893,2300,5939,-332,216,-497,441
2894,-4537,3375,7352,-1814,1163,1273
2895,-2834,342,1959,-298,-613,-949
2896,5363,1432,567,1672,1299,1864
2897,-3342,4338,-466,-1857,1617,-1769
2898,2228,1325,-2766,1030,174,230
2899,-5863,-416,-5839,-1666,910,535
2900,-4032,4173,5176,-801,786,-1784
2901,-4673,-2075,4529,-1241,193,1091
2902,-92,3903,-2097,773,830,-1651
2903,-367,3698,-7859,1476,590,-346
2904,-4082,3268,5705,619,-111,-499
2905,6663,-184,-3175,-1580,1260,-560
2906,-3377,4714,-7341,-1744,-1966,1030
2907,-7030,-2977,-1824,1744,529,-1158
2908,1648,-7188,1692,-48,-1316,-1790
2909,-1589,-6688,1154,-268,1847,1291
2910,-4058,-3771,7268,443,216,894
2911,-4822,2244,609,-1889,905,-1198
2912,6634,5815,-3428,-1867,179,-284
2913,4583,7573,-3561,1356,500,-563
2914,2357,2615,-4012,-1861,332,1272
2915,-7067,4687,-2731,279,813,-1851
2916,4232,-4729,2679,-1374,-1779,-1668
2917,4162,-7940,7720,-1549,1160,1763
2918,-6309,6368,7232,-603,1761,-1210
2919,-1473,4039,1121,1295,-1868,1949
2920,-6659,5705,-3931,-328,1990,395
2921,-7901,2432,-2475,-206,-1693,491
2922,199,-1624,-2689,533,-230,1391
2923,-5773,6480,-6827,-583,1167,-973
2924,-6252,-1870,-270,1360,-159,44
2925,6946,2821,5052,44,-842,-199
2926,5248,2362,-189,-1475,1793,-1019
2927,-6903,376,410,314,761,-1470
2928,-7701,-396,1555,1916,-713,-654
2929,-3634,-2708,2263,-1226,1137,-544
2930,4276,-4975,-3400,725,403,-1824
2931,1641,83,1341,-1260,1118,1561
2932,7867,1174,-2038,571,1907,-292
2933,-5338,4323,-2008,-839,-1781,-672
2934,5024,-3602,-6370,-1158,1063,1590
2935,-1831,-4798,-5662,-331,916,-83
2936,474,-5797,-1989,1757,-1885,236
2937,7735,-4124,-4104,-429,-1968,495
2938,-1359,7412,-2479,-777,-487,-226
2939,-6773,-1486,1869,-1648,-590,-959
2940,769,-4415,-205,-678,531,-485
2941,2074,-5854,4354,573,-117,-1936
2942,-3568,-4122,2999,-288,-1181,1426
2943,-738,-372,3806,1791,790,931
2944,7413,-5442,7673,176,-811,-685
2945,3753,-789,-6441,1446,-711,51
2946,1349,-2680,-6082,-1035,102,1622
2947,-3891,-4288,1554,258,-284,-720
2948,-4557,-7163,7610,598,421,-528
2949,-4222,2969,-967,561,-1155,1508
2950,7829,5837,-4209,-1279,1750,-337
2951,1346,-2560,2751,-1261,-1228,-1401
2952,169,3624,-197,-1838,144,871
2953,-2892,-3529,2947,-339,1393,-212
2954,7362,3544,1791,-287,599,1413
2955,-343,1993,791,1364,562,693
2956,-5723,-1406,6591,1145,560,1372
2957,-1078,4968,-5199,927,-1854,862
2958,7349,665,-6859,-1756,1435,-1360
2959,3664,-5473,1507,-1071,458,-261
2960,-3703,-5188,-7140,848,1272,-85
2961,-7074,2095,-785,-1503,1219,-1485
2962,2094,-7005,2178,-445,700,375
2963,839,-2219,159,1409,-484,-1273
2964,-3823,-4012,2909,1132,-1812,-1118
2965,-2986,-7298,5020,1811,-236,1307
2966,-7201,6315,2622,-1799,-1790,1986
2967,5030,3547,757,-55,1369,-943
2968,2920,-336,-3702,1414,764,1917
2969,-3679,6746,-102,-138,-1264,-358
2970,-1814,-5656,1653,-1725,-577,-1863
2971,6943,-1728,5082,-1157,1606,-413
2972,-4853,-6686,2069,-1818,-547,124
2973,2807,6491,1749,691,1903,1899
2974,23,7758,2010,1139,1170,864
2975,-1410,-376,2906,-1583,62,523
2976,-6723,3201,3159,202,-1111,-210
2977,4193,682,5725,-1336,-1503,-1423
2978,3704,1346,-4963,-1485,1430,-1340
2979,-5356,-6178,-541,1308,1466,-506
2980,7245,7271,1335,-1892,-1918,1409
2981,-1044,-7256,692,1998,67,-1897
2982,-7101,-5191,-1709,-1736,-634,341
2983,-1043,467,-912,-1485,1212,-1175
2984,-1306,-577,7629,-1772,1616,1066
2985,-6610,2726,3146,-621,424,-193
2986,3320,-4580,-4513,383,-135,709
2987,-3265,-5129,2575,1296,-1476,-1408
2988,-322,7967,2384,-78,698,332
2989,-4350,1169,-7403,1686,-324,1642
2990,6071,3768,1604,-602,1839,167
2991,1531,4539,1673,-1497,-754,-1780
2992,1899,-7711,-6664,827,-1564,954
2993,6437,-3698,-3666,341,929,634
2994,1084,-6651,-3199,1497,-800,1767
2995,-1130,-1021,-6483,1346,991,-1872
2996,2236,-5804,-642,1514,800,1306
2997,-3446,2224,-6033,-527,384,-710
2998,4087,-286,1400,1593,-561,706
2999,-728,-3462,3865,-1712,482,1465
3000,4722,-1251,7118,650,-448,-1827
3001,-3806,150,-4223,617,1580,-1264
3002,-921,-2917,-5667,530,852,1119
3003,-7067,-6478,-1385,66,-1475,520
3004,2804,-6631,4912,-1713,-527,-1027
3005,4810,2338,1560,1629,1542,1856
3006,-5701,5850,-7518,1320,-667,1597
3007,-4686,-7599,-82,-1487,1229,-77
3008,5614,-7389,5372,-1447,478,1730
3009,-4220,-485,4081,-854,433,-728
3010,-3653,5228,4727,-427,-621,447
3011,119,1313,-3512,312,-1494,-713
3012,-788,284,1873,-835,-398,-274
3013,-2634,3779,4860,1054,1257,-1717
3014,-2942,-3399,-1783,-260,1180,751
3015,-879,586,-6594,-771,-887,-432
3016,-4355,3455,2756,1013,-161,638
3017,6600,-4750,5997,757,-1017,-731
3018,815,5252,-6298,1513,391,1598
3019,-6032,-6815,4679,602,231,539
3020,5644,4722,5104,-1895,1827,-1325
3021,-7557,-2205,-430,-1560,-894,-1350
3022,-2992,-4409,6257,-1209,205,-591
3023,-1979,2245,5686,-936,735,-1139
3024,3875,-2565,3580,-80,-602,1905
3025,4647,2354,-1114,-107,-628,-581
3026,-7779,-4841,-7156,727,-1970,-939
3027,-4734,-731,-3232,275,525,-1621
3028,-2842,-5468,-4153,1733,-1928,-1324
3029,-4917,-3990,3919,-850,-404,1571
3030,5397,-4627,-5740,857,485,1214
3031,-3996,5373,7357,-1667,1257,-1250
3032,4443,4815,-1658,311,1609,15
3033,6537,-5306,-1522,-1538,-1695,-1542
3034,5043,1425,5142,1348,-268,1726
3035,-2851,1269,694,-1825,-256,-486
3036,6362,-1665,-6451,1495,1059,-126
3037,-3902,4315,748,1478,-386,-737
3038,-437,3841,-6879,-1346,-1328,118
3039,5710,-6114,4747,270,-659,1835
3040,5726,-3823,649,894,418,62
3041,-5021,-1221,-7865,-1384,-887,491
3042,6750,337,-5075,506,-1421,1485
3043,2441,-6189,6351,-1767,-499,-527
3044,-5518,-1001,-842,-350,-471,1001
3045,3429,-3923,5246,1217,1350,1588
3046,462,-7221,857,-479,-884,-1314
3047,-5678,-2332,7548,505,1733,313
3048,-1155,-2139,-3277,1730,44,-1421
3049,-7887,3437,-2013,-1754,812,230
3050,-7361,-6674,7307,-1755,-1568,-194
3051,-5510,2635,-6267,-1321,-1710,-289
3052,-6452,5096,-6843,1747,-1947,-611
3053,6956,4810,879,1717,-68,523
3054,-6606,4110,634,-1839,778,-980
3055,-4984,3531,4099,1976,-291,685
3056,2602,-1542,-1906,-680,-39,463
3057,-7763,-1616,-5215,-307,-466,-849
3058,3881,4572,-3527,-1093,72,308
3059,1129,-7350,-2157,-1105,-423,221
3060,-4118,-4988,-4265,-1227,723,1431
3061,5859,-6587,7696,150,1687,353
3062,6538,1065,-4964,-968,-1244,31
3063,6955,-3459,6884,-219,1962,1258
3064,6885,7023,2456,-809,-1046,518
3065,-3296,-305,7514,1840,-1459,-872
3066,-3608,-3564,6455,-48,-1241,-532
3067,-5167,-2431,2238,-1871,-201,-510
3068,-6695,6600,-5483,-318,-1020,-1693
3069,-7891,-6574,-398,1571,422,1233
3070,-4705,6764,-7749,-656,713,-1673
3071,-5186,2647,-5516,-186,-96,-1544
3072,7737,-4567,-2076,1060,26,-580
3073,3208,-3434,-7404,-422,378,-718
3074,5045,2974,-294,677,-735,-1542
3075,1652,-3172,-4725,1167,-860,-1891
3076,4772,-2570,-3938,1929,-1305,1945
3077,2457,7396,-3407,-232,-1493,1128
3078,3974,3718,3472,-224,367,80
3079,3027,73,-4207,-27,1640,-896
3080,-3986,981,-6399,1243,1842,1692
3081,2040,6476,-7988,-832,1278,1307
3082,-3351,-2346,4373,-130,-1956,-1568
3083,-6124,3726,-4873,1936,-259,-127
3084,-6017,4576,-4679,-1738,-49,-304
3085,-7507,358,-453,555,-1197,-417
3086,6634,203,-1597,-1115,169,-12
3087,5314,6993,5114,811,1756,-1960
3088,648,4909,4109,-1274,728,-1315
3089,-3044,4143,2009,931,-851,-523
3090,5866,-6902,7028,1544,-554,31
3091,-118,-3256,-109,-1743,-994,1107
3092,-2587,-2415,-3805,-1479,-1663,788
3093,4181,-6757,7446,653,922,-992
3094,-202,2279,-4992,-411,-677,1184
3095,-2794,-6159,-32,-511,-1680,-1250
3096,5911,-3476,-2149,435,1920,-527
3097,4918,-2058,1515,-1124,-1551,352
3098,-6937,4213,5864,1660,-613,1388
3099,-853,-5502,7841,-165,1480,-1450
3100,-14,7499,-7056,17,1834,-1540
3101,-5537,3881,-6201,1933,1958,-203
3102,-4985,6510,2198,127,1197,7
3103,5970,7170,-6128,1674,-1350,1215
3104,4614,1848,-7382,-1861,985,-371
3105,5599,-1042,-3564,-1026,413,-974
3106,-6492,-303,2523,-853,1043,-23
3107,3371,-3797,4699,-1201,1969,376
3108,-4485,4691,727,-1438,523,-1026
3109,-2354,5693,4820,-1971,-251,-546
3110,1090,-6055,6686,-1858,-1849,-966
3111,-672,-500,-4931,-331,1829,-927
3112,-916,5557,-7220,-1820,1212,1929
3113,452,1879,5886,540,-1556,-287
3114,156,4484,7313,770,414,520
3115,-5625,-2006,-6246,-1510,1320,-1287
3116,4406,-3214,-3363,-1337,-855,-1195
3117,6229,4084,2606,1434,-1665,-1022
3118,-5108,7250,-1944,1740,1285,1609
3119,-221,858,-6834,1921,-1739,51
3120,-1420,4168,-3571,-985,121,1633
3121,7320,-6160,2140,917,-1050,224
3122,-6771,6320,-7104,-390,-162,-309
3123,3898,-7695,-3380,-1601,-1586,-737
3124,-6473,524,-6714,1121,-1141,-1973
3125,-7849,1566,7080,-1163,-868,-828
3126,-7522,-1197,-1416,-46,-90,-681
3127,2826,2872,3437,-611,-749,-1136
3128,-494,-6730,1918,-752,804,-1194
3129,-5069,404,5704,-1087,1963,1938
3130,-1389,-7947,-1547,461,-1095,-1287
3131,-4018,4573,-7332,-1945,-938,24
3132,-6752,-5015,-5697,-848,1268,-1861
3133,92,-956,770,-651,618,341
3134,5999,4785,7415,679,-1240,-461
3135,-1224,-5572,-4506,735,1560,887
3136,-7876,5504,-7777,1004,222,-385
3137,-5851,-7788,3115,1348,1294,125
3138,6731,-4947,1758,353,-923,-1923
3139,1882,5154,3442,499,-1347,212
3140,-7722,4009,6150,-740,-835,-900
3141,2771,1175,6724,1457,747,154
3142,2212,3952,464,-1125,959,766
3143,-2815,-1862,-1830,-1029,769,-287
3144,-1593,-3366,-7460,588,1393,672
3145,3066,4880,-2306,1858,-131,-1214
3146,-7623,4986,-7444,-387,1209,1330
3147,4116,5637,2114,1747,-140,167
3148,-5694,-3957,5615,-808,-1230,1133
3149,3961,1601,7181,500,-1978,1774
3150,7975,4781,-812,-895,174,901
3151,-3165,-2345,4578,-70,1623,1086
3152,-1268,-267,-7512,-427,1876,-1555
3153,-1421,7164,3318,-448,1508,139
3154,-6433,6106,-7939,-1755,1096,744
3155,-6528,5074,1223,-176,23,-1825
3156,4711,-3379,1071,-1486,-1220,-323
3157,2050,7654,2125,-1455,-1921,1719
3158,-2361,1604,1426,-135,74,-43
3159,1252,5498,-533,-556,1674,1976
3160,1795,-6821,-3113,838,38,1051
3161,-2133,-4426,-372,-1858,686,-1519
3162,7209,1012,4367,-107,-1365,1991
3163,4006,3040,5015,-949,-1539,-366
3164,5480,4212,3565,-1997,1067,-833
3165,3843,6624,1620,1233,-961,-919
3166,-3959,-3048,5320,-749,317,-1662
3167,-3979,1012,1551,-595,-1558,784
3168,-7428,7152,2364,-1753,1519,11
3169,6538,4549,5709,-864,52,1774
3170,-6248,-3285,6183,410,19,-448
3171,-2441,2748,4584,-1366,-352,-1399
3172,-1744,-388,-1269,-1108,-927,-1958
3173,406,2574,1375,-134,-46,-1749
3174,-5572,5478,1397,-1411,-1981,1232
3175,3423,-3455,249,-57,1876,1423
3176,4716,-7785,-6408,1203,-1107,-1305
3177,-1338,-2980,-223,-1292,-1323,884
3178,-7056,-1297,6181,-1459,-747,-615
3179,4691,4148,5507,1988,149,-644
3180,3270,6686,3173,817,-631,-505
3181,-6196,6375,-1943,-560,1819,-1405
3182,6434,5299,-7345,-679,-590,-442
3183,-2922,-7765,-2785,-28,1792,251
3184,1440,6723,-1106,-1883,1163,-853
3185,245,5407,4081,356,-1947,489
3186,5181,-4489,-3740,967,-63,-1228
3187,3751,-1269,666,11,-580,1651
3188,-7827,371,6686,1140,1489,1749
3189,3417,4381,723,-720,-1798,892
3190,1245,-2178,-4229,276,341,-1317
3191,-3249,-6209,-4632,-1020,1448,1812
3192,-1156,-7370,1824,1471,624,-531
3193,717,1176,-3305,-1031,1520,1928
3194,1003,-2374,7374,471,-702,538
3195,-4172,6951,-5949,-1287,561,-1612
3196,-1289,-4458,-6976,1574,-363,-1356
3197,-6603,-7121,2151,774,-1570,-1223
3198,-6651,2069,-4672,-364,-259,1144
3199,-1324,6383,-3289,1765,562,870
3200,5817,-878,-2366,-210,818,941
3201,-7176,2084,-5151,-155,569,-999
3202,1329,2834,-278,-1018,380,208
3203,6203,-7421,-7242,-1233,1079,604
3204,-7244,-5079,4832,-1307,-1558,1813
3205,-1039,3770,-4513,-776,-1227,-1341
3206,5857,-327,7613,-1835,1811,-1411
3207,3355,6895,4722,-1187,852,710
3208,5848,-4960,-4174,-35,920,1446
3209,4418,2393,478,1521,-238,-243
3210,-3116,-5118,-2758,-996,-1115,1301
3211,-2234,-636,-1639,144,267,-553
3212,2261,-2281,2268,-1475,1901,1325
3213,-5454,7142,3514,110,586,-1570
3214,-6176,-1698,-4992,-1968,32,530
3215,-2458,519,2491,357,-1585,1938
3216,1502,-4198,7570,1445,1463,601
3217,7887,1949,5282,229,-1790,-1613
3218,-55,-1248,4270,1606,-1049,-379
3219,-7345,3553,-236,306,-76,565
3220,-6875,-7594,1060,-639,-1888,-1366
3221,7822,7516,-2693,217,-1849,-1195
3222,-7725,-3577,-3064,481,-1839,1846
3223,-5691,-5634,-6608,-593,-1245,-257
3224,-3605,-985,-3939,1249,-197,-1956
3225,1627,-1957,-6456,1936,-550,-942
3226,-6145,-4134,6481,-1984,270,-539
3227,-951,4565,-3918,-1872,-1268,1247
3228,-1952,-3760,2386,1537,758,1132
3229,6187,3137,2566,-1163,1226,415
3230,-7979,-4492,3630,-237,-1913,456
3231,-4903,-7514,784,1216,-1829,-1558
3232,-86,-7185,2065,-698,-98,934
3233,-1685,-1759,1197,-181,511,21
3234,-1789,2020,-3372,-1396,232,-1295
3235,3217,-1009,3867,-927,24,-740
3236,-7610,-2198,6776,-1087,1041,1563
3237,5436,-5245,-1257,414,1855,704
3238,2353,4501,-2692,69,-1251,215
3239,-2615,-6523,7249,1012,-1616,-1044
3240,1151,530,-1311,-602,-53,1811
3241,-6605,-2167,885,1491,793,-518
3242,7264,7183,-1500,1525,187,1367
3243,-1754,4716,-4966,-738,1008,637
3244,-2686,-1419,-6372,-1945,196,-1306
3245,2173,-7165,-7217,-356,-1196,-156
3246,-1780,-1941,-566,-420,-1643,-1307
3247,6259,-3439,6802,-179,-1492,-1780
3248,-1672,3558,-5630,1495,249,1644
3249,3070,-564,-268,1296,1014,-1802
3250,-5005,-2950,5207,-1371,-1278,661
3251,2268,-5260,-2340,-1491,-201,469
3252,-6585,2629,1795,-1776,-2,1296
3253,-6813,465,-6465,1895,-1696,1031
3254,-7749,6965,-5801,-71,-835,1229
3255,-4942,5294,6016,1116,1638,-10
3256,528,4775,1175,1825,-234,-839
3257,-2701,7305,4314,-820,-607,1080
3258,-3236,1893,-2865,-1063,-1162,1049
3259,-61,-5194,6980,1418,-699,-1499
3260,-7389,-4921,1160,-1847,1862,1552
3261,-4507,-2801,5078,144,101,-1311
3262,-3268,669,2520,1473,283,1981
3263,6987,-6853,1678,-647,-326,-662
3264,879,-2447,622,193,-1123,1854
3265,-928,-4050,5262,1816,1065,248
3266,-5010,5617,-6660,549,90,-1540
3267,3134,4520,-250,-93,-1113,841
3268,-3700,4901,-5986,728,-1430,-222
3269,7784,-1117,6861,-477,-1913,17
3270,-551,4497,5772,1260,-1795,-1372
3271,2112,2255,-7888,435,1589,657
3272,7262,-3594,2024,1895,1623,1036
3273,2225,-6944,367,1620,-1286,-1227
3274,-4929,-7668,-3148,1075,-1852,525
3275,-550,5499,407,99,-525,1766
3276,-4024,4262,7226,-401,173,-1658
3277,-3242,1545,-4245,58,-492,-974
3278,7583,6377,1391,-1920,1312,-1967
3279,6088,5005,1358,1822,-361,-401
3280,-1222,-3332,292,-1789,-423,277
3281,-4258,1663,-6513,714,-1470,1884
3282,-3730,-7386,6275,-592,59,1720
3283,6450,6326,7823,-1579,-49,-95
3284,-462,-3354,-7664,1011,952,-287
3285,-792,1655,3942,-513,-274,-756
3286,5843,7395,4926,-1776,-341,277
3287,-4618,-5268,6395,1677,905,1288
3288,-7631,-5893,783,1561,-106,191
3289,3111,-2800,-2344,1249,-1914,-632
3290,-1755,4491,2245,-139,731,817
3291,78,2555,-2438,629,1923,238
3292,2079,6592,-3406,-1774,-554,-868
3293,-1149,-3501,-3144,65,423,-1880
3294,6398,3243,-6983,-1777,-1196,793
3295,-5945,-564,-1153,527,-1591,-1624
3296,-3294,-7237,-3428,-1028,1513,251
3297,6676,7629,-547,-954,1910,-1849
3298,-7086,-7972,-7796,227,870,684
3299,-2503,-2682,1641,115,-447,1594
3300,-5016,-2111,4567,1491,385,331
3301,3778,1700,1351,-168,1746,-974
3302,5348,826,-4982,464,-858,1126
3303,2698,-665,1959,-1808,441,-1581
3304,3813,-2126,-6137,-1444,1943,1505
3305,-5923,5592,1348,734,-804,1815
3306,-3360,-4733,3886,-1880,-1984,-896
3307,4598,-233,3631,1568,-1449,-267
3308,6970,-3018,2915,1419,53,-760
3309,6923,1639,1792,-621,-284,-422
3310,-7154,4467,5999,952,-729,202
3311,7599,-5386,-5668,-1062,276,-463
3312,5527,3311,5526,-1954,-1310,1646
3313,-5419,-3901,-7098,715,1250,1284
3314,5373,7013,7406,1038,86,104
3315,3453,1571,5900,1229,-1562,282
3316,-7568,-6441,7530,-1102,195,1521
3317,4370,-783,-5036,-256,-241,-1930
3318,-5962,-1724,-4746,1629,148,-705
3319,-644,-1609,4807,596,415,-904
3320,2111,-4281,5347,1825,-1021,-1967
3321,3893,894,4712,1020,-719,-638
3322,-6532,-7698,-7630,-1020,1262,-177
3323,7370,707,-7136,890,314,-1598
3324,3059,2425,-1268,-1839,-1620,-302
3325,5523,-3744,-1076,-393,-94,-215
3326,1666,6278,6290,-811,1192,659
3327,-6824,-6348,7568,-801,-845,666
3328,1594,2420,3282,-373,-418,-1431
3329,884,-5356,-2789,945,724,-384
3330,7759,-3824,-1437,1921,1324,-1321
3331,7098,7930,889,-1310,1801,1964
3332,-4500,-4662,5568,-847,-1700,-1486
3333,1480,-2970,-3009,-957,1570,1776
3334,6373,-6133,3778,1389,45,250
3335,7867,-5919,2142,-366,348,-729
3336,-6121,6105,5564,-1175,-1553,-35
3337,3526,6902,-3696,-1938,-1038,-1276
3338,-943,-1519,-5433,1884,-829,-1472
3339,-3973,-3383,-2799,-974,1361,1988
3340,-4528,-4308,7252,-469,1295,-1590
3341,7904,-4907,-6363,97,1970,-1194
3342,-7373,-6471,4896,1810,1505,485
3343,-6229,-4218,850,-1209,-1621,1699
3344,-4432,4229,6416,1927,1712,1528
3345,-2803,-860,4260,814,-1935,1184
3346,876,1681,3669,-668,-730,-1312
3347,-6234,-5801,2507,-176,1597,-1839
3348,7136,-4249,2239,1655,953,602
3349,-4847,7596,-2528,1215,483,-1572
3350,-868,3503,-3155,1940,484,937
3351,2880,1068,2072,1653,-1172,340
3352,-1908,-6391,-4565,-62,1290,1933
3353,-7091,-4697,6768,1451,-237,807
3354,5073,-7791,164,-338,1002,-1146
3355,6816,-6105,-7833,-1944,161,-921
3356,-3645,7830,7864,-1284,-594,1384
3357,493,6308,5510,1847,153,1674
3358,7300,-3593,507,1892,515,-1309
3359,3062,265,-2384,-879,-712,-1273
3360,-7333,-7547,-7632,-1965,-1387,781
3361,5262,-207,3661,1596,82,386
3362,1473,-1629,-5024,579,-1322,1878
3363,-493,-3164,6952,264,525,-168
3364,-103,-2614,2500,-334,1283,-918
3365,1451,-5658,-1792,1663,425,-967
3366,-7122,-2463,5080,1585,-423,947
3367,367,-32,-2712,-1312,881,474
3368,-1882,2717,-917,-171,1824,832
