Sample,Ax,Ay,Az,Gx,Gy,Gz
0,-2411,-7204,5977,-625,-1902,-873
1,-7885,-553,-4245,1168,1828,1400
2,3185,4411,-5186,979,1327,759
3,4242,-6063,-7011,-518,1526,354
4,-131,-1083,-7869,-507,772,-279
5,-7083,-4345,-5678,-729,-1160,811
6,-7101,-4221,5206,712,1117,1591
7,5181,5294,1250,-1924,-1087,1506
8,3654,-6179,1741,-1853,-1643,-370
9,-782,801,-7510,-623,-1084,1697
10,-2746,-6918,-4250,1129,-1327,-1957
11,2027,-5357,-5557,1131,969,124
12,4477,-5679,-812,-1155,1640,1852
13,-1487,970,501,1018,-689,26
14,-4324,-5683,-5835,-455,983,-766
15,-4479,7026,-219,139,-1153,1432
16,5891,-2765,-2403,580,-1384,-1475
17,3052,-3513,-6635,652,-1350,-1300
18,-4584,7143,-6582,1663,-585,-482
19,-1735,2385,-7219,12,403,-122
20,5854,-6186,7919,-1479,1563,124
21,5410,-4320,3728,-1542,1835,746
22,211,4288,-3908,989,-1219,-451
23,1317,-1967,-3982,1795,116,-1491
24,6061,-1179,7198,-896,147,246
25,3597,-6923,271,-688,-1135,1157
26,98,-5910,1533,1161,-1859,477
27,2918,-7733,3474,-1597,711,1354
28,-3103,4045,2742,-1013,611,1184
29,7096,167,-7121,-1893,1256,1541
30,3587,3920,1031,498,270,979
31,-2729,-1088,7379,430,-1152,332
32,-2825,-7408,-2829,1292,118,1985
33,2710,-2248,6660,-1931,-1023,1437
34,-3717,2968,4055,-1474,1313,-1808
35,-2178,7484,5008,651,81,-316
36,-2914,-6073,-2160,-1427,-351,-469
37,5992,-70,3540,1287,-388,1222
38,4536,-1699,2652,-1242,1613,1377
39,5977,-6689,4500,-405,20,904
40,-1996,-1428,1392,1718,1851,1280
41,-3007,7736,3690,247,-1243,343
42,5175,2224,-6875,806,-882,-1945
43,-1403,4357,7307,850,1532,1254
44,-3988,3913,323,1469,462,1172
45,-2441,-7076,4079,5,-1905,-162
46,-1204,-7139,-274,3,-1425,-169
47,7350,-1543,-4698,665,198,1493
48,6170,7842,4024,417,64,961
49,538,-3900,-4014,-1887,-304,374
50,3690,-2532,-2400,-385,-301,1517
51,1696,-5683,-94,-1026,653,1516
52,2224,4777,3700,-461,-1663,-359
53,-866,-4816,4159,1826,715,-1757
54,2474,-6806,-7001,834,1390,-1094
55,-7945,-3751,2666,962,-441,-1187
56,2169,-3745,7597,1790,-1289,-1696
57,-5453,-2254,4635,-1207,793,1820
58,-4863,-2814,-3974,1907,913,121
59,6076,5195,-6240,1455,910,1144
60,2792,7472,-1501,302,-714,-132
61,670,406,-6318,1016,-224,-1589
62,1932,-1580,2247,-755,971,-1484
63,-36,-6304,-7496,1027,424,-622
64,-5862,4384,2563,284,332,-1562
65,-683,240,-5020,-542,770,1516
66,-2008,-3325,-2283,-1070,1261,1683
67,-594,4019,6027,5,-348,-1656
68,4563,-4118,-707,1803,-229,959
69,6596,-3314,6387,-162,1696,1301
70,-7699,5163,3665,1092,1832,932
71,3182,4905,4780,-1518,-1550,3
72,-2782,-4621,-3124,-707,274,-917
73,3193,-1606,2975,-851,-1292,1518
74,-1146,3694,-2017,558,-1327,-891
75,4694,-1038,5094,-1886,-534,-1935
76,7500,-3959,-1903,-539,1867,135
77,1448,5355,2346,1390,1637,675
78,-7502,957,1813,-7,-1366,-610
79,-3373,7821,2793,-1145,-915,-1438
80,7866,-4284,1469,1854,830,123
81,-3731,3852,-3412,578,820,1082
82,-2855,-2688,-4833,729,-1575,694
83,2416,-974,-1819,1222,897,-1038
84,3886,-3735,-1225,-647,-1953,-976
85,-1860,-5037,-1508,-980,-1330,1692
86,1594,-6698,3033,163,14,-1234
87,1950,7391,-1287,-532,-232,-680
88,-4044,2817,-766,996,963,-602
89,-6968,1874,4022,1072,-637,-1998
90,-6790,-5477,-7742,-488,1141,-1281
91,-2208,-5820,-1243,1874,50,-873
92,2929,6254,7515,-873,-1922,69
93,-2189,-2275,4280,999,553,1385
94,-6996,-6811,-1405,-1182,-277,-1700
95,94,442,3105,435,318,-1471
96,-2832,-4048,3024,1007,-1362,-1752
97,-1014,-5067,4218,653,-610,-275
98,1652,-3805,4622,860,986,964
99,7571,4317,-7319,-759,-462,-1530
100,4968,-4889,-6324,1457,822,-898
101,-1895,4827,-2958,-328,-840,1797
102,2543,4520,2117,1673,-1470,665
103,3944,4736,4471,-1196,489,-487
104,-2891,-2409,-465,-1538,-1281,77
105,5783,5884,-2412,1941,1139,804
106,-7780,-144,3281,-1507,294,-1693
107,2517,-5524,264,-1182,507,-609
108,5994,4082,-7646,854,1966,78
109,259,-5511,3136,-1860,-539,-504
110,-3191,2085,-858,-1830,-1174,-1951
111,6295,7388,5942,1193,1719,-519
112,4793,5035,3341,317,-245,-1708
113,-3669,6899,2937,-1194,-831,36
114,-5261,1252,-5205,-1576,-1917,696
115,7454,2351,-5938,-359,-1899,469
116,-2272,2262,5242,-1393,1432,-1395
117,6680,2642,-524,1969,-1990,-714
118,-1337,-318,6565,-1769,-681,1255
119,7220,7041,-6465,1613,1342,1524
120,-2528,-6701,-488,678,-265,-471
121,-3114,7078,-2574,283,-1488,-1559
122,-5164,-1236,-6570,-484,-1393,1686
123,1268,-6268,1102,-9,-798,545
124,6061,-6573,5753,165,955,382
125,2306,-5672,3820,1921,934,1700
126,-4400,-416,-750,1125,1768,1702
127,-2788,7480,3805,-978,1973,-420
128,6394,6835,6975,1066,445,-1086
129,7299,255,7994,-628,-1196,283
130,5510,-2925,-4560,-63,-1005,472
131,-6475,-3146,5413,1604,638,-345
132,7315,-1546,7977,-1676,-1501,-373
133,4979,4779,6108,-1581,1533,430
134,2738,2270,-1584,427,281,-175
135,-2026,4350,2854,-47,438,-1664
136,-2332,2993,3477,1029,-729,546
137,-4020,1289,5953,1064,591,-1423
138,-1527,-5898,980,846,-408,951
139,7973,261,4465,1402,-1577,1080
140,-995,6470,910,-1691,1406,-1245
141,7819,-7071,5512,1424,1369,116
142,2911,5402,-2589,619,-86,-1778
143,-589,3447,-1738,-927,-1694,1606
144,-4742,-6049,557,606,510,1842
145,7990,-6095,3818,1061,-1391,1649
146,2212,1837,369,-1632,-1196,1258
147,2229,-7852,-7996,-1651,1262,-1549
148,-3615,7693,-3471,-1486,-1641,1153
149,1793,-3695,1408,-1318,-1906,-141
150,2263,6608,-4256,1791,206,-1288
151,2324,1299,5810,-250,-1067,-1515
152,3131,6707,-2883,1135,-375,-429
153,-4693,3796,1687,-1612,444,931
154,-1611,-2848,-5101,221,897,-1809
155,1093,-4764,-5457,-559,-1328,-1231
156,-7009,-4300,-324,1001,1728,-492
157,-7784,7427,-3300,770,-1107,-327
158,7481,5729,4403,1198,-685,877
159,-4365,-7267,243,-659,1819,1302
160,-3792,1222,5509,1797,120,-716
161,7869,7932,-4212,1647,-1611,1930
162,-710,-1804,-2501,1940,1494,1853
163,-5665,3576,692,1249,1184,-30
164,6756,-7589,7346,-282,-1726,-696
165,-2297,-4766,-6043,-617,-229,1780
166,7551,1794,-2663,-1242,834,-159
167,-1846,3473,-1393,-231,-831,-912
168,-6467,-4003,-7101,-1154,-84,-1401
169,5673,-5098,4102,-634,1300,1839
170,-7836,-3898,5457,992,-987,-517
171,-7850,3003,4025,-33,-1925,719
172,-130,-221,-5838,1412,1720,267
173,-1650,-4285,-1168,-1233,1023,1074
174,-6429,119,-1619,-355,1376,-959
175,2947,6942,6236,-1633,356,-844
176,-2850,5071,-6011,-304,-505,8
177,-2479,-1061,-5057,891,-1392,-1038
178,7179,918,3575,-310,645,204
179,-2824,7670,5425,498,-1137,-1610
180,-3069,3576,-1667,-79,1911,1131
181,1298,17,-3645,948,-1898,1504
182,-4817,6536,-7520,1085,1328,-1545
183,3953,-5515,3556,1294,1154,-830
184,6464,4000,4333,395,-47,270
185,-5224,-7229,-2255,-1296,1054,-99
186,-1181,222,-809,1611,-764,1699
187,262,-2563,6253,1167,-155,1097
188,-5333,-6228,1766,-1880,-157,1536
189,5586,-4890,-4875,195,262,1153
190,5851,2207,-5843,797,-1904,-172
191,-5224,967,-1638,1965,481,500
192,-4465,-5665,-7465,358,-1016,-276
193,4875,-1124,356,941,-1680,900
194,-6105,-2701,-7002,-953,229,1266
195,-5654,6193,-5669,1098,-1052,-1763
196,6686,-4123,2657,-611,547,-958
197,1474,-3518,3977,-1623,-1622,1310
198,-233,2304,-3046,-747,-756,559
199,7798,-4745,-4343,1771,174,685
200,-639,-2053,-5263,-252,-1716,-918
201,-3915,-3217,-321,764,121,-1207
202,-1120,3186,-937,160,-1221,-1917
203,-6776,5102,7009,-346,-1805,-304
204,4493,-7816,6045,-1467,-551,-1056
205,-6111,-6779,-4841,436,120,1362
206,-1674,-5953,6760,-963,-1355,-1331
207,-5395,-7953,-5682,341,1341,1013
208,6256,1333,-236,1191,1958,1618
209,6540,-3680,3381,1376,1055,-1368
210,-7916,4132,-4289,-119,-1667,558
211,-2639,5931,959,1024,1985,1225
212,-4531,-2003,-4626,778,1004,-938
213,-7533,-1054,4097,1235,632,-836
214,6582,-569,-5021,1273,846,463
215,7363,2590,1574,-1220,1935,-1033
216,3152,4157,7422,1681,1150,-1901
217,-4685,6768,-6568,-618,1363,1005
218,-7592,7774,-7402,1269,1966,-950
219,2748,-1754,-3730,-1056,-1994,-930
220,5201,-6335,746,1081,-1539,734
221,-3990,-1878,1517,243,1511,742
222,-5019,3779,-277,743,1869,-357
223,-2734,-3970,-6907,1818,-1342,-1432
224,956,-3404,-2387,42,-369,1168
225,-3937,-1072,5850,-1726,1706,-39
226,1433,4948,4790,-544,1331,-952
227,-3296,908,2978,-345,439,1142
228,-4986,-527,7914,1847,1961,821
229,5549,-4576,3817,271,1565,1905
230,645,2205,-3469,121,1263,-1024
231,355,-799,-5875,381,-34,-697
232,-3304,2174,-6070,362,1646,-960
233,-7351,-4187,3159,-294,-1863,1159
234,-5632,-6446,3158,1859,-1094,1106
235,-7706,-2111,6752,-780,-1024,-1824
236,-1365,2568,-4406,-890,58,256
237,-6319,4669,4461,664,1930,806
238,1460,-7553,-6822,462,-363,-1513
239,6499,-3097,4035,1591,842,890
240,518,3194,1305,1152,1797,-1770
241,7789,-2441,2831,-1355,-1225,1223
242,-254,1096,-3555,-711,-681,-523
243,6553,-2436,927,536,1263,-1698
244,-4443,143,-772,311,-1566,-772
245,3692,3936,-2452,1126,-478,15
246,3434,-6213,3497,-1690,1740,239
247,2715,-5687,7888,1969,-315,-500
248,-1936,7821,3544,-4,1410,573
249,-3449,3059,7037,503,-631,1768
250,7262,685,-682,901,-437,1303
251,-7563,-6077,6772,486,-1331,778
252,7369,-557,-1371,-687,31,-1959
253,-5141,-7888,5057,-891,1101,-632
254,-5397,7083,-5446,-1880,667,1485
255,-4822,2531,7304,-15,1182,1486
256,4095,-7594,1419,436,955,-1399
257,5037,-6214,-167,1915,719,1678
258,-513,-1561,-3041,939,75,1423
259,-2741,-3453,4902,1614,-125,-1558
260,823,-3642,490,800,1015,47
261,7151,-1406,5355,106,-467,-1212
262,4838,1443,-1706,1871,73,1599
263,-6168,-5070,6814,1824,-261,388
264,-271,-6819,-3531,619,-1634,-1354
265,-7709,-4641,-3639,-503,-1286,585
266,5105,-7883,-5833,-260,1653,222
267,3579,-2719,-7808,-509,-799,938
268,-4249,1606,-4304,1250,-923,-1731
269,2482,6824,5680,-401,1290,-798
270,-3025,-7541,5571,-185,657,1672
271,-2656,-2491,189,-918,-435,-1887
272,6790,-4115,7179,-51,-171,462
273,-4024,-3089,2332,-191,-1185,-1414
274,-6217,7832,-7605,418,578,269
275,-5471,6189,-3089,135,309,1069
276,7635,-2367,-2504,212,1756,1259
277,4635,7929,-1229,-1800,704,-740
278,6567,4865,6456,604,-562,546
279,7310,5096,-3629,857,-1346,1088
280,-2805,4137,-4666,1180,636,676
281,-6007,-7012,-4650,-1981,1764,1657
282,-3660,-5668,7593,-1066,1197,432
283,7650,7823,3969,690,-1989,1795
284,-6419,510,1400,1047,-927,-1586
285,-4052,-1565,659,112,347,-1118
286,-5391,-188,5902,-896,-541,565
287,-2184,-5357,1365,1665,-1748,916
288,2365,-2907,-6704,-1934,-1476,-786
289,6758,4427,5729,-1147,-1719,817
290,-4159,5957,-1322,-922,-1372,1729
291,4090,536,6880,1406,442,-936
292,-1130,3228,-7988,796,-1279,1377
293,1044,7612,-365,1332,1408,1338
294,-279,-1936,-5075,1774,-15,-103
295,7225,-4537,1781,-351,-893,1365
296,7939,-2469,-6560,-669,-1152,713
297,-1340,632,-704,-1876,-54,150
298,486,215,7700,1821,-907,423
299,1357,2923,7635,-667,377,-1562
300,6123,2528,209,304,40,1758
301,7140,4309,-7202,-188,-1481,863
302,7815,-152,5906,-305,-665,1446
303,-3549,5921,7188,-1254,-751,606
304,1518,5241,2492,600,-215,-1260
305,-6167,7654,2302,-1746,-932,-1650
306,5160,-7632,7506,246,-336,1929
307,6344,3013,2577,-1790,-791,658
308,-5519,-669,5409,639,707,206
309,-8,-651,-669,-1646,-694,-828
310,-6103,7083,-4531,88,367,1402
311,4324,4722,2731,-1057,-684,-998
312,-4461,-4651,3270,1161,1098,584
313,-7214,-2942,-7171,-1009,1889,-1993
314,4979,2562,-7710,674,-1893,-333
315,-6250,-1011,5345,-257,1097,1033
316,-7521,1033,3791,1223,-1106,365
317,-2296,2789,4455,806,-1716,528
318,-5818,1189,-1591,-1892,1371,-320
319,7898,7622,2589,-242,-1907,-365
320,4150,-7734,1151,-1073,1531,1025
321,-2794,-3657,3453,-1352,1983,-1283
322,1821,-4357,-5142,-1450,-1912,-1394
323,-6045,7662,7498,1399,1922,438
324,6241,6700,-3662,923,-1818,1567
325,-3519,-5724,7842,-991,282,802
326,-2173,4790,-2784,1281,665,341
327,-416,-1838,-1791,-1152,-1294,-84
328,6733,4500,6617,-1380,1849,-1112
329,5765,-6508,7151,-321,952,1370
330,-485,814,-1019,1286,1339,1119
331,7865,-5021,52,-901,-1641,237
332,-1140,2456,-5696,307,-1842,-478
333,4407,558,-3350,-785,-1664,1246
334,-7622,5971,-5300,-1578,-126,1435
335,-1093,-503,5184,1552,1936,-1401
336,6503,-453,3645,207,-745,573
337,-4489,-3166,-138,127,-1510,-1601
338,-1534,7933,2443,-1205,553,503
339,-7848,-5469,-5022,1230,-1494,-464
340,-1255,2741,-3196,86,-1002,-320
341,-1200,5122,-1287,-352,1629,-1937
342,2267,-4161,-1223,1494,-683,490
343,2016,3972,-4904,867,163,613
344,-2586,-1001,-7457,1116,-479,919
345,-2403,-2678,3362,-570,-1230,815
346,4949,4097,-2608,159,595,-1906
347,-4469,-798,663,-1767,-1421,1543
348,-181,845,668,1443,1576,-365
349,304,3167,-6098,1170,-1309,923
350,-3177,-694,-1743,38,-1332,1143
351,-7503,4588,3497,-807,-353,1906
352,-7204,7613,-4091,-1229,300,-1747
353,-4196,-2797,-2329,-1856,678,-1985
354,2000,-3347,-2921,-1832,-502,746
355,6188,-6826,7554,1736,-1494,1689
356,1937,-899,-5329,-327,1575,-1382
357,-1264,-6317,5963,-888,1696,1110
358,-1985,-1370,-472,180,205,1523
359,-284,869,-7857,585,1208,-1547
360,-6682,-7639,734,1161,-483,-275
361,1404,-5624,5878,-1585,414,-165
362,-3783,-6486,3743,-412,1080,145
363,-4009,1618,-7624,-301,-856,-620
364,947,5396,-5749,549,614,1412
365,-4557,-2488,6652,565,1997,896
366,4045,3527,-7476,1064,1535,436
367,-4085,6057,-2271,766,352,-1825
368,-6511,7508,663,1818,-1952,-1228
369,2794,6397,800,521,-271,-986
370,-736,1932,6129,-425,684,1719
371,1318,-2672,-2547,376,589,-441
372,5917,-7894,-3729,701,-1362,-769
373,7785,2330,7661,-72,-1179,570
374,7542,4601,-6543,203,-420,1441
375,-7692,1997,-6968,-1862,-484,1024
376,-7421,7008,-1271,42,636,-319
377,3390,1520,7966,1702,808,1932
378,-5518,3631,-1161,850,-330,-551
379,6591,-3460,7572,-1955,-29,292
380,-601,1220,2071,-1750,-980,-1925
381,2611,-7526,330,-1684,-448,-1870
382,4501,4112,-6289,1802,695,-1013
383,5493,-5000,1380,-1339,-1451,-1956
384,-6867,-956,-6979,-83,1475,-1054
385,1980,-6666,5176,536,-1448,1370
386,4422,-2128,2028,-336,1526,450
387,7083,-7088,-7366,1410,-1948,-1898
388,7876,4104,-1481,-222,-1061,437
389,4100,-3180,1129,-1211,780,-279
390,5174,3742,2273,-727,-1353,-446
391,-1467,-7207,-6953,-659,-925,-572
392,-1368,-6554,-4378,-23,1988,647
393,-2906,3458,-2662,253,1233,1389
394,-243,-6257,-6325,-195,-1861,1186
395,-5005,-1168,-4479,233,1156,1255
396,-7244,-1578,-6782,-815,-146,-1258
397,3984,-388,2161,1118,-2000,-1148
398,2774,1181,5529,-940,-1242,-941
399,-7370,1589,-4438,-1852,-924,1096
400,-4577,-1590,5981,732,592,-1290
401,5738,5391,3913,1037,-1953,932
402,-7982,3583,-7418,-667,46,-202
403,4499,2037,-3643,1666,1227,439
404,453,6379,3880,65,149,1414
405,-2402,5987,4557,1676,1642,199
406,3595,3529,5610,326,874,149
407,2891,-29,-6959,-1530,-1157,-793
408,3457,-2095,-847,1291,1549,1125
409,-6294,-4983,3886,-1161,-719,1060
410,-6176,4479,-5277,364,-1326,1381
411,6870,7010,-1584,-146,1844,-867
412,-2654,-3487,1502,-1403,469,-1713
413,-2177,5568,5163,-1474,-1138,-1904
414,-1324,6333,-6339,414,-1823,1299
415,3383,5008,700,-79,-945,-1167
416,-1193,-5265,-6683,1548,141,-950
417,5912,-766,5517,540,-1850,-638
418,-653,1278,-7275,324,-771,-837
419,7553,-1862,5128,455,-1668,-102
420,4231,131,-6608,-864,175,-143
421,5028,-78,2792,-1491,868,1105
422,5965,5325,6933,1475,-1479,1348
423,-2954,4200,-5860,-1266,-221,415
424,-7697,4303,2708,1473,687,-3
425,6667,-367,-3487,-772,1846,1020
426,-4483,7094,-3622,-1852,-1030,-1014
427,-7979,-6547,-5674,781,-768,712
428,-419,-6007,-65,123,-1930,1355
429,-4047,-5852,5775,-1285,1045,1357
430,3521,-4802,-312,-1481,895,-169
431,-1383,-5868,4351,-1420,169,-1723
432,-4277,-5584,1940,312,-1322,860
433,-3146,-36,-7276,1714,-195,-190
434,-6025,599,-2681,-566,1577,-1300
435,-1760,3516,1981,-4,1262,1945
436,7924,-4086,-1876,-1281,-1437,-44
437,2608,4402,-1390,-694,1816,-1741
438,4570,-7380,4546,1715,-1791,-1747
439,-7597,-7703,2484,-614,-767,-571
440,-7651,2595,-2854,1539,-947,1600
441,3639,-1185,-1141,228,-917,455
442,3177,-5421,6057,-106,-608,1651
443,-4470,4680,-4646,-575,1771,-490
444,-3247,-7888,1361,1911,1010,1965
445,1320,-3359,1620,-1801,-1935,325
446,-1306,5444,7822,283,922,953
447,1747,-3971,-7219,-1545,-598,334
448,-4538,-1227,3581,-429,1456,1345
449,2837,4264,3004,358,-1488,-972
450,-5416,6322,-6841,-1132,163,1036
451,-2905,-3364,-3699,-1415,-708,-389
452,-1396,6269,-1209,353,943,-868
453,-6936,-7006,6174,799,-772,-1467
454,-7991,-1366,7628,-1141,315,1461
455,240,-3305,-7240,-777,183,1745
456,-6208,-7681,-6724,-1374,520,624
457,-2895,906,6421,564,-1536,-1417
458,444,2639,-2154,-899,1930,521
459,-5443,3083,5264,1401,-458,1520
460,3175,-926,3256,-714,-533,-24
461,7835,5052,362,483,-52,-123
462,-650,6221,-4128,890,1767,574
463,-6913,-5003,-2113,-1243,64,1216
464,-465,4301,1093,-951,374,-326
465,-5201,-5055,6851,1588,168,323
466,7407,7555,7641,-1763,-25,1337
467,-148,-3312,7805,-580,1226,129
468,-6257,7396,-4110,1552,1501,-1849
469,7568,-7710,357,-587,74,1886
470,4837,922,-7995,611,1990,-206
471,7531,-1968,4252,-1433,790,1488
472,6907,4498,1432,-442,117,222
473,-1551,5396,-6837,1641,-1366,1753
474,-257,673,2355,221,-1690,-1416
475,-6793,-3911,-5154,520,354,-913
476,326,4628,3490,-1126,-1951,-549
477,1950,-7837,3451,817,-288,-1853
478,1693,-1146,-1917,-342,-1144,-1553
479,7976,7295,-5878,-54,-445,1711
480,6887,-1646,6706,-807,1561,39
481,-7020,-4790,3077,537,-808,1874
482,1209,-4709,-1844,1679,30,20
483,-5604,-2864,6707,-1161,-909,395
484,7408,-5331,-6745,-875,371,793
485,3859,-2223,-145,-889,-1019,-788
486,2844,-2644,-1726,-651,-1800,-1414
487,4671,-2050,-719,960,1420,-964
488,3534,-3699,4849,-1576,-213,-1551
489,186,2893,1965,-1948,-1435,1097
490,-572,3783,4301,1799,433,-972
491,3118,579,7674,-360,248,1714
492,-395,-7457,3711,-715,1271,161
493,492,1781,7816,-508,832,574
494,-7096,-7802,-1418,-4,-308,-1771
495,2163,4765,6649,-1463,1549,46
496,-7641,3317,-4899,1571,-860,1238
497,4037,-5390,-4664,-381,1872,-973
498,7789,-7869,-6992,1899,-1825,-1919
499,-5405,-6156,7899,481,1952,403
500,-2023,-4065,-5290,1489,-572,531
501,262,-2747,550,272,1653,-1408
502,1106,5187,5128,790,719,978
503,3407,-6918,-7040,1472,1213,-1109
504,451,-7604,-4430,-87,-785,621
505,1868,-4016,-5297,-416,-1794,-854
506,6825,-633,-7507,735,438,-1475
507,3179,-5620,-6006,1013,1495,1158
508,3480,-1423,1013,-643,-1139,909
509,-4105,-6758,-5962,-390,-947,-1359
510,-2124,-2504,657,-1375,-1660,-331
511,7899,-1436,-5099,301,-1031,-275
512,-5916,3050,2303,1944,-1832,13
513,299,-6154,5986,353,827,-1798
514,-7784,5446,-2670,-1115,-1720,1392
515,-4602,7650,5114,-1806,-1749,1773
516,3081,-6267,6871,1927,1472,-1623
517,-2869,1774,1349,-94,1996,1292
518,2716,2180,4158,1908,-734,-1818
519,-6772,-2943,5369,-967,-1636,-1692
520,783,-3746,-6199,127,-1180,968
521,-230,-1370,7187,-196,93,-507
522,-6945,-6379,-157,-29,-596,-1841
523,7814,-1202,-5895,512,361,1
524,488,-2200,-2013,-1520,-1070,432
525,-7753,-4252,-197,1923,-724,1726
526,-4708,-1123,-5980,-1330,-1208,-1432
527,-6591,967,3834,1254,898,-1572
528,-513,2052,819,358,1428,1482
529,-6964,-1679,-1089,33,1962,478
530,981,-6423,-4493,-655,-1453,709
531,-6674,-381,-6124,-1769,1441,-1269
532,-6306,-943,5728,-1057,-1796,-835
533,3146,-849,4071,636,-1782,1796
534,6506,-65,-1018,606,-1885,193
535,-6940,6224,-2752,68,417,1328
536,-6022,5712,5332,95,-15,738
537,-6470,-2198,2686,435,1184,1772
538,-1591,-3159,-7114,881,505,-1128
539,-2280,1354,4506,124,-768,-855
540,2949,-3102,6385,939,-379,693
541,2153,-7192,-2467,-627,-1132,-988
542,2526,4521,-2910,-101,-1769,-1542
543,-5163,-1374,4428,-291,1371,-1543
544,-3563,-5543,5982,474,949,792
545,1800,-6324,-3841,1410,-942,39
546,-5286,-4817,4730,-1728,1748,-384
547,-2518,-5454,-3632,557,-646,1479
548,2664,7105,5392,835,1918,-1490
549,-4191,-2598,-3840,-1627,-227,-526
550,4542,297,-4844,-1399,281,-1047
551,1027,4337,3972,1989,516,286
552,-3437,-658,7533,139,113,-806
553,7930,7101,2637,1570,905,-1817
554,3897,1725,-2495,118,87,-1013
555,6393,-2781,955,-491,760,-451
556,4152,1661,-3208,1119,260,477
557,-4600,-7781,3186,1805,173,-947
558,-2301,7688,4990,-408,1581,1870
559,-3480,-2785,2598,1080,427,443
560,-6959,-2474,-6540,-1645,-353,954
561,4315,7976,4699,-1577,1306,-732
562,5037,7778,-6849,1119,593,-612
563,2128,-5343,-3753,1771,266,1869
564,7480,3303,7010,-978,1381,-68
565,1148,-178,2403,-7,-501,157
566,-7230,7217,6435,-1835,-610,1817
567,-4353,4930,-7311,1492,1066,1490
568,-6647,-4641,6535,-1893,-368,-584
569,6002,3793,2419,1166,-720,-1887
570,7796,-2367,1300,-341,1469,899
571,-996,-5173,2077,802,-511,535
572,1877,-3807,-2670,747,-1111,-1477
573,751,4089,-1945,-716,715,819
574,-70,-6505,7328,-1232,1058,1515
575,-3123,-4858,7264,1543,-674,-1758
576,-5543,2048,-1934,725,1172,-131
577,-7282,-3435,-6069,-782,1260,1818
578,87,3970,5281,414,1515,397
579,7471,4042,4125,1557,996,353
580,2773,-5167,4274,-725,1229,-866
581,-7272,3330,-1009,-1851,-1648,-1297
582,7628,-6599,2034,1578,989,-383
583,-7388,4867,-7230,1832,586,945
584,5427,-7816,-2879,-222,520,-1544
585,-6674,-3270,5398,1316,270,-652
586,-4470,-2256,-3632,-1440,-927,-495
587,4739,-7872,-7993,1901,1119,-1166
588,2130,-5967,-6190,837,1366,1217
589,-7376,6608,1863,1764,333,1536
590,164,-5784,-4082,-1602,-398,-297
591,-5581,-5467,7346,966,558,-902
592,-4669,964,-1697,-1127,1746,-45
593,-4645,4806,6880,-608,143,-315
594,-4984,-2456,-2978,331,-746,330
595,7344,5380,6870,-197,-1140,-772
596,3923,-1916,5456,499,1610,-1237
597,-3010,1495,146,1181,1861,1911
598,-601,-2528,5756,469,1765,-881
599,-1879,4081,-6033,-1917,-362,582
600,-5418,-5981,7735,1884,-433,-1467
601,-4512,-1123,-1436,1882,-1921,16
602,-1269,907,-5577,1880,-929,1398
603,-3348,4795,609,399,831,-775
604,6619,-4449,-2662,-376,649,1545
605,6104,-1822,-3771,468,-1850,-512
606,-76,-2327,2608,1765,-807,-693
607,-262,339,-6747,1998,-1426,643
608,-4577,4250,2821,1777,-1197,1953
609,2191,1569,1223,-932,329,-398
610,-6363,-4399,2171,-205,673,-469
611,-393,-770,1765,845,-1418,107
612,3166,843,-5062,-1290,536,-1404
613,-1593,3633,5974,-1541,339,1457
614,-1579,2003,-619,1859,1834,-452
615,-3394,1865,-1240,-856,-1724,-643
616,2884,-6490,4461,161,1286,452
617,-1069,-2700,2621,-547,280,1457
618,-6556,5822,-4445,-1576,1293,-786
619,3483,-1167,-5533,-419,1505,234
620,5851,6260,-5273,-1497,1883,1614
621,6034,7352,2680,206,894,-175
622,-4637,-3454,7262,-1725,-182,1774
623,6589,-3505,-5094,726,-1422,218
624,7397,3161,-3591,705,1866,1204
625,4355,7600,-1751,-1015,-1376,-1177
626,6391,1862,-4362,1222,-904,1095
627,7341,2617,252,-1340,1559,973
628,-4960,4799,-3035,539,-1193,1636
629,-7297,-3884,7727,361,802,380
630,4158,3568,5843,-1506,22,978
631,-2826,-3382,-1790,-559,1643,-1559
632,-2941,-1309,-1355,45,-1796,1591
633,7523,6029,6175,-1918,-861,922
634,199,-1561,4280,-1360,1750,-1849
635,-407,-6640,1186,1805,99,-618
636,6577,-4428,2170,1051,1412,9
637,3653,-4159,-3329,-217,1818,-797
638,-1812,1214,-1808,1100,1822,-978
639,-7723,-6629,-4972,-1050,-780,142
640,-1249,2485,7323,-1042,-1271,895
641,58,-5790,-89,426,1042,-1532
642,2630,219,6892,166,49,472
643,-6234,-7201,-4983,-1862,897,836
644,-2627,7369,3089,1652,513,-984
645,-1362,6002,7060,237,-1652,1962
646,4637,3813,3692,1029,-623,-803
647,5328,-5307,2136,1765,966,-1928
648,-7628,-7204,4247,447,-632,-1261
649,1959,-6308,-963,968,1733,973
650,-5462,267,7705,493,-841,1730
651,3533,-1100,6447,1052,656,-1718
652,-2228,1987,-7529,-1478,-1649,1594
653,-2719,-2287,4303,571,1099,1367
654,2619,-4372,4649,-488,1161,539
655,6781,6803,-6214,674,1509,1816
656,-4928,4024,2511,-915,-326,-194
657,5877,158,7209,1446,-302,484
658,642,-1807,3020,105,412,1712
659,94,-371,2240,-914,-1973,-1502
660,3749,4057,6792,-197,-1610,-313
661,3712,1088,2458,-997,-120,1416
662,5451,-5728,-4247,1977,-1266,253
663,-1914,-4002,-6376,-631,295,-1320
664,-1837,-4465,4025,-1203,-92,1521
665,1165,-3753,-6235,466,-300,867
666,-6240,-2429,3435,-224,-562,-1584
667,-1803,-602,-62,-1820,-908,217
668,-3234,-7364,2859,186,-1198,1347
669,4439,-1416,3131,-613,-214,-885
670,-5249,-5904,-6467,1793,733,-1697
671,-3491,-2706,-5994,-1530,606,274
672,7255,-1038,2661,1611,889,-1377
673,638,-6295,3940,-15,-606,-1198
674,-7740,2738,5448,-1270,1412,-664
675,4822,2615,-1744,-1541,692,-156
676,2287,-4078,5810,652,164,1650
677,-2076,7174,-6127,18,1641,-866
678,5656,-815,-7836,-791,-1309,1674
679,268,-1355,971,176,-1897,1202
680,-4559,-1942,-2204,342,1332,-1427
681,863,282,5486,-1435,-1474,-1349
682,-7107,-3847,-3449,294,-1432,-801
683,-5403,3861,6238,-1704,1732,-44
684,-802,-5902,-2552,-860,-55,171
685,-7387,-4007,342,-1328,-1442,1990
686,2720,-5425,5986,535,126,-1399
687,-4935,-4038,4580,-1409,1228,1583
688,5205,-5065,6256,860,446,-1993
689,1147,153,528,-471,-1303,1842
690,6603,4701,-2435,-1712,1307,-1970
691,6569,5856,-6943,-1187,1284,-1581
692,2204,-6949,-2443,-1262,-485,1314
693,1277,-6011,364,539,1092,-6
694,-4911,-5742,-6284,891,-1130,-1298
695,2760,-3969,4229,1596,14,-66
696,-5852,772,4316,-1600,-696,-224
697,-3601,-7226,1518,132,-314,-643
698,-1787,-7669,2766,32,744,-1324
699,4601,-4268,-5043,755,-1650,-268
700,4177,6371,1000,693,971,-1285
701,6970,1482,2972,-819,1277,1022
702,6706,-1135,-4821,60,-931,-956
703,668,7256,-2153,1840,459,1682
704,-7353,-742,-1200,1440,-1647,1499
705,2900,-7097,196,1439,-140,360
706,-4295,-2682,-783,-1894,-1505,-1693
707,-4971,-6760,3110,-636,1999,47
708,-2241,4470,3179,180,1395,1546
709,4859,-1988,4253,557,1048,566
710,-5849,1797,6277,-955,-161,638
711,5937,7618,6011,1172,1195,322
712,-1765,-3440,5793,499,566,-829
713,3099,-2268,-6659,74,-712,-1336
714,6613,-4159,-4212,-1701,-856,120
715,-7181,-4612,-6874,1947,1610,1113
716,-125,-3364,-3447,391,1040,-1377
717,-4602,7275,-5659,537,-1401,-1677
718,-6168,-4584,3799,1725,257,-476
719,-4494,-4619,-22,204,-918,-1187
720,3269,-7660,-6476,1589,704,-1855
721,3020,4727,-174,723,-584,548
722,-7000,-3931,5219,655,-1923,609
723,328,-6551,2148,-380,-955,-1991
724,-2326,-5894,-1975,-100,-1262,859
725,-5323,4727,5922,1365,-1257,-171
726,5986,5788,4506,-1794,572,924
727,-6645,-3133,4781,-770,-623,-1993
728,-2383,922,-961,351,-621,1853
729,5728,-5998,6309,1034,-537,1595
730,3843,6809,4497,-1932,-1898,-1186
731,-2734,-3099,4690,-1545,-79,574
732,-5995,-4289,3488,-1677,358,-771
733,4170,2049,6155,637,-1545,-1974
734,6284,-7023,-3899,990,274,-1748
735,7255,1791,-6092,-1041,-22,-1598
736,-6952,7142,6087,1980,141,1277
737,-5625,4191,-923,-278,-952,816
738,-1136,-3679,-3718,-794,601,-532
739,977,7860,3779,155,-973,1882
740,4650,7637,-1946,-287,1996,-654
741,931,-2393,7163,-898,657,-1008
742,-6219,1569,-5508,1476,-1710,34
743,-467,-5790,1606,723,-65,714
744,6741,-814,-13,-890,-1294,-1517
745,-5389,5143,-694,-1911,-64,1111
746,-774,5165,-7283,887,-1652,-744
747,6334,2481,2934,1870,563,1655
748,6352,-5328,1184,911,-95,983
749,-4267,6458,-5317,-1379,761,1219
750,-4063,-4308,-6340,-914,1251,-1676
751,-1932,5822,-4036,1716,-452,-336
752,1343,1033,-1062,-223,819,-942
753,291,2389,-675,-488,1842,1692
754,6668,-642,-3197,-1636,1662,87
755,3143,-621,4160,-1706,906,-165
756,6915,6222,5819,-1557,-1297,217
757,-3128,4071,6647,-957,-854,215
758,7679,3132,4641,254,-303,-360
759,3003,3620,-2237,1514,-799,1757
760,-4409,3612,-4509,-471,1952,307
761,-6157,-2223,2741,-1561,-641,253
762,4485,-7822,-1006,-345,-1184,491
763,7205,-703,3471,1678,1776,-1688
764,-1099,-7948,7394,460,-132,-1399
765,5982,-6932,-6133,-1999,-1356,1250
766,4953,37,-123,1943,481,-766
767,6549,5182,-7536,-1465,1633,-1142
768,2791,-3607,2644,535,-1868,-1481
769,-5014,-3099,-2946,-925,1319,1622
770,5624,2298,-3519,1683,-1439,-1985
771,1663,3458,2517,-322,1668,1882
772,6675,2261,876,1418,1994,568
773,6014,-5903,930,1319,1911,-482
774,3616,342,-733,-1864,-22,871
775,-2952,-762,579,-914,-882,-1330
776,7912,341,-7988,-1164,-1985,-34
777,4695,1325,7957,-325,-1492,-51
778,-2944,-2694,3900,1944,-1965,-1152
779,-5485,3551,5328,1407,-1632,505
780,-781,344,2241,1841,1546,960
781,395,6612,2365,-1529,-93,1425
782,837,-7232,-7176,178,350,-1250
783,-4441,-3537,-4990,-1131,-1589,717
784,3672,-4581,-4630,1238,781,949
785,7698,-324,5337,113,-557,-769
786,-4067,-1857,3034,-1093,-334,-1311
787,-4,6545,134,241,-772,1481
788,5366,-3479,-4202,-1698,1061,764
789,7771,-3999,5192,-1274,1354,132
790,-7537,-6364,3760,-561,-385,741
791,3247,3598,4586,723,1532,791
792,65,-1296,-650,1910,-420,323
793,-2953,-3055,-4493,599,-158,936
794,7396,-4473,-3167,1464,-1903,-413
795,1451,-6319,3318,-1313,34,1011
796,-7592,6443,-2367,-1377,-1607,1180
797,1076,-4728,-6501,761,-1088,553
798,7182,5152,1829,788,-844,1293
799,4128,-3811,1440,232,1887,-481
800,-2574,-3654,-2055,533,-235,1368
801,5160,5702,259,587,212,1917
802,7474,-2475,-4208,-953,-700,-1034
803,7490,-2728,-7185,-212,-1214,-1402
804,-5842,-1811,-4685,-908,-1461,359
805,7712,6200,-1377,1783,654,-13
806,-3355,3835,4393,-889,-194,1697
807,2925,6259,2666,-1549,372,1463
808,6173,-7464,3570,-1345,1862,29
809,7351,-523,-5495,1503,-1912,1106
810,-3237,4716,-3516,1999,-108,-917
811,-2815,-3385,5055,1995,-432,-85
812,-618,-1027,3712,-1543,1303,1588
813,4223,2222,4373,1228,617,1108
814,-2840,-1907,2629,-416,-1917,647
815,7927,-566,-2251,719,-1345,-415
816,-2504,5791,-5426,1646,-398,1874
817,3160,-4334,7532,-922,-845,1107
818,571,2522,-7168,1155,-1867,411
819,5051,-919,1404,-301,-195,-421
820,-3307,7024,-5088,-1303,-1715,1654
821,4103,32,6552,1141,-519,-1255
822,3382,-7938,797,-1143,-320,233
823,-3143,7384,-7956,802,1035,341
824,7335,-6852,-7879,-1451,-833,-1828
825,7273,6042,-799,-1750,868,-1769
826,2968,-3789,-4847,1466,785,759
827,7951,-1178,617,-562,-670,-316
828,-6600,6781,-6418,41,-336,268
829,4762,-4180,-7589,-1298,-1076,-1244
830,3226,-1761,1791,88,441,-1564
831,7056,1262,1001,-451,12,1422
832,5424,1391,4829,-1494,-422,1460
833,-3566,6657,5146,1614,1173,1941
834,2484,1924,-7846,124,786,-551
835,-2946,-4311,-2234,1695,953,1122
836,1086,3798,-3752,-621,-871,-1591
837,3987,-5732,3488,-1243,-281,625
838,-1313,3165,-2491,-849,1340,1229
839,-3970,6956,-5545,753,-1894,158
840,2624,-576,-3656,-488,-628,577
841,-7351,-3093,-4703,1222,-1480,1863
842,5933,-25,2543,161,1516,-1004
843,983,1704,-657,230,-240,-855
844,2255,-5503,-2943,275,-1574,1970
845,-4842,-3042,-514,-711,-526,1067
846,7936,2849,-1850,-1734,1906,519
847,2879,968,-310,-184,337,-1705
848,5623,5503,-4663,-59,-258,489
849,5355,-4969,-2853,-347,-673,-516
850,-1494,-3455,-20,357,-1434,737
851,3503,5129,-4031,-606,1619,-1605
852,2109,6527,-1997,666,638,-934
853,7505,-205,-791,-283,691,1017
854,377,-2248,2575,202,1271,265
855,-3601,-7637,2640,-398,-910,-1643
856,7309,3977,5636,-347,-1458,-1261
857,2103,-7179,-2242,-342,-733,-213
858,-7008,-2620,7581,-1414,1330,-1587
859,-1272,-6965,-4732,-1863,1579,807
860,1250,-7300,4331,917,-1508,903
861,1125,2499,-3715,1460,-358,-1236
862,-5720,3340,-6453,-1069,-1185,-186
863,938,-973,-4330,-756,-662,-190
864,-2586,-1315,2799,-199,871,-630
865,-274,1051,2001,308,-748,717
866,1277,-3467,3555,-1112,-625,-1697
867,-5331,-1725,-5715,-632,-1554,1221
868,-3223,-5406,7853,-1842,-1517,1702
869,4312,-9,-1782,1954,837,-1826
870,-7719,-1662,3073,255,-1651,236
871,-1600,-531,4054,-1915,-1505,969
872,586,2608,6280,1597,-575,-202
873,-6140,1443,2437,-1508,-943,1060
874,-7388,-1007,-6924,-260,-504,768
875,2772,2669,-2489,-1634,-231,-610
876,-3553,-5407,-5261,-1342,-413,-445
877,-2893,-4083,6088,-1342,-390,-1928
878,1173,-5203,1612,-641,49,805
879,-6514,7339,-985,-804,24,610
880,-3022,5191,-7989,-216,-1823,-1095
881,-1420,-4119,-6957,-1038,1123,461
882,-2011,125,6675,1469,1372,-927
883,4734,5459,-4217,1522,1080,1632
884,-7494,-1085,5087,1864,-809,-228
885,-5991,-6127,-3540,591,996,-703
886,-7614,4095,-2128,-1571,234,1111
887,906,5961,-7778,350,487,1364
888,-179,3675,6218,-970,-1686,893
889,-7340,1554,-5775,-519,-1594,-1305
890,6970,-442,7962,-526,-879,574
891,4845,-1168,-3208,1777,408,-1657
892,-4634,6188,218,624,-1219,-1989
893,-2800,1655,5469,1924,1150,890
894,5653,-3455,-7752,-888,218,-286
895,7878,-1289,-588,1626,-1468,-1738
896,5035,-2544,-884,633,-1591,-949
897,3030,5702,-2852,-1023,308,1044
898,4979,-3784,1905,-962,-1739,1787
899,1130,-2700,5391,-1633,543,-829
900,-4304,717,1781,1343,886,436
901,-6105,4830,5917,-1520,430,1926
902,-4189,-6836,-7880,704,1571,686
903,-7315,-7898,-3080,-1772,-922,1526
904,-1575,-5975,-5116,1775,194,927
905,-7220,7956,-3918,1699,240,-1746
906,-2089,334,1477,1144,1311,107
907,-5623,-3035,-4972,-846,-688,-1150
908,47,-4198,-3580,1354,-1329,341
909,-2617,-7234,-3826,-1000,-1115,1336
910,-1595,3664,7738,825,-1793,-934
911,-1267,1522,7900,1176,225,-1570
912,-304,-1651,382,-1712,1329,-1515
913,3835,-4555,-3628,1590,1346,1893
914,5274,7472,6628,-105,-337,-1925
915,-4527,1506,-7477,35,-14,1977
916,3792,7873,7244,-1489,1198,-660
917,-450,-3569,1321,616,1652,1011
918,3535,2667,2489,1570,-475,-881
919,-2967,1227,762,-1409,261,1411
920,-1937,-199,6035,-1362,1878,3
921,-2648,-5839,4042,63,650,1102
922,2325,2972,-5641,70,-1200,1551
923,2963,6352,-4802,-304,638,1346
924,1716,6422,-5073,1743,973,1213
925,211,691,-2283,1365,1788,463
926,1821,-1476,4007,1140,872,-631
927,4945,6537,-3363,1039,-1833,769
928,4220,681,4266,1339,-408,-1574
929,73,-2204,-4629,1656,-72,293
930,1271,-6333,3485,191,828,-1634
931,6768,-4412,7646,-1086,-1347,1524
932,2910,-3527,-7957,-1647,110,-665
933,-5127,-3050,2712,-119,-1915,-633
934,5973,7029,-5369,1676,-1576,1508
935,-3047,4630,4830,1610,-1407,657
936,-2551,-6210,3788,1079,-1322,1061
937,-6916,-7875,7767,1758,-368,1159
938,383,-3636,-2893,-965,1711,430
939,-1810,1347,-294,-1826,533,-183
940,1899,-5339,1338,512,-1630,-1666
941,2287,-7473,-2133,-96,1773,-877
942,-3140,6803,-3417,1270,-85,1988
943,6650,-797,5917,-958,540,-1061
944,-7693,2205,5267,-233,-278,581
945,-7138,-5781,-4559,-1619,637,-918
946,447,-1982,-2904,234,-1501,976
947,-7243,-4976,-4164,-1597,1134,759
948,3482,-3660,-5821,102,-1426,-1386
949,-7735,-6643,420,1265,-1960,1349
950,1490,7748,6724,788,174,-704
951,5696,5374,-1093,-523,-62,-92
952,-1017,6602,5025,644,-168,826
953,2076,-6270,3191,1955,795,915
954,-1971,-5461,3009,-92,268,408
955,7536,-4857,-3956,663,-726,1493
956,7499,-7431,1821,653,-1948,-1409
957,3645,6620,-5560,-1213,1865,-943
958,8,-1647,-3266,211,686,190
959,-969,3816,6975,-1237,-1903,1895
960,-246,7499,2801,-904,-530,167
961,3864,3519,-5781,737,828,330
962,-7707,7470,-2818,1657,-1462,528
963,-7875,3510,4244,-1777,-1253,842
964,3658,2615,6841,-362,155,1437
965,2967,1966,7339,-1547,1801,215
966,91,7710,-4406,-1277,-372,-693
967,-7540,-5376,-6468,-18,-200,1026
968,-7929,5487,-4664,1699,1265,914
969,-5756,2918,-3405,1452,-1482,1456
970,2005,3123,-4307,-280,1605,-1991
971,-6616,326,6590,1947,1237,1346
972,-3363,1767,-6838,-1411,1615,-1857
973,-2341,-4679,1623,210,-1287,-1843
974,2975,5023,-7243,-1464,1621,-1618
975,-1410,1388,-2210,325,757,1385
976,-1097,-1527,1892,-901,1961,-652
977,-7715,4397,2151,-1694,-372,-1772
978,-5586,-177,3786,112,-196,-419
979,6494,-7860,-1950,-1442,1461,1803
980,-2147,7867,-7747,273,1536,1461
981,2870,925,-3064,1113,-323,1092
982,-7891,-5490,7257,376,1647,1011
983,-725,-1037,5997,1135,1507,-942
984,3740,-7795,3433,-347,925,640
985,-5437,2181,7266,-1105,460,1175
986,4442,-7952,7863,1285,1110,1601
987,1248,3594,6895,-1239,636,1737
988,-634,3807,1167,-627,-1816,-1697
989,7461,-1408,2766,1159,1136,544
990,-6771,-515,-4956,-1624,233,-1998
991,6927,-4960,-4930,1076,-964,1526
992,2131,6341,7997,-1557,757,-199
993,-3002,-7605,358,-1534,-656,-1741
994,2669,4313,2549,-355,-1990,1160
995,-6341,1239,-5000,1982,1713,1288
996,-7128,1986,-4031,842,-1935,-1153
997,-502,3325,-3913,-457,1937,-1976
998,-183,-614,1730,247,60,-28
999,-1188,3469,7919,-1957,-1526,-1631
1000,-7262,-3742,3801,1981,567,-1163
1001,-5197,-2192,5439,-1947,-1500,-1500
1002,-2502,-6605,6413,-741,-954,-367
1003,37,-5395,2576,-1318,1705,808
1004,-3984,-5411,7020,316,1268,-1934
1005,4468,-4488,-1695,-1528,-84,1990
1006,-7048,-606,5871,-1174,697,348
1007,210,1911,-576,660,-448,-398
1008,-6148,-4177,-7480,1064,-1667,-1681
1009,-2404,-5365,5260,1907,1827,1176
1010,3100,-7130,5244,-375,1770,-1056
1011,3699,2733,6965,-350,1054,1948
1012,-4229,-2048,-2726,845,1881,216
1013,4535,-5207,-4175,-1121,304,452
1014,418,-2847,-6007,-618,473,-1646
1015,-2833,-870,1991,-1816,-233,-1593
1016,-7224,5215,6782,-362,1329,1309
1017,-2765,-6115,-2147,-650,1535,1773
1018,5388,-2037,-6194,886,-1352,977
1019,-928,-1926,-5833,-751,-1629,647
1020,-5266,6921,5378,-426,1433,-1110
1021,524,-3749,6103,-377,908,-937
1022,90,-1585,4095,-1938,-879,1824
1023,7705,1412,-1518,1511,-834,1459
1024,-7845,-4567,226,-940,-1119,1541
1025,4038,-319,-6687,-519,-275,-1553
1026,2312,-7316,2296,1674,-1947,1659
1027,-6686,4819,3286,-1526,1252,-1836
1028,987,-7573,2893,935,-1484,-1922
1029,4644,-4617,4089,1883,-737,-1790
1030,-1245,-2922,-5423,-985,1525,-1508
1031,1975,1740,5264,1176,-211,-469
1032,-7563,6359,6269,-237,1796,27
1033,556,-2667,5575,-398,1217,-270
1034,-4038,-1939,5087,-919,700,1098
1035,-4104,-7558,923,1639,-953,744
1036,-4661,693,-4949,-706,859,425
1037,2454,937,7500,630,1342,-304
1038,6830,4464,3051,920,1973,-108
1039,4414,7058,3049,-1156,1609,470
1040,-6022,392,385,-1883,1554,-1113
1041,3566,4888,6558,1825,1753,916
1042,1319,550,1723,-1146,-302,363
1043,-5656,1747,-3178,-1659,-1274,-381
1044,-2640,-6034,1880,1974,1136,-112
1045,4316,-7026,-2648,322,1405,-45
1046,-1939,3842,6225,-1620,-784,1032
1047,-6285,7544,-7647,-424,-223,612
1048,4757,3697,-5220,-265,-1293,1781
1049,6133,1318,3448,138,-1256,764
1050,-4541,5612,3846,-153,168,1452
1051,7038,6675,-2996,-639,-1180,1362
1052,-4454,7196,7310,-748,953,1165
1053,738,1036,2016,1000,-1170,1914
1054,6029,-7500,618,-913,-246,-909
1055,-1670,3683,-6652,1831,1262,-1632
1056,2974,-953,4462,1179,-1112,1059
1057,219,7136,-2074,1971,1987,1894
1058,-6735,-3020,5299,157,-1893,144
1059,-3457,-505,5125,188,-1925,1797
1060,-703,4151,-3056,675,1117,1562
1061,7104,-5298,2207,1033,331,-20
1062,6557,2208,-7796,-1358,877,-1046
1063,-6048,-7746,69,1962,1044,-1833
1064,6548,-920,-3691,954,-453,1309
1065,776,-942,-160,-1462,1728,-1703
1066,6244,-7945,-3772,787,1579,75
1067,-4136,-3917,6137,-1106,-1122,-721
1068,-3194,5198,-6214,241,-1347,-365
1069,-2348,2677,7310,111,1580,-1646
1070,-5760,-5740,2267,1160,87,1243
1071,-3212,-7100,6190,-564,-218,-187
1072,1065,-3004,-6372,-874,-1457,-946
1073,-6809,-5044,-5814,-322,901,-99
1074,-5855,-5753,619,325,1151,1762
1075,-5318,-6268,6079,1943,740,-1354
1076,1634,2916,7774,1135,1368,-1513
1077,-1143,-6065,-1055,-1864,1495,-1414
1078,-5289,4974,-1268,325,-1844,-1595
1079,-5795,-5,-3970,-122,42,-1958
1080,-7959,-1160,-1947,-904,790,1503
1081,-3332,5577,7044,-844,677,411
1082,-3766,-5513,4946,-1145,-168,483
1083,-7736,-1429,7238,-157,-1853,-1717
1084,-3852,3877,3117,-753,1664,966
1085,-2764,3679,-4427,-1678,1327,1097
1086,-5141,3593,-4379,101,1333,-821
1087,6392,-2350,-5772,268,-314,-1746
1088,5741,7314,5204,-80,-20,590
1089,-7822,-3923,4752,-1668,1324,565
1090,6931,5017,2830,322,-171,-460
1091,-4669,-4124,-5691,-1922,598,504
1092,2186,-4296,-475,1121,-512,-862
1093,939,3567,-3407,1940,383,1522
1094,4040,-7731,-3420,-1281,-430,373
1095,3385,-6789,-1281,-1684,1878,-725
1096,-4559,6891,857,1187,1599,-1384
1097,-953,-6044,-6124,424,-1157,1777
1098,995,-1824,-2974,619,-216,-1667
1099,4612,2276,-4103,1109,1075,-1205
1100,5998,1112,-6091,1978,-304,1291
1101,-3181,-1002,1289,-238,63,-343
1102,-7311,-2389,-5279,1324,629,821
1103,-6545,4897,1538,-1467,-8,-1497
1104,-7012,5632,1949,1651,-359,-1281
1105,1407,-4444,3906,-975,1879,-275
1106,-7625,4175,4881,1631,-1754,-1803
1107,1311,-5724,-4161,-1121,809,-1358
1108,4484,-2060,4016,-64,1987,-510
1109,-3783,-4943,-3731,-1777,-1346,-1437
1110,3485,7569,-396,287,-1220,646
1111,-3040,3895,-7029,-323,1726,-4
1112,-3549,-1999,3729,-1315,-756,59
1113,2898,4450,-7840,-116,1693,1385
1114,2471,-1871,-4447,-142,1106,1004
1115,-5131,297,-984,453,-1893,1598
1116,7032,7887,-659,-1505,-458,-160
1117,-5948,2989,2802,-1761,433,1137
1118,-4341,6450,3686,1854,-201,13
1119,-1065,2950,4401,1699,1097,-32
1120,351,-4169,-4719,-1921,-1580,-1444
1121,-2843,4773,-7993,256,971,632
1122,4546,-2046,877,-187,-1667,1262
1123,-2409,-1160,-3492,-1432,-1394,-1094
1124,7257,-5499,-6784,849,-1989,1550
1125,4247,-4431,3932,688,-1648,-1085
1126,-1168,901,-7256,-1038,413,-618
1127,5752,2022,3610,-365,480,354
1128,-7740,-2875,-5108,1967,496,-1222
1129,5890,1318,-2332,488,-1405,1176
1130,2777,7035,6968,-1174,-1325,1702
1131,-7448,-3109,-5528,317,-15,1189
1132,1118,2746,-7494,-1361,1887,1420
1133,-2683,147,6775,-1164,766,467
1134,-5598,3649,5721,-1953,239,583
1135,-882,3750,2753,-978,685,-480
1136,2558,2207,-3312,390,-646,-293
1137,1901,7477,6104,-28,-284,1373
1138,-6130,7958,1670,-1584,-646,-1707
1139,348,-5398,2671,257,-1559,670
1140,5333,-1850,-3719,-730,-1659,1485
1141,221,1743,-7575,-415,-1082,-666
1142,6688,6057,-6753,-1916,279,-1183
1143,5422,-1493,7200,-749,1723,-1827
1144,-5384,4232,3372,-612,1465,-1755
1145,3837,-1890,3396,-1815,1323,-1741
1146,4224,2191,3913,-1782,-1421,-1086
1147,-6388,2922,-6014,1688,330,296
1148,-1586,-7241,-1798,1915,-658,-1677
1149,4039,6550,-6896,-947,-978,1918
1150,115,3824,7681,431,1214,-18
1151,5107,-3811,-3713,699,1556,-573
1152,4490,1824,-498,1824,-683,758
1153,2919,2754,-3101,554,-848,86
1154,6173,158,-4816,746,498,741
1155,378,-4139,-3327,1422,1708,1987
1156,1123,-6,-5653,1604,1720,-1429
1157,-6447,4308,-3964,1145,674,142
1158,-7185,177,2496,-1304,-59,1745
1159,675,2254,7287,1168,-186,856
1160,-7855,639,-5522,-520,-1742,1736
1161,4724,4937,-1167,-741,-593,-468
1162,-933,-6031,2974,-1389,-1383,-547
1163,7390,1333,7061,1476,-1457,-198
1164,38,-7056,-479,828,-1967,-1928
1165,4801,6761,4932,713,-970,-960
1166,-600,-3279,-1683,-1082,1953,1
1167,-3153,50,7983,-764,473,-1840
1168,6298,-5604,-1487,-1018,-992,1483
1169,-4024,-1680,-1163,-208,-845,-1487
1170,4849,-1644,-6091,-1906,1190,-973
1171,-4953,6024,-6240,202,459,-1457
1172,4006,658,-727,1996,824,6
1173,-2421,-6344,-937,453,-1311,-399
1174,1302,-544,3040,-1778,11,-1560
1175,3412,-5356,6088,-1421,1866,1992
1176,3248,-1167,-2384,-1680,-1024,-1791
1177,7854,5339,-2770,1312,778,1772
1178,6152,-4342,-1267,-126,-236,1004
1179,-4826,-5431,-3622,-460,1955,-1795
1180,-5982,-297,283,-1836,1726,-1913
1181,-7874,-107,-3024,-1457,-499,377
1182,-6484,-7286,7823,345,1752,-1595
1183,-4949,5408,6422,-201,1741,-1277
1184,5649,-1593,6476,977,-1914,1757
1185,-1272,271,-3870,809,-1310,231
1186,-7199,7565,-7008,-1758,108,-1266
1187,4785,-2524,5215,-777,88,-1164
1188,5461,-4542,-6125,61,1165,1285
1189,5170,-5840,-4642,250,1680,-1429
1190,4524,-4099,3598,-1192,-18,1794
1191,-434,4950,-12,-106,-1418,-1479
1192,-7473,1426,1210,1461,1313,-1861
1193,263,2780,-3785,1987,1884,-1493
1194,2338,2418,4816,-4,806,-150
1195,-1042,-3128,-1081,-417,1385,1925
1196,-3105,-4613,-5771,-1919,-1341,1073
1197,4298,-6215,3697,-1357,280,1198
1198,3899,3980,274,434,-3,-44
1199,7009,3833,-6878,472,715,-847
1200,-5427,-2420,-5762,-1572,572,-1386
1201,-851,3778,1292,-279,1832,1584
1202,-6278,-2899,-1064,591,444,1544
1203,-7533,-7489,4734,-39,-1907,746
1204,-4473,-3714,-2905,-1709,-1059,11
1205,4740,6642,3866,1092,1015,1480
1206,446,2877,6034,1068,1492,-1457
1207,6871,-4085,-1520,213,166,734
1208,-5929,5152,-5035,882,-638,401
1209,4177,5911,3538,46,896,1827
1210,-1657,-405,-7857,835,-1283,1750
1211,-3591,655,-2962,-1225,1930,-572
1212,-1681,-536,-2372,-1018,370,-14
1213,-548,-1717,6619,-574,-1190,-527
1214,7071,6610,2013,1158,-1789,-715
1215,-2878,-6254,4466,-1857,1327,-302
1216,3299,344,-4263,97,1297,99
1217,129,-2534,4144,-1683,266,1427
1218,-3361,-3251,-675,-866,-1858,-1413
1219,7999,5919,3338,-329,-1919,1642
1220,-3004,-3682,5007,764,-345,1749
1221,-4728,-5106,-5679,-1449,1079,1787
1222,-2509,3862,-6595,551,-560,1562
1223,6869,7696,-2782,1866,1533,754
1224,122,-4507,-828,423,-1581,874
1225,-6435,-2712,-4029,954,-1381,-1285
1226,-2503,-2106,-1449,156,1328,-1740
1227,3700,1421,7951,-857,1170,874
1228,3494,283,2141,212,465,-1713
1229,-170,5860,-3168,88,-799,453
1230,-3971,-1225,-2493,590,-1817,1579
1231,-3751,-4090,3267,261,20,1528
1232,223,-143,-4883,-1188,172,-1632
1233,6152,-1054,-6587,-1463,1544,346
1234,4777,-4881,-4285,514,1104,1471
1235,4643,-7586,4861,-477,807,1047
1236,-7544,2317,-1170,-1901,-1407,-254
1237,6750,-7401,-3567,-1372,-1106,-1530
1238,-6603,-4413,-2994,-96,-1785,-547
1239,1440,775,-5328,-618,-1507,-865
1240,1303,1104,-5317,-724,-468,1437
1241,3018,-4549,7718,1055,548,-1558
1242,4389,-330,122,-222,-1715,-485
1243,4366,6772,2228,1721,-1180,387
1244,-1080,490,-94,1355,-127,826
1245,1381,-4882,1267,182,-1709,-1904
1246,7330,1748,2513,32,1678,788
1247,166,5196,5819,-1791,224,-1646
1248,7706,-1168,634,-508,1101,1
1249,7921,-5431,-3434,-96,-1929,-1833
1250,-5868,7404,7000,1085,1065,-847
1251,-5472,7999,-2290,1051,1487,-799
1252,1339,6132,-1632,-1449,1942,575
1253,6759,1725,2983,105,-463,-935
1254,573,-5906,-3621,-983,252,262
1255,3613,4378,-1505,-1570,157,-1456
1256,6337,731,-2492,-144,-1653,-27
1257,-362,-6841,432,1878,1151,1974
1258,7806,1259,1084,1511,-709,-477
1259,-3567,2266,-7433,1538,-1762,1825
1260,-3343,2867,4173,862,1215,-666
1261,-202,7715,-1568,-1242,1538,-1349
1262,-364,3674,5814,1882,-131,-417
1263,6121,6354,2521,-1924,359,1865
1264,1464,-3755,-5075,-1626,8,-1059
1265,-4358,-1830,-2071,1589,-1076,-1898
1266,-2633,-5279,-4170,-575,508,1840
1267,6020,1364,-7891,1590,-512,1429
1268,-3733,-4724,-2391,-1010,-1203,-1003
1269,546,-6988,3487,1389,-1313,300
1270,-7310,-2620,-3528,1790,1999,-524
1271,1933,7168,-2278,1271,-785,-1356
1272,-4300,-2818,-7519,61,-537,42
1273,-6755,-2270,5695,807,-82,1781
1274,6193,-583,6731,340,1915,-1069
1275,-6283,-1669,-1309,-715,-1071,537
1276,-1375,3391,1729,-908,1246,1805
1277,-2245,3877,-7814,713,986,1706
1278,-7673,4185,4083,-1930,304,1065
1279,1065,-6225,6308,1103,103,-1531
1280,-4616,-7243,5680,1587,-1795,-440
1281,733,4365,4825,-1152,-506,-260
1282,5550,3408,-628,-674,657,976
1283,5631,5963,-888,242,750,-1443
1284,-308,3266,2454,888,3,1671
1285,478,223,-4830,1866,-1432,-1684
1286,-7128,5289,-5011,-938,1353,-172
1287,5846,3310,-5268,637,-164,-1887
1288,6108,4889,6262,160,-75,766
1289,-6104,-6195,6617,-733,-1721,-564
1290,-2694,5277,1514,303,901,-1716
1291,2163,1929,5077,40,1484,-422
1292,5469,7933,-7130,-249,706,1791
1293,5999,7067,-3649,-911,-876,372
1294,-1919,1502,-6336,1232,1614,-1533
1295,-5273,2181,-755,-30,-911,929
1296,4576,-749,5600,1844,153,858
1297,-2447,37,4569,-612,1503,-126
1298,2954,-5054,-5267,1798,1529,-1116
1299,-2311,-1476,4325,1490,363,-1661
1300,2792,2896,-6696,-259,-1500,-1632
1301,-4160,-450,4944,515,-1832,1574
1302,-6664,-2955,5610,315,1053,1303
1303,7617,3183,4832,1778,755,-987
1304,6032,-3671,4197,1901,-1393,-1706
1305,7670,1626,-5135,1067,-1083,428
1306,561,-7702,-1760,-1906,-1693,325
1307,5767,-2703,-4520,-22,1573,-1403
1308,4379,6190,1613,774,-283,1280
1309,-6599,-7663,-4474,-1888,-1733,-1944
1310,-3580,5390,-6181,-730,-1489,-549
1311,3836,-6897,5917,-537,336,-501
1312,199,4533,5157,49,-57,1431
1313,-4482,-7806,-4452,155,157,612
1314,6201,-6893,1166,1414,-658,-1272
1315,2558,7476,2210,-1880,366,-1032
1316,2610,-3936,-1789,-1782,-1051,626
1317,-2279,-3496,5445,437,1855,-1879
1318,-868,-2758,3245,-339,1845,-549
1319,-165,5932,4165,1428,-948,595
1320,-1928,-6119,6833,-754,33,-268
1321,5519,-2787,-807,-1384,1043,982
1322,-7629,2778,-1047,-1655,-223,962
1323,76,-3836,-225,-529,-26,-216
1324,6672,-3512,3894,-197,762,1058
1325,709,7766,313,430,94,-605
1326,5483,-182,-5572,978,-474,1489
1327,4612,-6973,-2060,848,-521,1923
1328,-1355,-3435,-6244,1021,106,1700
1329,-6561,-6385,-435,1076,-343,832
1330,-5999,6656,-4261,1799,-998,-504
1331,-1063,4356,-4399,1883,-408,-798
1332,-1306,-94,7406,-1159,644,397
1333,-876,6928,3043,-779,-1769,205
1334,-211,-6864,2278,521,1035,-1446
1335,-4352,-949,2472,-1683,-132,1454
1336,-5900,-4488,1487,-1683,-160,-1191
1337,4878,-6935,-589,-841,-503,-1739
1338,3194,2651,-7351,-1067,776,-823
1339,1990,873,-70,1085,1465,-866
1340,-4933,-3502,-196,-823,-95,-974
1341,2441,6266,-478,1046,930,-1220
1342,-3690,-6182,-3638,-289,774,-1097
1343,1290,-5785,6203,93,-305,972
1344,1176,404,-2150,-411,980,-226
1345,3507,2565,4295,805,1433,-919
1346,6077,7917,3569,1452,1959,-1141
1347,-2975,4958,7275,-1472,-956,531
1348,3368,1704,7705,1017,1329,-1464
1349,3384,-2288,-6119,886,-878,679
1350,5200,-4652,5426,1523,-585,-1196
1351,3234,-3998,-6040,420,1269,-1278
1352,-1672,5240,-7645,-1727,-1028,-1676
1353,1941,5569,169,678,1146,-1106
1354,-1709,4272,4666,-274,-1098,1280
1355,-1303,-5345,2956,-1216,438,-1685
1356,-2888,-4417,-306,-363,209,-1779
1357,247,-3761,-7469,-928,571,-236
1358,-3407,6782,5100,-971,-1,585
1359,-3134,-5252,-3142,1463,1607,-681
1360,582,-5646,60,1647,-182,873
1361,-7751,-2020,3139,-1038,-67,-1454
1362,-5885,-662,7403,923,514,718
1363,-7061,-5953,-5707,-1191,-375,269
1364,-3657,3109,7008,728,769,-396
1365,3365,4194,-4405,46,-28,1847
1366,-2136,4084,4448,-1076,760,1365
1367,-4764,-3609,1564,-1268,-1246,543
1368,-1421,2733,-4041,365,491,-408
1369,-7648,6058,1614,-165,1283,-14
1370,-7814,5616,1419,321,-1987,-1131
1371,6799,-291,6779,1289,362,1408
1372,4133,44,-5781,-518,-1425,-871
1373,1257,5284,4620,-459,35,1198
1374,4004,-4456,-322,1408,-1846,489
1375,1509,-1208,917,934,-1838,-1142
1376,-7590,3458,835,-980,-1853,1366
1377,6815,-6837,-308,-1734,1930,1123
1378,1007,5182,6020,471,-1481,-702
1379,-7083,-304,3864,-1782,922,-1115
1380,-329,1146,4411,264,-1397,1396
1381,7634,-5403,5695,1289,631,1444
1382,3919,-6941,6586,-1893,218,1519
1383,3697,-5094,5524,1908,52,-1399
1384,-5657,6395,-4861,-1462,402,313
1385,3775,2994,-1630,-1197,-1335,381
1386,-4929,-6146,2651,884,1551,-1297
1387,-1293,4168,7993,179,1470,-314
1388,-5417,5402,354,-1631,-1478,-1040
1389,7980,6142,-1397,-1145,1623,1314
1390,-6407,935,-7696,-1085,-764,-1608
1391,6702,-7717,4188,1666,-189,1408
1392,-5502,222,6644,-647,1745,-1647
1393,-4217,6462,1823,-1200,-756,547
1394,6026,2480,-72,1861,-465,-1869
1395,5119,5919,5026,1120,-1123,482
1396,-1313,4142,-631,-1282,127,-265
1397,-5621,3498,6384,581,-470,-1323
1398,-6889,7435,-6012,86,-294,1149
1399,-3240,1098,690,551,-564,389
1400,5567,-1884,267,-348,-473,-154
1401,-2505,5850,2677,-154,1449,476
1402,-2306,4986,3739,-1475,1452,767
1403,-6672,-1746,-1637,1880,296,1594
1404,-1736,437,4968,1318,-1123,677
1405,-6442,7921,2950,1742,-1817,-1544
1406,-589,3248,-4540,-1,654,-1702
1407,-768,-6888,6360,-1873,-941,1317
1408,7677,1864,29,-190,1116,-847
1409,-771,7005,-1010,103,-251,725
1410,-1126,17,-5602,143,1419,758
1411,6514,-1320,1403,-590,1374,-1849
1412,-3240,6046,5796,728,1153,1742
1413,9,4220,2543,316,-1777,772
1414,7539,5709,-700,1095,1363,1222
1415,-3042,5470,7083,716,618,1850
1416,3453,-3803,-1966,1213,-1471,748
1417,4213,-5961,-6302,-75,-756,-1350
1418,4343,7909,6371,1787,-1642,-1273
1419,-3966,-5842,6438,250,1927,-13
1420,-5588,-1495,-364,-1735,1530,-759
1421,3507,-3645,4559,299,415,1996
1422,2854,-4559,6598,-1711,-1567,1301
1423,-4828,4305,4242,1348,1952,35
1424,1109,-5492,2014,1746,1089,-681
1425,6740,-5958,-1197,-245,786,1102
1426,-5473,4644,4522,-379,-1246,3
1427,-668,-5635,-6473,1776,218,1073
1428,-1879,2628,-971,70,-171,139
1429,2221,-6993,4357,1425,1404,468
1430,3055,0,3393,-49,652,1876
1431,-7239,7342,5285,-35,-1658,568
1432,-5157,3961,-1197,-21,1249,632
1433,1888,-4022,1276,145,-1555,-1637
1434,2143,-60,1357,1770,1145,1764
1435,-2735,-7763,6464,37,1379,844
1436,4980,25,4199,-815,819,-779
1437,4923,5395,-5985,-308,-1702,215
1438,5759,-5392,174,608,1188,1702
1439,7417,-5140,5036,-1202,-1558,379
1440,-2495,-1628,4647,-1107,851,119
1441,-4960,466,-3422,125,-1324,373
1442,3290,-5443,1924,124,-908,331
1443,-489,4903,1524,-360,1369,-1420
1444,-4897,4226,-4986,-616,-1457,1358
1445,1167,-4029,5464,429,-347,1894
1446,6675,1441,-2451,-1942,-1785,-1320
1447,1013,-5457,-775,-1956,-579,-1015
1448,2424,-3520,3922,87,130,58
1449,-2151,-6621,-1169,-1151,-1486,766
1450,-7217,5145,5694,875,-992,231
1451,-4460,-3908,7477,1162,54,1035
1452,-6426,5909,-2431,1101,-1241,-9
1453,4843,3415,-1111,495,-1807,1104
1454,-5392,-3041,4935,-133,277,422
1455,4028,-656,-5962,723,1451,-1656
1456,-119,1138,-3969,217,-1466,-1532
1457,1018,-6576,4262,809,-437,1462
1458,1623,-5829,-1716,416,1775,-1595
1459,-1852,-7955,-7314,-445,926,-315
1460,-6827,-5119,-1875,1600,-1154,40
1461,5664,-5691,5739,411,-1935,-761
1462,7606,4097,4756,-1150,1647,-833
1463,5854,-2468,7818,-1152,-1211,282
1464,-6078,-7568,-2259,-234,-1399,309
1465,-2501,582,6440,1419,-1337,901
1466,-5175,5998,-7997,651,-791,-31
1467,-3215,2528,-461,1271,384,1484
1468,713,5024,-6804,2,982,1479
1469,-7638,1248,-3209,-767,-1559,918
1470,6705,25,-7141,1110,687,1946
1471,7989,657,3751,-980,6,296
1472,-3695,5708,7240,468,-303,-1627
1473,-5961,3952,6869,888,-117,1564
1474,-2448,-2900,-3708,-392,-784,896
1475,-6099,2953,6829,-1621,1772,337
1476,-4031,-1868,1858,770,1490,1617
1477,-916,-1128,6431,-1866,1627,1457
1478,2036,-2643,-7811,994,99,-1399
1479,1421,7756,574,1617,1766,-1067
1480,-4789,4175,7026,-1769,-1036,886
1481,-361,4894,-937,1699,1688,-1143
1482,-2851,-3366,-2958,-910,-330,-1364
1483,3171,828,3845,-659,-1490,-961
1484,6882,2709,5618,12,12,-1322
1485,4279,2870,-6157,1022,-1258,-1155
1486,-3063,7795,3010,-1971,20,306
1487,560,-7997,-5663,-1517,-1868,1741
1488,2823,-3736,5493,-1418,1474,-538
1489,6026,6380,1074,1815,992,1317
1490,3601,761,4413,226,700,835
1491,-5056,-1632,-6123,-296,1342,1322
1492,6847,-4186,5691,1070,-1717,-681
1493,2879,7298,5579,331,-850,1490
1494,292,7406,3093,-1445,567,-1226
1495,1270,-4483,-7722,-1126,1920,393
1496,-5203,6634,1203,1723,-1798,-1848
1497,-1923,-7959,-1596,-1120,1195,1938
1498,-594,5433,-2994,-636,1915,1854
1499,7633,6302,-510,409,847,49
1500,7010,-4040,7414,1804,1979,-657
1501,-2604,-1615,1007,672,1541,-94
1502,-1500,7340,4530,225,1714,-211
1503,2078,5950,1432,-1212,216,-1196
1504,1295,4280,240,-1845,-86,659
1505,3962,5268,5217,-596,-729,1236
1506,5186,473,7676,1885,608,-36
1507,-7612,569,7085,-1969,-1459,883
1508,-1071,-3443,1234,390,1577,1000
1509,3885,-4652,-5450,-957,1011,1822
1510,2435,4124,4135,1124,148,-1671
1511,115,-2970,2620,592,546,1624
1512,5213,-763,-1815,-1248,1654,234
1513,-767,1956,7865,-1750,26,-1131
1514,-5819,1373,4762,879,1087,-1703
1515,1612,7277,-1573,-1564,-1329,-762
1516,3397,113,4062,-1630,774,304
1517,6828,-1316,-1183,-1615,-1463,-748
1518,7993,-7882,-1847,-1845,1543,1474
1519,-7326,2837,-946,-521,-1437,-1323
1520,-5888,-5226,3100,1935,-491,-432
1521,7058,-6853,3743,-420,-155,1865
1522,4613,2282,-7213,485,1220,-1375
1523,2018,-2143,-5790,1907,-153,-1254
1524,-4833,-4141,-6201,-991,1038,932
1525,-5381,-291,6580,629,-1781,-1978
1526,2536,3305,-3619,-1818,1409,-1244
1527,-5254,4046,4620,323,-313,1573
1528,-7917,-468,-5100,-178,1709,-358
1529,6157,5663,2167,-1641,-1881,-420
1530,3159,-5594,6231,1212,-48,-1345
1531,-2385,1223,-5588,-1720,-1852,1800
1532,-5466,-1792,-91,529,-543,1617
1533,5030,6217,193,-133,343,-255
1534,-1196,-5688,3159,-267,1473,-1702
1535,-2648,-7371,-3756,1374,126,1724
1536,6409,-1820,-1085,1569,1781,-1945
1537,2709,-2374,-7280,1334,-1011,162
1538,1035,2731,4024,-1145,1200,-86
1539,-6212,442,-7252,845,-602,-268
1540,-6366,7372,-3854,-1144,1505,-466
1541,5162,-1567,4235,689,579,475
1542,3616,2680,6564,-1148,-1619,1723
1543,3220,-2028,3248,-90,1161,1668
1544,-3573,-7052,-59,1640,559,1464
1545,3546,4919,4304,1158,-289,-776
1546,6875,5246,-3177,1858,-1269,470
1547,249,3630,-6278,1197,902,-678
1548,660,976,6118,1565,1252,-1865
1549,6205,-2769,-2453,969,-136,1391
1550,-4945,-4747,-6972,-954,163,1607
1551,-6399,546,-293,-1676,-699,1637
1552,-4721,6463,-6952,-828,618,-1188
1553,146,-4983,-4821,1069,1718,-1790
1554,-4863,-888,-1494,-1708,-1404,-1074
1555,-1101,487,-3972,-159,1798,1437
1556,7562,-5037,-3268,1904,916,-1639
1557,473,2145,-3371,-1841,-1875,-741
1558,5977,4482,2215,-531,-1058,1210
1559,-7455,3117,-4278,163,1037,-1179
1560,7278,-842,2857,-624,1890,915
1561,570,-1340,3052,-1136,-468,873
1562,2415,7673,-156,1141,-402,1226
1563,6748,4019,7749,-1560,1155,-702
1564,-2709,-738,903,-936,-1637,1453
1565,3358,1159,-3712,-175,1466,-120
1566,-2449,-3195,-5581,-762,898,-713
1567,406,4251,-6090,-500,585,-1102
1568,6439,486,935,-1283,1904,-261
1569,4810,-6020,-6644,-1023,-1254,-1831
1570,5030,-480,5872,-512,-1306,-266
1571,3609,-2875,-7917,-992,1312,-1927
1572,1523,1167,-2387,1851,484,1612
1573,-7709,-2730,3221,-749,1878,152
1574,-4123,-330,-7204,1190,1926,-1033
1575,-1971,1957,-1601,-1169,38,-180
1576,3938,-1048,-6561,-803,-484,1950
1577,-1836,5226,-5215,-930,-517,-1606
1578,4009,-1527,6833,670,-52,-1203
1579,-4104,24,2611,-1063,6,-1906
1580,4622,-5076,-5413,-671,-1768,1204
1581,-1962,-5582,4501,-1328,-1985,-1876
1582,4108,6109,-5347,1359,1364,615
1583,-2389,7964,6739,-1833,164,-1594
1584,-7450,-3063,-1991,-861,-1782,-1745
1585,-6352,-1487,-6736,1537,-359,-1318
1586,-6593,7373,5126,712,765,-457
1587,6356,-1918,5254,-1142,1403,-912
1588,3496,2986,-7531,-1139,633,363
1589,-5925,-6621,-2147,-1723,509,502
1590,7642,988,7681,124,1403,-1186
1591,-7776,-5807,2690,692,-1934,334
1592,-261,-1889,-2172,-1118,447,-1342
1593,-5149,6859,3314,-300,-25,764
1594,7520,1647,-6701,-887,34,109
1595,-6863,779,-5671,-1082,1543,739
1596,-2022,-5743,1434,1713,-1034,1210
1597,-1184,-553,-2392,859,598,1873
1598,-5037,-209,-5777,-1851,96,1248
1599,-7373,-6863,3529,-539,883,-1081
1600,5224,-4341,-77,-594,169,-858
1601,6857,6566,-1365,1603,1127,1844
1602,-7517,-6231,1727,1841,-1647,1024
1603,2579,-181,4955,218,1500,1150
1604,5401,1966,-2388,-927,-1305,1526
1605,5825,7834,-1175,-33,-1526,-352
1606,-4193,-5240,1615,1464,-1380,-981
1607,4299,-7946,-1381,1031,-1228,638
1608,-3902,6006,5653,-1210,609,-964
1609,2957,-1558,5235,-583,-1353,1238
1610,5543,4115,1483,332,1412,875
1611,-2455,-2966,1541,1341,961,-151
1612,-5893,-2116,-3052,-191,-1512,1906
1613,2387,7409,-3570,-579,-1164,-324
1614,-6040,-5689,4415,-97,434,-1252
1615,-1003,5626,-1248,1859,446,-1203
1616,2184,6279,-4034,-1311,157,-618
1617,7350,-1084,1657,-71,1955,1053
1618,-1999,5677,7623,-1970,-1173,-284
1619,1456,1027,-634,162,-1741,1806
1620,-7404,6735,-3128,910,1284,1512
1621,3895,-3610,-160,-285,1472,-851
1622,3384,-7974,-6970,-1244,1682,988
1623,-7715,1175,2870,-1458,903,1785
1624,6311,5385,2144,-1470,-328,1051
1625,2631,-1756,-838,1882,136,-480
1626,4868,-5349,7866,-1731,-97,300
1627,-115,-2402,2037,-548,-770,278
1628,-5039,-5592,2688,-1186,-79,610
1629,6171,-6497,-5670,622,122,1709
1630,7380,4619,-2911,-1259,1505,-148
1631,1298,-2148,5734,777,826,1734
1632,6307,87,7829,-426,-1701,-1085
1633,-5524,-847,2907,972,-235,1059
1634,6075,3637,-3965,-169,-940,514
1635,1152,-2252,-5468,-666,269,-1462
1636,-4158,-1160,-5206,-367,-936,-1220
1637,2304,5370,6076,1313,-1196,-272
1638,-1092,-4887,2789,-1805,-116,-585
1639,102,-6163,5898,-474,-1898,669
1640,7747,-5776,2637,-1066,1425,1308
1641,3458,-6072,3254,1049,139,876
1642,7217,7885,5694,1237,919,197
1643,3295,-5470,-7354,1360,1273,-1954
1644,-6666,3378,3988,724,885,1597
1645,2348,1320,-784,1546,944,-291
1646,-6827,4241,4604,1973,1438,-172
1647,5692,5462,-759,1555,811,-349
1648,1725,5004,7305,-851,-341,-1885
1649,-2703,6258,1180,59,-889,366
1650,-6434,-4807,-7003,1972,828,-108
1651,-6065,-5639,6858,1970,-659,1504
1652,-3000,1539,970,-945,-869,-812
1653,776,3675,-7855,-1844,-1709,463
1654,-2432,14,-7828,-1717,1297,1144
1655,5471,-3706,-3826,1556,-153,-357
1656,7848,-4680,-1164,975,-1257,1627
1657,-707,-4307,6381,-40,456,1698
1658,-919,6699,-1318,703,-1307,1468
1659,6011,7133,6588,734,-475,562
1660,-4497,5931,658,722,-1607,-485
1661,1367,2028,-3922,-794,468,-1943
1662,2110,-1206,5094,1964,866,984
1663,-6618,-3149,-2872,584,-1358,897
1664,5144,6682,-5825,-1567,1122,-746
1665,-1941,3182,7840,404,-1350,-187
1666,-5620,-5129,6124,-838,568,-378
1667,1198,2881,-3399,300,1797,947
1668,6833,-3099,-179,825,-262,-1144
1669,2576,-7998,-5856,-56,-167,-1575
1670,399,-7713,4427,86,706,1856
1671,1483,-665,-4,1760,496,-1145
1672,2323,-4396,29,-1501,1681,-1269
1673,7977,-3336,7852,1687,-867,1653
1674,-6961,1479,3254,111,-947,-636
1675,-2069,5284,3465,-1348,686,-1348
1676,4521,7884,-3574,1780,1937,1073
1677,3484,-7041,-4231,259,-1165,311
1678,292,-4574,1807,545,-1131,681
1679,6030,6633,3459,568,1159,-851
1680,1633,-3854,4638,1760,-1900,-848
1681,1222,-5682,6319,1847,348,-1129
1682,-2316,-3317,2764,1642,-730,238
1683,-6170,804,68,-490,1398,403
1684,6908,-970,2416,829,-51,1589
1685,-4583,2051,1468,332,1440,1980
1686,6866,-601,-7487,1818,1325,-237
1687,-6234,59,7331,727,1392,1071
1688,-5600,-5473,-1799,-1597,1129,-1389
1689,4900,-2578,2341,-612,-1283,1184
1690,1691,-2115,7426,1858,475,181
1691,2227,-3990,-164,-1428,574,792
1692,4115,-2703,7419,925,200,1048
1693,3393,6830,-5386,-1198,1021,-607
1694,1933,2541,-3950,-1960,-278,-1332
1695,1385,7954,5446,-1214,-724,1778
1696,-3798,3546,7248,-484,-1567,1388
1697,-755,-6007,-3459,315,-1658,-70
1698,2816,-4524,-1055,-253,1792,-1012
1699,3524,2568,5578,-79,787,-1300
1700,3278,5093,-4517,-1788,1688,1573
1701,-2513,914,-7055,1741,-968,592
1702,3132,2041,-2173,68,-639,-490
1703,-1222,1255,-6285,1977,1696,1578
1704,2651,-2092,-848,859,-1435,-331
1705,-1806,16,-7349,-1019,-1700,-1870
1706,852,-5024,2378,810,-1716,599
1707,-6416,7956,-4593,-324,1760,-977
1708,-1734,-838,6543,-166,-1332,-1940
1709,1473,3278,309,-1589,-939,-182
1710,-2912,-7585,-4667,1230,-560,692
1711,-2454,1177,-7292,1458,343,-218
1712,-353,2397,4613,-706,-1349,39
1713,1219,-2543,-2016,495,-1134,1833
1714,-5955,4208,-3131,1827,531,-654
1715,-1821,3666,-2613,1911,-1788,-1743
1716,4314,-4510,-1050,432,83,1640
1717,5471,3351,-6016,1207,1806,4
1718,-1968,4379,1701,1922,-1960,245
1719,5090,5677,6481,419,1961,1267
1720,-6012,-1251,27,615,1719,-238
1721,5144,-4410,4759,-417,-1190,1448
1722,1377,5898,-2712,-1363,327,-728
1723,1061,3084,3620,-1598,890,138
1724,-582,-2336,5531,-1699,1145,-146
1725,-7798,-816,-7138,-1700,1796,201
1726,5492,4906,-4054,-1461,1692,1293
1727,-5242,313,-213,-1823,1006,-492
1728,1233,5269,-1806,-187,1210,1611
1729,7966,-3860,6319,-753,1882,683
1730,-2516,4409,-4559,1259,673,-1907
1731,6465,-5349,1327,1881,1188,-66
1732,813,-5617,906,-601,896,705
1733,-4388,5423,-1596,-1003,-1669,-1002
1734,2193,1668,3696,-1951,-617,444
1735,-2031,7820,2211,-344,1415,1316
1736,-1028,1132,-1820,-1057,774,122
1737,-5984,-6091,-7454,928,998,1348
1738,-266,6863,1294,-646,-1440,416
1739,7312,-776,-3026,-1832,1835,922
1740,7982,-2257,6597,1114,-85,921
1741,7282,-7564,2597,218,-1671,-548
1742,2369,-3399,-1680,-944,1494,-1315
1743,-5545,-3248,-7462,-751,-647,-1106
1744,2285,-2490,7412,55,1600,-455
1745,6557,-6724,-2153,-1642,1246,-1067
1746,4089,4355,-5542,-1311,1129,-612
1747,-2525,-6336,-3303,-463,661,132
1748,2762,-3349,1360,-395,938,-208
1749,-3030,-7662,2688,47,1449,-1821
1750,-7329,2976,-7209,-1347,642,-1391
1751,-2541,539,-2603,825,-1375,-1461
1752,3036,-5450,1986,1746,1584,841
1753,2921,-6004,-7064,-523,649,-602
1754,2831,4341,6204,696,1433,1331
1755,-905,1256,-5042,1426,-1406,-593
1756,-6130,-3835,-2047,-464,1775,364
1757,-1316,4916,4685,-909,-281,111
1758,887,-4324,-6223,-764,-939,1049
1759,-538,4069,-7510,984,-1761,1661
1760,-794,-6806,3292,627,1798,513
1761,-2360,-6116,7442,1308,-702,1980
1762,3268,-842,-7584,1659,1507,-967
1763,987,-1204,6984,-1979,-1160,1841
1764,-349,-7723,4098,1668,-1203,-75
1765,-5912,-3564,6979,-1113,488,-1204
1766,-6426,-3997,-4475,-106,1236,-582
1767,7325,-2776,-3234,1980,-1123,645
1768,6807,-3903,550,230,1433,1522
1769,-3887,-7234,-1271,1408,-1804,-1725
1770,-73,-3616,4454,1040,1563,1214
1771,-6311,3599,2303,286,-644,666
1772,2050,-2747,-1941,1539,-1680,1936
1773,6278,-2457,6547,826,-250,-1422
1774,4544,-4424,-327,1856,-1150,1264
1775,-5528,2370,92,-1649,-1281,1432
1776,5296,2620,5369,-27,1747,-505
1777,5471,1798,1387,-1593,-363,1234
1778,3564,-1342,-7237,9,61,-1916
1779,-2972,-4643,-4552,1602,-112,-559
1780,-5139,169,6803,-1700,1206,-111
1781,-2994,7746,-7903,-464,1383,-8
1782,-2696,-1063,1004,568,-1719,1048
1783,1612,1590,242,-838,-31,1956
1784,-4553,-2582,4300,458,-12,1443
1785,-7873,-4995,1897,629,194,1117
1786,-1730,3565,3022,-767,-428,-252
1787,-195,3963,-1887,530,-1472,-1848
1788,2623,4865,5099,-1954,-702,-1614
1789,-568,-344,2508,1307,1042,-588
1790,-1328,-5844,7417,298,-1525,-1784
1791,-1500,6491,-6990,-493,-1785,1896
1792,-1007,6297,2210,-683,1348,1542
1793,-7387,-2460,5600,610,1629,980
1794,2791,-4117,-5243,499,-1469,1899
1795,2382,-2850,7828,1674,349,-23
1796,610,2056,-6116,-585,-962,1594
1797,-6412,6433,6488,1110,-86,-1541
1798,3909,3549,-608,1351,-1264,665
1799,6194,5243,-2023,-596,1601,-541
1800,608,-5567,5474,-1174,-82,1925
1801,-1129,-6498,6474,-558,1595,-1797
1802,3638,6907,-1321,-550,-698,15
1803,5046,4400,-4207,-758,212,679
1804,-1876,-1431,-4203,-1921,-1624,1836
1805,1484,-6005,7156,1917,-1978,-1253
1806,6123,-6612,-1849,1872,-1250,-1456
1807,6250,7620,975,603,-536,-1913
1808,-2341,-2422,6672,355,-535,-911
1809,6928,1651,-7349,1496,-873,-1368
1810,-5419,-7371,-4601,1750,-93,1283
1811,-1150,3088,6967,552,-1667,-980
1812,5271,0,-4146,-196,129,1280
1813,5540,3975,-5097,1486,534,-3
1814,-6366,7770,-1882,-927,1338,-1330
1815,-2470,-34,-1352,127,900,1067
1816,-5130,2860,-7719,553,-838,-802
1817,-6360,5529,2484,-1905,-1393,1726
1818,-7736,2439,-1550,1704,-1498,1521
1819,3065,7240,-2894,584,-1538,-116
1820,-3400,-5521,-3049,1865,-1890,1423
1821,-2687,4547,3599,35,-1264,1461
1822,5479,6472,4835,-1657,-1181,-693
1823,4829,-4123,4669,1941,953,485
1824,-2863,2839,3848,1050,1927,-1984
1825,-2346,3889,3573,-557,-1074,1941
1826,-6755,-1300,-1510,-335,-1943,746
1827,-6772,2000,-6010,-1311,-539,884
1828,-3994,-3988,-3445,1108,-405,-1531
1829,1386,222,-6793,-598,-228,-1919
1830,5320,1517,-6188,988,-1065,778
1831,-5172,937,-3105,1813,-544,-1654
1832,1422,5078,-4949,1118,-1375,-191
1833,4031,5638,1114,160,1367,-1136
1834,3784,-5232,976,-1661,720,184
1835,2927,-1306,6561,-1332,546,852
1836,804,-3764,1816,1367,-907,-389
1837,-1080,3993,-5862,562,-5,-1844
1838,-7114,3609,2445,-1858,-667,1464
1839,-5667,1045,4691,1425,339,-1764
1840,5999,4386,-5765,1964,-3,-732
1841,1687,-1624,4828,-281,1489,-688
1842,6621,2183,4603,1063,937,556
1843,-1494,-6161,-922,1650,913,287
1844,-2870,-7466,-3569,-1250,-322,157
1845,6815,-7919,-5125,1421,562,-227
1846,4655,-395,2358,701,1396,-1235
1847,6540,3434,-4330,-972,1291,-528
1848,2611,-6186,-7294,1594,399,-628
1849,7627,-2215,-6578,-1999,-504,-1113
1850,-2793,-2715,-5929,715,-1180,-525
1851,-1603,-4803,6339,1491,1092,-976
1852,1031,6404,2869,891,1702,1652
1853,-842,-5469,-1977,-97,-1921,542
1854,-5161,7528,-2811,1830,-1713,-539
1855,-51,2363,-596,-789,1409,1499
1856,3849,3544,-3963,-261,-312,-1289
1857,574,2390,-1699,-574,1013,-1862
1858,-3199,620,-1343,-1276,-816,-1819
1859,-4683,4148,-6482,1503,-87,-1453
1860,7201,-6115,-964,370,-226,-1078
1861,7141,3924,666,429,1217,-611
1862,-1822,-7015,-3326,1739,1897,-1903
1863,2848,-2556,-4453,-560,1145,-116
1864,-6218,-1891,-3260,1412,-1132,1481
1865,4738,-1981,1210,1104,-1983,1937
1866,-3792,-7086,7511,1677,1787,-196
1867,-221,6336,-6056,627,1247,5
1868,5870,3322,-4042,-1869,-1969,243
1869,2301,-1348,6078,-583,-693,1276
1870,-139,-2457,-4139,-1182,-953,-392
1871,4694,5092,1744,-540,-1450,-1806
1872,7794,-7922,4963,-925,1469,-1193
1873,3232,-5295,-444,-1954,1517,1310
1874,-4465,1281,2819,681,67,-1351
1875,-7597,-39,6664,-1290,-269,-871
1876,-5989,-3521,1236,991,-1429,572
1877,-5935,5878,7858,1066,-1471,1409
1878,7886,-4002,918,-343,467,325
1879,-1859,-83,3226,-384,-1327,23
1880,3208,-1303,4683,1216,-372,-1849
1881,-4877,3728,3372,1567,-564,840
1882,-4863,-2216,1160,-1323,-1807,-236
1883,-1651,1194,3106,472,1461,-417
1884,-1111,-7639,-4555,1098,837,995
1885,4721,-4389,-7092,113,-1732,1279
1886,-5168,-4612,-7243,-1587,-1765,835
1887,-6822,1418,3960,-30,1936,-1424
1888,-7261,7868,-3273,707,-1920,-793
1889,6954,2894,1635,1801,198,849
1890,-4520,3221,-4919,1279,-535,151
1891,951,-6063,-31,-1272,-842,1214
1892,-1003,1229,4510,-1061,-1783,1974
1893,-415,-1386,474,-513,1138,1324
1894,6595,-5612,242,-1181,-1211,-193
1895,5942,-5995,-127,1704,-784,1391
1896,-4558,-7291,6043,-963,-1743,720
1897,-7912,-1063,-2027,-92,844,-45
1898,-3784,-4100,4593,-388,839,1433
1899,-3095,-1566,-2592,-31,1785,-670
1900,7540,-6969,-6742,-688,1351,-1631
1901,2347,-2504,7001,1738,-443,1246
1902,-6897,-7352,-6515,761,-370,-960
1903,-2611,-2536,-7788,-1400,-225,-1742
1904,-6082,-2582,4692,-1663,239,-566
1905,-4798,982,-5190,-1996,887,-455
1906,-1530,-2718,-7286,-635,969,1360
1907,573,-3116,-4091,-774,1281,976
1908,937,7521,-4835,-1012,900,-1445
1909,7301,-1980,-6532,-1724,-1423,1875
1910,3378,-673,-5634,377,-550,-1798
1911,-6956,-3473,-352,-1572,-1432,761
1912,6765,2570,-7833,1332,-1895,159
1913,-7520,5982,-1375,690,-789,-848
1914,-4671,-1502,1718,47,1691,240
1915,1241,3496,4144,1985,-716,1144
1916,6327,7202,-3920,737,414,-453
1917,4973,2152,-4044,-1323,-630,1925
1918,-6772,-5445,-3428,831,1577,1322
1919,3660,2503,5437,-462,421,1151
1920,4571,-5563,-2973,-422,1430,-780
1921,-329,3934,-3473,-1120,692,235
1922,4788,4856,3477,1564,-672,-1617
1923,4737,6484,3490,-1605,705,-1465
1924,2831,3525,-7632,1505,1897,-1464
1925,702,6985,1303,1965,-89,-1418
1926,-5719,3233,-3347,-1938,-522,-507
1927,4148,5520,-1711,-1067,1987,30
1928,-5787,-3776,-611,-1202,1824,-1016
1929,-6911,-7130,-5433,602,-675,1588
1930,5349,3913,7272,-1407,1894,-81
1931,-1113,3065,6482,856,654,-962
1932,-6248,-7158,-7453,-590,-1292,-1777
1933,3975,5814,-978,-338,1819,1343
1934,2792,6442,335,1092,451,1773
1935,561,6227,-5797,1183,1795,-728
1936,5535,-4814,3293,-417,-1552,-245
1937,550,-3124,-5353,-1368,1018,-3
1938,-5485,-1901,6527,-662,-163,-1010
1939,651,720,-6966,-13,-1706,201
1940,-7091,1262,-4511,693,-1701,1814
1941,5920,-198,7229,1388,-1694,-323
1942,-596,1617,2475,40,335,205
1943,5539,7196,2913,684,1603,-1921
1944,7948,-6181,5241,-1800,1095,1086
1945,2960,3527,-5778,1955,-1074,820
1946,-6080,2941,7659,-318,1037,-937
1947,1957,7291,3785,1062,-765,1484
1948,6361,5905,-4649,-674,-1154,813
1949,-7523,-1316,2263,-470,-1373,-521
1950,2029,6870,4142,1173,287,-1006
1951,-7054,1233,4680,-835,-1052,-1147
1952,1579,848,131,172,1353,-621
1953,-4151,-7879,2835,-871,-606,1739
1954,3468,5722,8,-455,-532,680
1955,7677,-5676,4914,901,1712,-1436
1956,1875,-1437,-7125,-1614,-83,-844
1957,1253,6372,-6569,816,794,-445
1958,-5024,-3850,-3018,-1819,-1376,1275
1959,574,184,6576,750,-1463,-210
1960,7974,-5112,-7557,492,930,1977
1961,1692,-850,-3360,198,-1544,-1465
1962,-832,4707,-5027,1904,1429,511
1963,-4284,-114,1420,-1283,964,1985
1964,-6128,-6136,-4938,-1028,-1435,637
1965,7089,-4789,6670,683,-517,-776
1966,525,-5792,-4425,-1270,1600,-206
1967,2733,-6703,-1852,-908,348,27
1968,5163,-3558,6429,144,827,54
1969,1117,387,3754,-1114,711,-162
1970,1156,-3105,-6290,1351,-1372,902
1971,-4679,-2272,-1784,1671,795,-236
1972,3383,1145,-7043,308,1448,-57
1973,7712,4049,1776,-1557,1522,1019
1974,2154,-623,-7225,1385,-123,354
1975,-4861,7260,3360,-81,-1015,-582
1976,-7902,-6551,2154,1548,-841,1486
1977,635,6105,7213,-732,913,686
1978,-4463,-6180,-1576,-1499,830,499
1979,-3581,7283,1762,135,1875,-1157
1980,-6959,-5633,-2228,-1662,-555,-1665
1981,-4804,1401,2081,-347,463,-1411
1982,-5545,-5564,6452,760,391,-880
1983,-3726,-3577,-3381,627,1391,-1714
1984,6412,4593,-733,805,-25,1375
1985,-6808,2705,4266,-1207,1722,1333
1986,7305,-3460,4520,-742,-1234,-829
1987,-1924,2290,-4337,518,125,204
1988,-7549,-380,1178,882,-948,1752
1989,6077,4321,5452,443,-1920,-73
1990,6978,-4164,6609,-217,733,-330
1991,-3381,-2163,1206,-1097,796,-418
1992,-7696,-4468,2552,413,-1840,1246
1993,-5689,-3344,5609,-34,-644,853
1994,3539,7977,4032,-1581,1899,-541
1995,2345,4872,7123,1856,-1368,-360
1996,-2749,7143,-7024,-763,-186,1857
1997,1565,-5894,6036,-1889,941,26
1998,7115,7191,4934,1962,-1279,-883
1999,4953,3889,371,273,-1668,-1256
2000,7645,396,-5362,-1067,-1908,172
2001,7148,-468,430,-295,-629,123
2002,6667,-2102,-2599,49,1964,-1102
2003,6894,1116,6627,-1450,-1452,-1600
2004,-6686,4789,6855,-1760,-1446,353
2005,-760,7859,-5132,-1857,-41,-92
2006,4491,204,817,1898,-1895,291
2007,-697,-7087,-2110,-1350,1316,-1990
2008,2854,-4511,2596,1286,1261,988
2009,4128,-3437,-2001,1422,-631,-738
2010,3471,4777,6351,798,-1272,-555
2011,-411,1854,2422,-844,54,-1756
2012,-540,492,-3278,-1632,987,-1032
2013,-4140,-3825,6310,723,-725,-1104
2014,5888,-6473,-951,1599,853,-234
2015,-2059,-4417,4458,1689,-109,1612
2016,4011,-4467,4442,1199,1799,1261
2017,4733,-478,-5766,145,-241,-1181
2018,1029,-5059,-7237,-783,-1614,-1817
2019,-5533,-5257,-6038,98,1078,132
2020,-1971,-171,-6595,132,-493,585
2021,-4111,6661,102,-1958,1949,-874
2022,-2830,3758,-1631,-1182,-929,-1705
2023,7708,6229,-7821,-169,555,-418
2024,7457,165,-6153,-454,1917,1643
2025,1638,-1172,-6674,1884,698,-1105
2026,6812,5882,6698,6,568,703
2027,-5271,4406,7897,-1799,376,-1237
2028,6075,-7098,-829,-755,1766,670
2029,-3963,-6009,-6835,-1570,1503,1146
2030,5368,4441,-5671,-61,-1774,1516
2031,-696,-3823,6384,1679,1774,918
2032,-2032,2906,4353,-1428,-850,186
2033,-245,-3313,-476,-994,-1900,-1024
2034,-37,6295,-4278,1106,-1412,1045
2035,-2265,-4014,-50,521,588,-1760
2036,6175,5931,2620,1699,1497,1517
2037,-2454,-4644,-6390,-1555,1341,-821
2038,5266,4239,-132,-905,-456,1678
2039,5157,4456,593,371,1199,1735
2040,-3359,-3225,2551,1147,122,1600
2041,-5512,3932,-1154,-688,-414,-1511
2042,-6041,-6736,2571,1460,831,-742
2043,-3441,-3427,-1029,-465,949,-262
2044,1526,-1219,-2228,-466,-1467,-1735
2045,-2767,3378,7229,-1742,-1876,-811
2046,7654,-1405,-6111,-470,230,-511
2047,928,-5480,4723,-1574,1245,738
2048,-2763,7438,6941,-1973,-1968,-1951
2049,3133,-3825,-6855,772,-992,-1679
2050,-528,2937,-5212,-350,969,275
2051,6266,3452,-457,811,-1888,-1939
2052,2761,-3516,-5529,-128,1991,-955
2053,3257,772,-7201,453,-724,1095
2054,-3365,-816,-193,-941,1822,1787
2055,7077,558,-4476,-1741,-1888,811
2056,72,-1231,4811,-1004,-790,1727
2057,-1443,-1972,-2197,-1095,1083,-1295
2058,-4586,-6982,-2573,121,899,-1766
2059,3406,-6920,-912,-274,-1191,235
2060,-3292,-2205,-5123,-325,1345,326
2061,-5296,6751,-1613,104,-1284,825
2062,-6182,7001,-6154,225,693,-836
2063,-484,7218,-888,130,1226,-1095
2064,1697,4289,6289,1493,-1042,-1158
2065,-3504,1697,3615,-385,1097,-82
2066,-3391,-4793,5614,-882,-1448,1309
2067,4307,-7717,1022,1593,-173,-22
2068,1013,-3374,5228,-958,1403,-338
2069,-4000,-3715,-753,-686,-924,-645
2070,4704,1286,2371,-1356,-1000,-1971
2071,3879,7802,-166,762,437,-36
2072,-11,-6842,-7006,1945,952,-498
2073,1473,6371,-5495,14,-254,1143
2074,5655,-6728,-5265,1925,343,426
2075,-1017,-4416,-7142,1036,-34,-1473
2076,-3087,-7755,4305,1709,818,-654
2077,6063,5392,6159,-27,-1137,-1008
2078,-220,-6624,6081,1998,-1108,232
2079,-4111,-7265,313,-980,308,-1203
2080,7197,475,-5630,867,456,-1530
2081,-830,-481,7303,-938,-321,-486
2082,4464,-4506,2153,937,720,-213
2083,-1832,4132,-7588,1631,1384,-1709
2084,7352,-6855,-4051,-989,-1996,994
2085,1937,-2432,-2833,-1429,475,-140
2086,-6567,-4134,357,-1995,1637,-531
2087,4439,4024,3351,562,1159,1290
2088,-2647,7045,-5576,1558,-1049,1492
2089,5889,-5567,-811,-542,1601,-1166
2090,2958,3064,6237,435,404,1995
2091,-4418,-2013,-1452,-153,443,-1709
2092,695,7131,-7427,637,-199,-1483
2093,1503,1330,2591,-210,1410,477
2094,6037,-7329,3601,-749,857,1124
2095,422,-3114,7533,1386,1372,73
2096,2526,2142,2087,1354,-474,1771
2097,7583,-1217,-3402,188,-1505,1681
2098,-110,1068,7509,-123,-1239,-316
2099,-616,-4960,-1715,277,-1001,26
2100,-7180,-3128,-7327,-546,1752,939
2101,5317,771,-3507,-1085,86,1924
2102,3914,7476,2776,-1384,1313,427
2103,1738,-4022,3557,1885,517,1039
2104,376,-7523,2885,-1089,-1226,-841
2105,3327,-2944,4366,483,-808,-1552
2106,-1712,-5061,5042,1671,-1315,1917
2107,3102,-3579,-7843,-1595,479,1397
2108,-3376,2577,7912,1700,1936,1759
2109,7661,2124,1140,-33,1180,148
2110,-1857,6482,7962,-1558,-1934,-1237
2111,-6741,3465,1086,1638,1642,-1804
2112,396,363,2110,744,-1682,-1443
2113,1700,1074,2294,-119,562,-690
2114,2032,3103,3417,52,475,1376
2115,-6353,1422,3285,1301,-1093,-1457
2116,6670,4370,-1476,1837,-523,-685
2117,-5457,-1467,-4761,-155,-1271,-31
2118,2565,6365,5575,1260,-1894,-1857
2119,-7828,2264,-6004,1343,956,259
2120,6336,-7176,-1505,39,-1101,398
2121,5955,7503,6821,211,152,1802
2122,7757,6847,-1340,-1055,369,40
2123,1295,6156,2569,616,-1889,-1155
2124,3429,-6361,6269,-406,-1576,-495
2125,-6783,-254,-2108,1365,1628,121
2126,1638,2495,-5056,-1065,1124,-1458
2127,-2834,-5689,-4463,-881,1501,-1427
2128,-335,-1471,-5959,1005,640,1994
2129,3672,7098,7835,148,-1696,-1886
2130,1643,-3335,1176,1216,-220,-532
2131,5478,-7800,-443,1938,-1482,1643
2132,4167,-1229,6277,-1258,925,197
2133,-5871,6069,-2045,756,-425,-581
2134,-1263,553,-1335,-1270,-1082,-1901
2135,-3960,5290,6955,-517,-832,-163
2136,-1150,3271,-1898,1721,729,268
2137,-2097,7451,6798,-453,373,1927
2138,-7822,6369,-2160,-1492,553,-177
2139,-2502,1904,-5492,1567,-1736,-507
2140,-6359,2797,7482,-1014,-1391,-1891
2141,5384,-4986,-619,-892,1753,882
2142,3790,5577,-4397,-686,-1814,576
2143,-5260,-6118,2858,645,280,888
2144,6035,-5606,7413,999,177,-1600
2145,-6751,3474,-4102,-1667,-1537,623
2146,-7868,3819,5797,1950,-64,607
2147,328,1835,6565,-1732,-1410,1864
2148,-7728,6512,6107,1168,1917,-1838
2149,-6885,7996,-7964,622,1902,1005
2150,3156,4377,4579,-1893,-49,-1652
2151,4626,7413,-6219,-1326,-1580,-1124
2152,-1905,6998,7678,554,968,-212
2153,-6897,7506,6667,-409,919,1167
2154,2569,-859,5714,-465,1525,-1540
2155,-5162,0,-7528,-1136,1636,-682
2156,808,1852,7580,397,-432,305
2157,-4564,4306,-1998,1285,1727,-1960
2158,6421,75,6351,-1526,54,-1430
2159,-4018,-4015,-7764,208,1309,232
2160,3757,-6503,-4808,1604,-1860,193
2161,5403,-5247,-1813,-1870,-1819,1010
2162,2103,7329,3461,1218,879,-1468
2163,-1842,-3039,-2165,1504,670,-1802
2164,106,-4260,-3031,-759,-1854,1404
2165,-6569,6035,-1608,109,-1659,-1758
2166,-5287,4061,2583,1949,592,227
2167,550,-3507,-5347,1712,262,1408
2168,-5297,3565,-824,1491,1041,203
2169,-3191,-7036,-1172,215,-516,264
2170,7058,-2238,685,454,-771,1656
2171,-5533,-2182,3527,-291,-653,-1
2172,6675,-1153,747,-241,-1943,-372
2173,-3706,-3251,-5522,591,499,628
2174,-5941,-6500,6336,-1714,768,-821
2175,-6374,-455,3563,-1443,302,-453
2176,-4800,-4521,-6580,766,1449,1986
2177,830,1328,-6031,317,597,-1888
2178,-536,337,-5180,-1612,1998,1753
2179,1692,-4807,2212,1302,-1692,901
2180,-2130,-6177,680,-221,-1674,-1908
2181,-7808,-5161,6728,1238,1745,1143
2182,-7552,3212,913,-1023,1449,-996
2183,-5613,-7738,-6983,-1134,135,1721
2184,1907,-5215,2269,753,-1737,-78
2185,-6996,618,-1806,1081,-706,-813
2186,-1516,-217,-6334,-451,-1088,223
2187,6890,5671,2569,-1220,149,1110
2188,7463,-2262,2512,-720,-624,-1710
2189,5959,-1690,-5357,20,-745,219
2190,-3038,4823,-4479,-1602,-1150,-1302
2191,5681,-5811,5305,-1153,167,-848
2192,6975,7253,2857,1036,-128,787
2193,-226,1317,3802,-1723,1210,1155
2194,7225,-3081,-972,-957,-1371,1732
2195,6481,1705,1109,1810,-199,-1204
2196,-1355,2040,2576,1363,-317,-1684
2197,-2540,-6489,7104,543,119,-1424
2198,-6524,2672,-2663,1223,-1030,1673
2199,-6545,1672,1541,-1252,-216,-1269
2200,352,-4705,5157,72,1732,-978
2201,-6370,-5021,3214,200,1680,1956
2202,-2472,-4367,3897,598,711,-750
2203,5435,3099,-4015,975,-1342,-1909
2204,2959,-5507,2554,1183,276,1141
2205,-7325,-1575,-1279,-1530,-1826,720
2206,2498,1250,-666,1379,-707,1766
2207,1374,-940,3838,-395,-170,-1907
2208,2453,1537,-5643,882,-840,-1868
2209,-1199,-4193,3889,717,-276,1589
2210,-5605,7831,-2621,-261,-1640,1465
2211,-3943,-4571,-4408,-1776,1347,1698
2212,-7373,1955,1916,619,-1004,-1884
2213,3238,-3110,3970,1973,-1920,45
2214,-7562,1610,1587,1246,-693,-1129
2215,3268,-6871,-6239,-995,-1718,-1595
2216,2379,4345,-7857,-656,246,-828
2217,7875,4840,1002,-1358,-141,-1233
2218,2623,-2641,651,-367,1819,-338
2219,-3227,4652,2736,-1629,571,-961
2220,6585,3935,-7680,-89,779,112
2221,-4879,-1621,-4,-139,-1784,-1440
2222,5928,-5186,2169,1797,353,1319
2223,2872,5281,-1041,-974,142,718
2224,-194,2692,-6285,252,-184,-1644
2225,-3497,-5050,-3657,1877,640,-1524
2226,-4474,1624,3730,1327,-138,1978
2227,343,7322,-3694,712,-645,187
2228,-4156,1633,-2845,-628,-1085,1188
2229,-4957,3894,6318,942,-991,-1895
2230,-6079,-402,6391,890,1062,1492
2231,-2994,2093,7348,964,-670,-441
2232,6289,2606,-3299,970,40,-1051
2233,5661,1990,-7198,-1553,1037,949
2234,-2953,5603,-3658,-177,965,-659
2235,-1023,-2751,-6384,482,-743,-1245
2236,-7742,4560,6806,85,-725,-1468
2237,-5166,-4295,5745,710,1577,-154
2238,5200,-114,3958,501,-95,-864
2239,-4583,-2456,7398,-32,1612,1644
2240,1707,3704,2904,-641,-1245,-386
2241,-6282,-2229,-794,-1108,1886,-525
2242,-4753,7137,-3480,1382,649,988
2243,1579,6315,-7885,1696,1874,1951
2244,-295,-2400,-1188,1595,147,-1399
2245,3361,5135,-6020,900,-866,1762
2246,6355,6161,-694,-1968,1718,-417
2247,367,5825,-7751,643,1255,1747
2248,5354,7230,-3061,1903,597,-1274
2249,4589,214,4446,-1455,-1130,-730
2250,-4062,4155,-958,941,1274,-1190
2251,1221,5782,-5555,704,905,-1593
2252,6971,-6268,5672,401,-97,-856
2253,-6244,-7082,7886,1982,1930,1825
2254,-5451,-3586,-2191,318,-1552,603
2255,-4498,-4648,-3566,1258,1698,344
2256,-4691,-2746,-2231,-1263,-1407,-1259
2257,-6503,-3522,-5062,45,-1534,-1113
2258,-4331,-1185,6130,198,-602,-1886
2259,-2488,-7079,6745,1545,-1818,-1396
2260,5556,-6707,3707,1517,-229,-1196
2261,-1512,-4624,-7934,-517,-344,-895
2262,4482,-841,2769,-1439,172,-539
2263,3529,-3770,4084,-1681,924,-408
2264,2207,-4503,849,-375,817,247
2265,-5383,7403,-4903,1949,-642,-1616
2266,3904,3457,-6548,284,-1775,1809
2267,-5159,381,-5293,-749,-1169,1137
2268,5272,-6488,-3369,-1808,-1380,490
2269,2530,-5781,1215,-1007,1528,-1764
2270,471,6967,-6239,-1545,1689,-683
2271,5065,3781,5576,1232,636,-325
2272,5163,-7011,-2916,887,-1720,852
2273,7985,2752,-4603,1208,-828,1097
2274,-1144,4711,-7022,234,768,-1498
2275,-898,-7086,-5112,72,1447,-655
2276,-7599,6651,5205,-1300,1712,1282
2277,4397,-4476,4972,-1359,829,359
2278,-1359,-3544,5064,-1971,-665,-1079
2279,5209,6836,-3633,889,130,770
2280,5926,-3704,1640,35,-1730,-706
2281,856,1487,-4463,1440,-741,1082
2282,-844,2595,4253,-373,-1604,1991
2283,3282,1698,2231,-1019,1081,123
2284,-1879,-4193,1638,1217,-430,271
2285,4869,5173,6552,-1738,1408,-1133
2286,-3684,-601,-3261,-1053,447,-670
2287,139,-4716,-5395,-539,-340,-1626
2288,6219,-3565,2448,526,1150,1153
2289,6570,-2009,5185,1458,721,-1353
2290,5944,-2289,4701,-1922,767,1777
2291,-362,6107,3052,-1523,1851,-526
2292,4083,6659,-7178,995,-185,-657
2293,3077,2324,776,674,201,-917
2294,-2877,3725,3170,721,-450,-1077
2295,3182,-3352,2714,1109,1826,-198
2296,-7349,1156,2184,-738,357,942
2297,161,7615,-7170,74,155,-520
2298,-5238,-7927,-1646,-785,706,1351
2299,3795,7182,3337,1505,172,894
2300,-4683,1823,-1684,-1425,-238,1867
2301,-4941,2741,3329,-867,-341,-812
2302,-5188,-4845,4159,1510,1387,482
2303,-305,7937,-1604,1948,1803,-1256
2304,-772,-6322,-6256,94,830,380
2305,5083,2343,7138,-1131,575,-1558
2306,3697,7870,-327,142,-323,914
2307,-5408,-7193,-5679,-1139,-668,612
2308,1114,624,5372,-1548,-367,-995
2309,5220,-1037,1143,561,-234,-622
2310,-2138,307,-6443,1219,-207,352
2311,-4077,-5373,1279,1923,1410,627
2312,-533,6139,-697,-1326,-44,45
2313,-7113,-2631,1503,-340,470,634
2314,-3310,598,3670,1133,1197,-856
2315,-3374,-1927,4713,-1190,-1629,-407
2316,5394,-65,-3695,189,1855,-1271
2317,6464,7269,4057,-855,466,1474
2318,1939,-2153,4735,-880,784,975
2319,-6234,4027,987,582,1206,-1051
2320,1278,6181,6327,-1888,-1970,-702
2321,-2661,4464,-666,-1714,219,1687
2322,689,-4321,-2569,9,1492,1401
2323,4982,-425,6741,-793,773,272
2324,-1750,-2356,-7166,1375,-1931,-1090
2325,1882,1698,4612,-753,-1273,-992
2326,-4719,1519,7541,647,-1047,1313
2327,1381,-956,-6965,-836,481,-1101
2328,6766,-2656,974,238,451,260
2329,-299,-1600,4335,-703,1402,557
2330,-4151,6160,-2411,248,-1326,825
2331,-933,-376,694,327,1918,904
2332,1006,5529,3196,-1343,1743,-1008
2333,-4200,-2294,-6218,1493,-1331,656
2334,5336,7946,-6981,971,-1472,765
2335,5721,7193,5232,-587,-1883,-1770
2336,6396,-845,5879,347,-1838,310
2337,7250,3401,-4120,-924,-1672,-1358
2338,-5979,-4916,546,116,-1850,-713
2339,4622,-3427,5810,-1439,-557,-719
2340,3296,-7121,-3519,-1030,863,-607
2341,1682,-1022,315,1078,-1216,-729
2342,2789,6839,-2388,1120,-529,1784
2343,-5524,25,-6533,32,746,-157
2344,-2220,-4490,2603,-1457,-1167,-1150
2345,3506,-3986,-5478,-989,887,1020
2346,-1243,6936,-435,-130,-990,255
2347,2303,-6562,1016,-253,-481,37
2348,-4216,7295,-6280,-1888,-1763,878
2349,7869,-2940,-2293,1203,-330,-1874
2350,3384,-1487,6764,-1669,-252,-1071
2351,3396,-3454,3028,-1524,-1955,772
2352,154,4645,4837,799,994,1555
2353,6002,6613,-368,351,-1600,1838
2354,-7359,-1778,6433,-828,-43,-525
2355,-3311,4958,669,866,-270,456
2356,-1450,3754,2270,-442,1569,-1959
2357,1957,-6782,6264,1209,-879,1651
2358,-3937,7322,5408,-351,639,-1774
2359,5748,-6760,-4300,-613,-846,693
2360,6780,3238,-3439,-958,-177,-279
2361,-6932,-5686,-451,1639,-1752,-1006
2362,-2608,-3110,-227,965,285,-1398
2363,-765,769,5639,1112,1495,1816
2364,4046,1474,-356,-1193,-1393,351
2365,-5851,7944,-7658,523,481,-1283
2366,5111,1754,1984,1507,-1624,954
2367,-2047,-5255,7380,-1247,-1126,1352
2368,-3006,-2630,-4076,-755,-1746,785
2369,-7495,796,132,24,417,457
2370,914,-6347,2518,827,424,-1263
2371,-921,-5579,-4823,-1939,-481,1015
2372,120,2110,5647,1543,1465,429
2373,-6992,-6630,236,1693,1626,1062
2374,-1804,-4332,1120,718,135,42
2375,5463,-7686,1200,1434,-134,1695
2376,-7505,2597,4883,-1276,-798,-1884
2377,49,6291,2697,-1372,-1072,-708
2378,7619,4774,503,1601,305,47
2379,2992,683,1292,-1976,1960,-1163
2380,-5994,905,-5088,1585,638,1304
2381,2205,-6794,-662,1506,1282,-919
2382,-3273,2779,-2297,843,-1494,1111
2383,5461,-5588,-3175,1948,-79,913
2384,5456,-3245,2037,249,-1650,184
2385,-2983,304,-133,-734,-15,-698
2386,7355,3896,7429,297,903,-76
2387,4314,-2352,5108,-1854,299,960
2388,-6318,-5165,7603,-1957,1211,838
2389,-2129,1145,1249,-1910,845,393
2390,1194,-4632,-615,-279,-1497,1042
2391,-4051,7647,6855,705,-14,1564
2392,-2361,6553,-7357,844,834,-1901
2393,7570,1614,-3916,-146,-1406,-902
2394,-6437,-7582,-5689,1516,1226,-1200
2395,-6672,4630,-5178,1808,-1759,1264
2396,5626,7626,-6112,579,-738,818
2397,-5481,-68,2960,356,-412,-87
2398,4377,-2206,-6172,921,246,-1904
2399,-1588,5201,-2102,1140,240,1060
2400,-4918,-1027,-771,-6,1416,-1863
2401,-1253,-4509,3856,684,3,-1797
2402,-7795,5858,4376,-726,-864,1144
2403,-1311,5903,-1013,-447,-1679,17
2404,-6679,1486,-6392,303,-1917,11
2405,2145,-974,-1791,-1792,1849,1237
2406,-1501,-2169,2851,-1343,79,1736
2407,-6479,6846,-2757,338,-886,620
2408,7807,4179,-2471,1253,1210,-1725
2409,-6345,2621,-6282,-1497,-419,826
2410,-5622,7157,-7005,-712,-1801,-1311
2411,-1977,-382,4898,-564,-749,-541
2412,2872,-7927,-5556,489,-1586,-1621
2413,2478,-5727,3908,-901,-603,-486
2414,-6247,-7603,-6491,1786,207,-1828
2415,5948,3442,-5705,558,-216,-134
2416,-461,-4090,6959,721,1066,-1664
2417,-2583,2550,5137,-671,-113,480
2418,-5279,6614,-1662,1310,1346,693
2419,1947,2454,879,-710,1495,-1742
2420,-5392,-4910,5084,-1729,477,-82
2421,-2360,223,-79,-1297,611,1024
2422,-3478,-374,5534,882,-786,-1724
2423,-245,-2827,1619,-950,1901,851
2424,5866,-1868,5794,1000,-240,-60
2425,-1028,-7969,-2495,-291,-32,-162
2426,1045,-6022,1526,-705,-529,-1554
2427,-6641,-5933,3356,386,1476,1456
2428,2910,-7849,2647,657,-1171,-172
2429,-1196,565,-3252,-99,1720,-1100
2430,-1432,5687,3098,-815,-1837,-1974
2431,3007,3751,2932,1960,-1261,1984
2432,-4550,-5194,7649,873,-162,1463
2433,6407,4814,-983,662,-1733,-265
2434,-7914,-7171,-585,389,-1373,791
2435,848,4920,-6109,1933,1219,1083
2436,-7065,7818,443,-1559,1757,18
2437,-2851,6964,306,1830,1320,1915
2438,1508,-3029,4561,-1126,1534,-288
2439,-3839,4705,5858,-1118,737,-1587
2440,6232,6478,-3159,-1478,-794,221
2441,-1864,-6060,7269,-1153,1517,-503
2442,-482,-1486,4435,286,1395,-1469
2443,4314,1878,5735,-1050,-393,957
2444,7692,6576,-2384,-934,-648,-1247
2445,688,7160,-4418,682,-354,-381
2446,-5205,-2444,-5235,576,256,-1574
2447,-3131,3806,1945,-1483,-381,-466
2448,-4742,-4212,5076,1425,1933,758
2449,-519,4342,-5211,-615,1364,-543
2450,5996,-6866,7033,1607,1040,1108
2451,4046,-1424,672,-99,166,-1342
2452,-1010,1446,-7541,-1430,144,-131
2453,3952,5,-2304,123,353,-1613
2454,-5033,1895,-4730,1988,1503,-1362
2455,1950,-4774,2771,-124,1771,-1210
2456,2922,4129,-2862,-235,1945,1597
2457,-6452,-6636,-3077,-1529,-465,-1554
2458,-7642,7910,-1886,-1264,-752,-1393
2459,5340,-2783,-3689,-847,-911,-767
2460,462,4331,-7927,-193,-744,1235
2461,-605,2277,2416,-1047,324,-544
2462,413,6185,7999,-1745,1212,1630
2463,1564,-3574,3811,684,1315,1372
2464,-6689,-2986,7699,456,460,195
2465,-3129,112,-2318,-1457,1931,281
2466,-6852,-7171,-6302,1138,281,1213
2467,1602,200,-1421,913,-1731,1414
2468,-1417,-104,3996,215,51,934
2469,7196,2850,1733,1229,-405,-1904
2470,-4235,6570,-5253,430,-374,-1777
2471,-1751,378,4885,-673,-461,1487
2472,4871,-5432,-2041,22,433,-593
2473,-3481,-3426,7245,-549,187,16
2474,6680,-259,3698,753,-761,-574
2475,4771,-6363,1680,1543,-888,1967
2476,-6516,-1881,-285,-1065,-993,-513
2477,3278,2670,-5205,1407,-288,-717
2478,-84,-789,-7825,110,867,150
2479,5719,-7626,6450,1136,-752,286
2480,3586,4227,375,-1092,-986,-786
2481,-4194,-514,-152,770,-1113,-1194
2482,-7176,1201,-6061,-824,-526,1819
2483,-3320,-305,2320,1748,-573,1461
2484,-3817,4899,-2410,698,761,-1816
2485,4470,1348,7677,1872,-608,-1829
2486,5773,-7441,-2551,-653,1446,-1269
2487,1712,-5214,4277,527,1806,1359
2488,-7509,-7029,5952,-237,-1227,-1001
2489,2874,6330,-5257,562,170,-477
2490,6653,-6767,-7167,-1952,-334,-898
2491,75,-1037,2622,778,103,1172
2492,6212,4399,3668,1311,-1269,-1427
2493,-3426,5616,-3021,973,851,1869
2494,4072,3496,6956,-327,-1343,1683
2495,7590,7035,2864,-547,1913,-205
2496,-1022,-7580,-7725,789,987,-1820
2497,1849,3645,1843,-1787,1380,936
2498,1693,2748,388,-1457,-1722,1268
2499,309,-1012,1980,1724,320,547
2500,5539,5677,7786,1400,1978,-729
2501,-4830,-2351,4305,-1857,668,-1639
2502,6379,5641,-7936,-1613,-1623,152
2503,5549,3771,-2155,996,48,267
2504,94,3129,2073,345,-696,-857
2505,7851,3935,1719,129,907,416
2506,4003,7541,-4329,-193,-1064,1780
2507,3320,2041,-1586,1390,753,1948
2508,6906,7903,-3473,-371,185,1931
2509,-3536,3572,5420,-335,-1505,-1720
2510,7570,-6806,-4323,755,1096,1556
2511,462,3498,4708,1795,-334,-117
2512,6021,2468,710,258,-1892,-1232
2513,-5821,6405,2292,311,1913,1456
2514,-5867,-7328,-280,-957,1115,1168
2515,6130,-5578,6244,-1191,-1477,880
2516,1922,-6608,6378,-1599,458,91
2517,226,-1706,6812,531,-1425,-1014
2518,1062,-5521,-1182,-650,96,-1949
2519,-7948,-2363,2979,-1215,1164,522
2520,7055,-5046,-4467,-1720,-346,1410
2521,-3765,3475,-2284,1988,1999,-151
2522,4608,-5402,-3013,-101,1045,958
2523,1085,5821,-5126,-879,1743,-593
2524,-3737,-5885,3659,420,1984,-1364
2525,-6729,-5517,2998,-975,-461,1737
2526,6605,-3980,-223,-1420,-1549,-668
2527,3561,-6898,6242,1072,1257,1632
2528,-3342,-6903,-364,-1441,685,1617
2529,-7788,-4671,-3689,-1030,-10,-232
2530,2867,1779,787,-1861,1224,483
2531,-5120,5313,-5076,-779,-1941,-1941
2532,-6934,4248,3846,18,473,-1441
2533,-4803,-287,-7281,-1089,253,408
2534,7757,-1268,2681,1863,1010,116
2535,-4203,6719,7963,-846,-1209,-990
2536,6797,7723,-6158,-1559,-102,888
2537,766,3722,-2481,-526,-277,102
2538,-2318,-2843,-5643,985,1496,-1061
2539,-889,-4715,1842,962,-30,-165
2540,-2139,-3965,1982,-1122,1613,-1341
2541,6284,-6984,4395,763,1565,-297
2542,2542,245,2236,635,-1449,-1643
2543,-5203,-5114,5983,932,-1463,471
2544,-6596,4203,-5873,-282,1993,-174
2545,396,2877,6674,-992,-1387,1860
2546,6430,7915,-977,-558,-848,894
2547,5102,2001,-718,706,648,1057
2548,2001,-2604,-5228,-1262,1689,-1050
2549,3416,-4698,-2310,17,682,171
2550,-3764,4571,4951,-129,186,1915
2551,2021,1745,-6311,-1094,1990,437
2552,2148,-6459,5322,226,-1931,-382
2553,-609,1324,-6733,-552,-1202,-1446
2554,-5989,-7211,5251,77,71,11
2555,-3082,918,-6148,782,1707,1822
2556,740,-685,-4453,-1595,-1016,1730
2557,-3720,7425,-2453,-274,-970,1737
2558,1776,-6449,7815,1085,1586,1680
2559,7630,-92,-2572,-949,-499,-1109
2560,-5465,-6358,4955,1323,-1682,-1665
2561,1191,3903,5146,1498,262,-1503
2562,-1549,773,3394,1378,-660,1198
2563,-6712,7447,-6572,-280,1633,-1695
2564,6004,7996,1446,1007,7,-1473
2565,-805,3772,-6324,580,1446,1193
2566,-662,-1458,4858,-1393,-1900,1349
2567,654,-3379,-7823,75,-582,-1017
2568,3123,-2051,-4965,1718,-1363,-576
2569,925,2651,-6518,-28,-786,1294
2570,5366,-6567,193,1100,273,-1055
2571,-1299,-6558,-3580,-472,346,1021
2572,-5975,3413,-5001,1724,-730,-681
2573,4999,-6990,2248,-343,1257,-897
2574,690,-4744,-5255,1008,-998,-854
2575,3111,-1422,6452,-528,-676,80
2576,7176,-7458,3286,1882,-1555,-1510
2577,-6486,4794,3938,-1273,40,-1929
2578,7295,6482,2165,911,1054,1642
2579,5202,-3314,-7744,1657,67,-897
2580,1683,-1843,-7838,-1148,1091,307
2581,2282,-7651,-6984,-1003,1991,1850
2582,3651,-1942,-614,-1219,-943,-1419
2583,5704,-235,-927,-1347,-995,1238
2584,-701,-1013,-29,110,936,-1067
2585,-1081,3864,4823,-1064,509,139
2586,1941,-2200,-4606,-1504,-1961,1708
2587,-4680,-358,6637,1563,1587,1063
2588,-4978,-5383,4867,528,1223,-921
2589,-1588,2181,5409,-1757,233,-1983
2590,-7437,7995,7074,-1500,786,-305
2591,4331,6761,-852,-1397,-1745,-79
2592,-2078,-680,-3339,1964,1794,456
2593,7451,-2639,5775,896,274,-1236
2594,-7297,3824,-2010,-1172,915,-1586
2595,7179,4585,3317,-393,-292,1811
2596,-2502,6515,-2872,917,1364,489
2597,-7113,-920,-3959,-1763,-1507,144
2598,-5392,-6991,1764,1342,618,-161
2599,-5518,-4012,-4114,726,1560,-1954
2600,-6785,2306,-5701,1888,-1266,1734
2601,6753,1030,-7737,-347,-345,-327
2602,1470,-1410,1282,1513,236,-1739
2603,-5606,7476,-6748,-1848,-877,1028
2604,-7975,334,1360,-1867,431,-462
2605,-1784,-1052,7176,-1094,244,-1693
2606,-5319,2270,6288,-1286,708,-1394
2607,2811,-1674,-3354,-1684,657,625
2608,1697,7584,5876,-276,470,-1459
2609,796,6435,-15,-118,-603,1911
2610,1941,-5909,-5513,1685,-1130,591
2611,7885,-382,-7947,364,41,-703
2612,-2867,618,1520,-1263,359,-468
2613,7829,7118,-6873,371,898,1746
2614,-1257,6988,-455,1308,1507,-618
2615,2950,-446,-6263,-784,1195,-363
2616,-7250,1343,-6693,617,668,-1833
2617,-6273,-7153,-5008,-298,896,-1846
2618,-6100,-594,-6156,-902,389,1051
2619,-394,-3519,944,-362,48,-1744
2620,7564,4391,-4536,-1666,1492,408
2621,-7715,4555,4348,-811,-85,1330
2622,5424,-7283,-2298,1756,264,-1833
2623,-2933,-372,6096,-345,1888,-1935
2624,-5545,-437,-5375,-73,586,1442
2625,-3763,2885,-6200,-519,875,-793
2626,4854,3571,3188,-202,-1875,-1916
2627,-4616,-368,-5070,970,1029,-516
2628,1959,3037,3988,-141,1486,432
2629,1734,5752,-7206,-148,-1210,1115
2630,2013,1725,3219,1645,1004,1632
2631,-4843,-4940,680,-466,-875,-1674
2632,-4797,-2664,643,745,341,1388
2633,7284,7371,3930,-1883,-1074,-679
2634,-7845,3580,-943,1298,1967,383
2635,-4458,-5972,6953,-1119,-1549,-1969
2636,3467,1038,57,-1190,191,871
2637,-4053,1767,1305,1301,-1902,-733
2638,3084,2875,6243,-209,1769,579
2639,-1922,6313,6104,-936,1916,1949
2640,-824,5284,3516,-1568,-1136,-906
2641,591,7341,-1506,-144,-1087,-496
2642,6690,-4991,-4506,-1490,-1456,-499
2643,298,450,-2587,471,-1215,1802
2644,-7637,6448,4019,-1340,532,-437
2645,-3193,-428,-5964,708,-219,1650
2646,-6761,622,4512,316,1802,577
2647,-1292,-6569,1435,1606,690,-1678
2648,-4240,7043,1785,-1293,-103,-123
2649,4224,-6739,-6376,-1769,1172,602
2650,2103,3017,7373,623,1989,-716
2651,-7464,-2332,-5199,-1174,442,-857
2652,2240,7058,6213,1587,-285,1830
2653,3849,6611,1779,-1612,793,-1349
2654,-6335,7695,-3562,1502,-1707,-1496
2655,-7381,4032,7112,-1529,-1221,-1262
2656,3500,3522,5046,-728,-1767,1345
2657,6100,2806,6799,-495,-1919,-657
2658,-3411,-2088,-5856,-1126,-1032,-1729
2659,-3555,-6748,-6340,1854,-86,-197
2660,4348,-2571,4236,-1719,-292,-548
2661,-744,-2398,-1380,-1606,153,1607
2662,-5905,-6782,5581,-806,-187,-373
2663,-4916,-2665,-7829,-1531,1942,-708
2664,-5679,2377,5459,-1081,-1058,673
2665,5838,3201,-5223,1054,-1477,849
2666,4881,-363,-4451,151,-104,-324
2667,3063,-4321,2712,-321,-227,741
2668,4961,-6997,-5886,-975,1233,1463
2669,-4068,1381,553,1833,233,136
2670,-681,-2482,-3173,-1123,1444,-491
2671,6577,-3338,1458,-133,872,-884
2672,-4643,7608,6728,475,-619,-1996
2673,-4788,-4627,783,1339,-38,461
2674,5735,6440,6683,552,-646,1791
2675,-6612,3286,877,837,244,1681
2676,6017,2532,4063,-538,-1604,-621
2677,2192,2775,-6424,435,993,1364
2678,-688,-1101,1387,955,-713,-1501
2679,3740,-3703,-583,-1861,-1226,-1458
2680,-719,4183,4717,-175,-1952,1501
2681,5734,539,5601,-1603,-262,1272
2682,-7661,1213,6619,441,-1241,-208
2683,-4462,-504,-1740,-675,-1846,1494
2684,-5191,1100,-3093,-1281,-805,1951
2685,-3083,-4907,-1666,-703,313,-297
2686,-7105,-2793,7704,-33,-51,-451
2687,-7600,-6260,7174,773,182,1754
2688,888,-6913,-508,-1534,102,718
2689,862,-7587,-3280,35,-1444,-715
2690,-5559,-368,-5608,1240,-1207,1271
2691,4953,-7641,1621,301,55,-1953
2692,-1627,-5121,-2167,573,-1608,1578
2693,7763,-7752,-4862,-1894,-1471,1038
2694,-7221,-1402,-586,-648,60,-1216
2695,-4484,1216,4105,-1181,1657,-1964
2696,774,4247,-2954,850,-217,-587
2697,-2429,-925,-5279,-1915,-992,807
2698,3775,1974,6094,-1356,939,-748
2699,826,7663,-6,-706,-8,1102
2700,-6533,-260,-3340,292,-1841,1560
2701,-6009,-1036,-2906,619,485,943
2702,7308,952,-5632,-1649,795,-529
2703,5737,5240,-7942,1238,404,465
2704,-7301,1089,-5676,-813,-1920,364
2705,-7904,-1569,-4433,225,1847,154
2706,3753,-6029,4134,1218,1626,-1073
2707,-455,7465,-2554,-573,-302,-320
2708,5928,-1337,4786,1671,-1879,1779
2709,3619,-1745,-128,-628,-1554,62
2710,1123,4191,4335,1270,191,73
2711,2029,-812,5971,-1675,-760,802
2712,4376,-4459,1891,215,1786,13
2713,-1164,-5112,-3477,-1324,211,353
2714,2688,4450,7216,-739,-1409,1582
2715,-408,877,-4983,-692,400,516
2716,885,-315,-3710,74,-502,773
2717,6636,3335,-1354,1974,-1682,-1888
2718,-2522,-679,6077,1610,-300,-1228
2719,6314,-209,7274,-1837,519,-806
2720,-495,-5360,-4847,-705,1051,452
2721,-2533,-5652,7908,1429,1820,-855
2722,6405,-5313,1128,-456,1445,1967
2723,5484,245,3917,-1368,202,1418
2724,7237,-4857,-6957,167,1570,-1712
2725,-981,6922,1765,1868,-455,-1150
2726,1068,-3917,-5119,-288,459,-221
2727,3667,3600,-3545,-503,-1028,-1011
2728,3637,-1403,-6972,-633,1901,-1230
2729,2967,75,-4278,-1847,-1416,1909
2730,3524,-2201,-2108,-1997,1332,1947
2731,-1763,3312,-1227,1579,-1920,233
2732,-2789,7697,4663,1230,-1925,-1411
2733,-4873,-2211,-1153,-667,440,-1804
2734,-78,-1310,3052,-43,-259,959
2735,-2961,-800,-4893,1874,-446,-1523
2736,1514,-1605,1065,-1160,677,-1642
2737,6841,3158,3419,793,-1665,592
2738,-1565,6185,1703,622,348,-226
2739,4671,3775,-7336,40,1734,1800
2740,-7904,762,-5303,1992,1303,-271
2741,-2997,-6581,-1481,-202,1210,1226
2742,-832,-2592,3939,562,-980,-21
2743,-3777,-1728,-2201,-124,505,1945
2744,5226,5928,-6091,1726,1332,127
2745,1160,-2204,4270,-1296,431,-1037
2746,6327,2205,2498,508,996,-1681
2747,-895,-5149,-6511,1860,-228,871
2748,-1744,4210,4924,336,-1957,139
2749,1891,-3000,7392,-1759,-668,540
2750,6541,4256,7386,-957,-797,25
2751,3355,-6412,1197,771,1445,941
2752,-2512,6233,3218,55,-1030,-840
2753,4429,3765,-7535,422,-1499,1145
2754,7211,-4086,-5459,-684,1516,-1573
2755,-5201,2050,1470,1987,75,534
2756,-5336,1840,-4250,-505,-1225,-1518
2757,6744,2847,6081,-1676,-1468,-593
2758,-6013,4449,2713,-80,-1168,-1844
2759,-7923,1381,-1099,185,899,-1194
2760,3804,-6665,7683,1945,887,849
2761,-4776,-902,-6310,749,238,558
2762,-4891,-1447,5888,-113,-709,1889
2763,512,6342,4434,-1955,1637,1694
2764,4048,2001,-6228,-1793,-256,1370
2765,2667,4019,-1357,57,238,-1566
2766,3783,-6517,-1289,425,1488,-311
2767,866,6101,-181,194,1139,536
2768,-7043,2451,4315,-56,1517,-1602
2769,6761,7080,375,251,-395,1849
2770,-1798,3100,308,147,1969,788
2771,1791,-463,7359,1311,-1923,343
2772,-5484,-6369,5011,714,-171,-519
2773,5217,-6358,-686,20,-1580,902
2774,-5086,4100,-1990,-1870,1142,-667
2775,-462,5854,-3494,1410,378,-263
2776,-2463,-4932,-668,-1147,-1053,933
2777,6981,-6579,1824,902,-151,-1270
2778,817,-4793,6703,1796,-366,-427
2779,5021,6066,-4782,-943,-1639,103
2780,-1713,7042,-7374,930,-1430,-1575
2781,2853,2489,2736,-539,1730,-587
2782,-4226,4115,7700,734,1228,1446
2783,-5270,-1129,3518,-426,-369,-724
2784,5500,6287,-7166,-1742,406,-207
2785,5515,-3615,443,-1287,458,-566
2786,-3431,5898,5719,-615,-616,428
2787,-7533,-3905,-6371,604,1066,-389
2788,-1503,5374,974,1399,304,-1179
2789,-7234,-2798,3749,-1907,-1593,-869
2790,-3305,-7013,-5158,-423,725,289
2791,1882,-1804,4826,244,-1072,-274
2792,-2941,-7241,-6083,-1016,-1817,-1281
2793,6927,1073,-6345,686,398,995
2794,-4882,-5055,-2280,-1951,-846,-82
2795,-610,3127,-2393,-1609,-258,-845
2796,-2335,2011,4187,1624,-442,-562
2797,-1178,1332,3782,-911,634,-710
2798,-4040,-6801,-5179,507,-1288,586
2799,6867,-5053,-5312,-248,360,1045
2800,6158,7882,4693,1115,1872,-1475
2801,-4643,-7126,6837,1014,1303,1025
2802,1561,-5169,-4635,-565,-1175,40
2803,-2187,-1279,-1680,-205,874,285
2804,5395,-4951,-624,-889,656,-908
2805,-5988,-1595,158,1499,183,623
2806,5197,3454,-6717,-853,-547,-792
2807,2242,-2208,-6976,-427,711,705
2808,-3762,-7715,-7780,146,-1118,676
2809,-2645,-1700,348,628,1633,-1136
2810,4922,3277,-646,644,-208,-1987
2811,7543,5065,6891,-1148,1903,-1370
2812,-6438,7115,7795,789,-835,-615
2813,-5618,-1132,-1082,-775,1910,-308
2814,6165,-4287,937,391,-522,884
2815,-1600,-5447,-5447,377,803,-740
2816,-5380,1001,-6902,-19,-1241,-1127
2817,3280,2244,5852,-1801,475,2
2818,-2066,-6301,-6192,-1911,-9,1375
2819,-4152,-1315,-7872,-453,-98,-91
2820,-7097,-4366,3686,-718,-731,-1299
2821,-7616,5041,4005,-1200,1219,911
2822,3073,2701,6532,378,1701,1077
2823,-7618,4636,-2290,-159,-490,912
2824,-6101,2770,-4524,-795,-1086,-760
2825,5204,-163,-5446,-620,1332,-1824
2826,4850,7222,-3605,-1117,-1827,640
2827,1825,5917,-1461,1312,1368,1660
2828,-846,6212,4422,1518,-1020,-1614
2829,4819,-899,7059,-1193,736,-1077
2830,546,7423,4159,-1979,-1261,-1187
2831,-3297,-1348,1399,-1874,-243,-387
2832,-1148,4895,-1242,887,-133,855
2833,5999,-147,6006,-719,124,-1603
2834,-7632,-315,1735,-1025,-1691,-1463
2835,93,5167,6508,1799,-221,1562
2836,-6273,5389,2900,-94,1266,-1194
2837,-2962,3048,3571,8,-47,1760
2838,-5536,5242,2091,60,894,1920
2839,7464,-7915,2648,352,-217,1085
2840,-4144,-5013,-3191,773,-150,-1678
2841,-3458,-7717,-2621,-1978,-122,-1918
2842,4904,5691,-875,-1874,-590,-1831
2843,-4084,898,6742,450,1997,75
2844,-508,-4728,4451,773,246,-763
2845,4530,-3480,3853,791,1036,-341
2846,5472,6746,3072,974,66,892
2847,152,2760,3267,1542,-1274,-122
2848,7273,7748,7964,826,-815,-1487
2849,4151,2970,-2426,-1741,1969,120
2850,4819,7107,-1795,1773,273,1127
2851,2769,5784,-2474,785,-456,-1819
2852,-4133,-194,1871,1824,-431,79
2853,-5106,-3367,2202,-661,-930,-1230
2854,-5157,-2828,2172,3,653,-120
2855,242,3969,-7162,1547,195,-1176
2856,6526,3604,5188,-1586,1649,316
2857,-2792,-1413,-101,461,1764,1453
2858,-3422,3614,-553,375,1322,1409
2859,4118,-6233,-2540,-1886,1664,-145
2860,-3868,3486,1127,1387,1801,-960
2861,-4619,-4422,6985,-1877,28,949
2862,5947,7279,-6844,-1527,-113,527
2863,5069,-5988,1488,1973,-19,-132
2864,5358,-3241,3098,-307,1565,1949
2865,-477,4142,1773,-506,-1117,1945
2866,-6442,7408,7467,274,1453,-1317
2867,7871,-2658,5653,-133,1387,-1650
2868,-4529,734,-3649,-1657,1575,1503
2869,-312,1799,-4574,-1146,1804,486
2870,-1445,7310,-1246,-1147,273,-1654
2871,5959,7196,-4321,-1560,473,1160
2872,-4207,3240,2184,840,673,-1623
2873,3091,-2430,3393,48,-1863,1576
2874,5261,-3666,-5384,1878,1588,-182
2875,5181,-6482,-37,1765,-1216,1969
2876,-1484,-383,-1926,-900,-1433,-621
2877,4604,-4271,-3288,238,-1214,395
2878,4870,2404,3445,-1600,-180,-538
2879,-3924,5127,5209,-558,1985,1051
2880,2113,-3754,-2413,524,-1206,-320
2881,-7054,-5287,-4974,664,-1462,-148
2882,-4134,-2403,-2131,897,-1920,-569
2883,-5555,1039,6310,-404,-1664,-82
2884,7012,-1779,-881,-364,-1593,1791
2885,-583,802,-4284,1066,-687,1268
2886,6938,-4030,1577,1496,635,1142
2887,-3924,4193,4392,-516,-921,-1087
2888,-6970,4229,-5966,1046,185,-418
2889,3992,1821,-6031,1007,-316,-35
2890,-6950,-3914,-2274,911,-695,-1839
2891,5935,-3332,7510,1149,-1924,-1023
2892,4152,4536,3876,1500,541,-1924
2893,-4006,-3420,-1369,1748,-753,1039
2894,1695,2373,392,233,-1613,-215
2895,818,2211,5813,-1703,1118,-55
2896,-6709,5223,208,-1618,162,640
2897,-5773,5617,-2207,-890,1048,-88
2898,5687,7888,6820,-1278,1874,502
2899,6742,-1427,-5319,-540,438,-639
2900,1673,5850,6660,1846,-1334,-1043
2901,-4306,-2538,-5523,1749,-1139,-1849
2902,-4933,-1992,-4165,-1794,-572,-1897
2903,-1176,846,-324,29,-591,1245
2904,2767,-700,3991,1577,1724,-289
2905,-3526,367,-3122,458,728,1354
2906,-3084,39,-5078,1404,-1530,949
2907,6956,-1363,6349,-1161,1394,-801
2908,-3261,-6061,5025,-568,-328,-427
2909,-4911,5430,1979,1713,1962,1648
2910,-6406,-7395,148,-399,384,-720
2911,7478,-2094,6476,1624,520,1334
2912,-3083,387,-7887,370,-1706,-1588
2913,-7670,-1402,224,-1820,1972,749
2914,-2807,-2598,1930,-878,-1703,1869
2915,-7930,1106,3403,-1106,1219,-1517
2916,3695,-5117,-5797,-843,-1538,-621
2917,5276,-2692,-239,333,-261,-1962
2918,3862,6587,-1194,986,1765,1628
2919,-2696,-6698,4663,1839,1250,1182
2920,-901,-1138,-1649,-1933,1954,1320
2921,338,-2946,-3548,-1281,1558,1668
2922,2039,-7166,-7071,1610,1267,-1931
2923,6932,4610,4856,-914,1452,1272
2924,-4922,483,3503,-258,-994,343
2925,7029,3797,-3241,1711,21,719
2926,-5143,5388,6235,342,-474,1604
2927,-3280,-7204,-4935,1525,563,-1693
2928,-3192,-4049,-7048,-1150,-359,1243
2929,-4366,-5782,3007,1364,-27,-1504
2930,63,2603,6624,-1866,1049,1760
2931,7928,-326,6592,-1273,-1946,1051
2932,6955,855,3472,-1615,-810,1849
2933,1256,1763,-7102,396,349,-1757
2934,-4314,-7083,7047,1862,-6,751
2935,-5772,-6196,4023,1866,-1855,-2
2936,-3407,5872,612,-1732,-828,-1032
2937,5693,5511,-7116,-495,-1521,-500
2938,-3329,7676,-4771,-9,1581,-1276
2939,997,-4271,5543,700,-1281,-1599
2940,-4460,-2356,-6821,1282,-1072,-249
2941,4471,-6075,-1003,-1514,1242,-711
2942,-1615,-3028,-5611,-1567,934,-1254
2943,3966,3166,6701,24,1353,-1460
2944,-4647,6799,-5234,806,-854,-320
2945,-3490,1066,-5787,-563,-874,77
2946,-3385,700,5523,-618,218,-880
2947,-6253,-6997,-4070,1787,-278,593
2948,-2092,-3341,5988,928,1571,-273
2949,3281,-763,-6781,-443,-820,-805
2950,-5050,6450,5667,619,1272,1075
2951,-342,6094,-2131,8,-977,145
2952,-217,-2567,-3443,819,-1427,1417
2953,-3283,5674,3832,377,-1604,-258
2954,3562,695,-3502,-874,-151,1473
2955,-1167,4140,4067,1918,1531,1750
2956,-4942,6325,802,-645,1372,-612
2957,-5645,-7910,203,-1526,-1339,1328
2958,-1319,-7861,6722,-1168,-328,1622
2959,5724,3079,607,410,318,1667
2960,4127,7654,-3077,1924,1016,685
2961,2371,-1157,5796,-165,1151,-1139
2962,-6292,-6188,-6568,-489,-966,-178
2963,2939,5514,7811,-448,-359,277
2964,-4807,2287,-1125,-583,-1474,397
2965,6316,-1071,-2336,-1496,239,-1976
2966,-7077,-4571,7866,1073,1406,-231
2967,5176,-4929,-4861,-1871,-125,1174
2968,-1881,5503,4646,1489,1612,1655
2969,6439,6576,1472,807,-1040,1738
2970,6382,-1658,-2527,-1947,-383,-318
2971,3403,-7830,-3832,-252,1939,-1067
2972,-5973,-1190,-1100,217,1982,912
2973,6909,7069,606,1433,-342,1958
2974,-4347,-3317,-158,998,-1495,1964
2975,-697,-7820,-1053,-973,-189,59
2976,4543,-5070,-3575,1141,-12,-1329
2977,3551,-4301,-2282,-589,331,-610
2978,3679,4694,-1697,985,-194,1231
2979,4187,975,-1354,764,-504,-1457
2980,3047,-7245,-233,-531,-1332,-1120
2981,-5707,-4085,-6739,-1973,-37,386
2982,7313,5546,5733,-1787,919,592
2983,2365,4180,1649,-469,-687,281
2984,-1854,721,7447,1700,833,993
2985,1887,-6372,5790,1486,696,422
2986,705,-4176,-4852,633,906,1415
2987,-2794,3973,3170,-1562,672,-100
2988,1202,-7158,-2142,1346,-505,567
2989,-4178,-7651,-3485,1075,-1039,-1730
2990,598,-3151,-2921,-1666,-44,592
2991,3478,701,6488,1417,-1323,728
2992,-3293,4696,-3703,-294,-1382,897
2993,5452,6403,-3490,-1341,661,-370
2994,-5504,-7154,5725,-1478,-1186,-792
2995,1094,5866,485,1703,-1383,938
2996,4616,-2877,-6933,-448,-1697,-354
2997,2528,5679,7452,-159,-1264,-487
2998,2145,6172,-6830,314,-1078,280
2999,-3538,7939,5970,-876,362,1890
3000,5335,6248,1448,1040,1555,1213
3001,-7069,-7307,691,-1273,-517,-1684
3002,-4721,3625,-4354,-1871,-980,-1175
3003,-6649,-4119,-4133,1459,1105,-1448
3004,-3822,-7248,701,-1876,-426,-68
3005,3367,7723,1093,645,941,1025
3006,7281,-6510,-5686,268,607,-1149
3007,2748,-7590,-5283,-1706,597,-726
3008,-1716,3731,178,493,1980,-668
3009,1545,-6768,5203,136,1494,-1460
3010,3579,-7265,-6617,1510,1794,1305
3011,145,1960,4849,427,1109,1370
3012,-2687,-3882,-1597,-1617,-1886,-554
3013,1882,7370,-6224,448,-766,-1751
3014,6544,5887,1299,-94,-183,889
3015,5314,-4497,216,-656,916,633
3016,4656,-5411,2187,1756,433,548
3017,3031,3710,-5343,-625,-219,1235
3018,-6754,-3165,1800,690,-99,665
3019,-185,-7486,-5670,-1422,-1959,588
3020,7521,2827,3432,-1441,-1907,-418
3021,-1136,-5257,-3867,-1507,527,1945
3022,7280,-4946,-1433,1170,1194,-1813
3023,2186,-5131,-4024,-525,1243,-1493
3024,195,4418,-2619,1797,783,870
3025,-32,1189,-4637,422,592,963
3026,3520,3820,693,-1193,549,291
3027,7621,3739,-6575,-495,-1963,1701
3028,-5901,-1700,-7739,-1755,1011,1760
3029,132,-1148,522,-88,-1718,-36
3030,6107,-7356,-2968,608,1089,-300
3031,-7650,6175,-2026,1255,826,-589
3032,-3214,-4583,2722,-216,46,-502
3033,-3316,1278,1355,842,-1140,-1392
3034,-7835,1559,5173,925,-1242,61
3035,-5997,5593,7683,172,1530,-278
3036,-5321,-5194,6237,266,1651,533
3037,-6582,5585,5725,-1196,1764,-1978
3038,1125,-7379,-7504,1198,1628,-1523
3039,6507,-7873,6252,-1338,1461,1188
3040,-7508,-4426,4915,-1326,-320,-1004
3041,-6792,6266,7840,-1344,-198,-2000
3042,-1071,-1422,-7001,184,1562,405
3043,7398,-3603,6021,1947,-1629,-178
3044,-3204,-4737,-226,1443,-164,-1746
3045,-2974,4791,3123,-1554,133,-1799
3046,571,-7005,-5523,528,-881,1709
3047,6354,6050,7590,1980,384,-1078
3048,-2085,5462,2582,876,1014,-1680
3049,6184,-1320,5729,1821,1209,-1694
3050,-7068,-3525,-95,655,1601,-1440
3051,1155,6744,-7003,461,-664,1654
3052,-7772,470,1288,-622,-380,269
3053,-2530,658,2896,-292,1016,-481
3054,-1729,-7486,-7124,1174,1420,-255
3055,-7009,6733,-3006,885,638,670
3056,6183,826,1243,1195,-1429,-683
3057,526,7874,-6402,887,885,-1042
3058,485,-3974,4687,258,1368,-1367
3059,-1241,-6116,4821,-471,-1406,1512
3060,-4343,-1430,-5414,394,-1849,1824
3061,-3429,4397,5999,1309,651,-1352
3062,-1114,526,-170,-1566,279,1092
3063,-1790,1527,-4461,-1299,-1739,-639
3064,7553,-7322,-2452,-740,676,1626
3065,-1510,-6034,4473,-370,-965,-1606
3066,-6201,5283,-4440,1002,248,1268
3067,-4419,-3072,5463,697,-564,-555
3068,-1164,-3912,2638,-57,1795,-1260
3069,-5421,-6136,-1159,1982,1133,1145
3070,3763,-888,2125,-1596,-1436,-774
3071,6832,1507,3898,-1281,-1181,1677
3072,-1795,-897,-2863,-1004,755,-1824
3073,999,706,-5048,1366,1860,-1120
3074,-3755,-1361,3141,1698,635,440
3075,-2861,6907,-4154,-1158,-1007,379
3076,2882,3660,6518,-1243,-845,447
3077,1588,-3795,2575,-1739,-1678,990
3078,-2176,-6429,-99,351,-1539,-1075
3079,-6119,3066,-4870,1061,1863,-1615
3080,-6019,-3956,-6499,1229,-774,160
3081,4503,4740,-4679,-1336,-735,899
3082,-5969,3893,3528,-1767,-637,-580
3083,-2818,-1867,170,-970,96,639
3084,1774,-4200,-2780,-1626,1400,-1586
3085,2752,-7201,-948,914,1066,594
3086,1433,-6014,1285,-1830,1730,-1033
3087,63,-4676,-7412,1554,-404,215
3088,6058,29,2677,-1152,-932,-537
3089,1102,-3098,-7071,-1811,-406,-1677
3090,6703,-614,-3040,-470,-424,-295
3091,-3990,-2062,1273,1993,1336,-1750
3092,1516,6207,-5342,1066,570,539
3093,2906,-7584,-7995,723,82,-1670
3094,-92,768,6719,853,427,1849
3095,-7199,5508,-634,662,-366,-1299
3096,7219,4304,-4241,-751,1816,-1351
3097,2228,-891,3016,-1581,-490,-803
3098,4933,7775,3666,-1979,-1865,172
3099,-1781,-244,-6341,-1325,35,1859
3100,-511,3100,-1463,1270,-303,1177
3101,5531,2423,238,-1724,757,-1998
3102,-2369,7247,-2945,-1661,-972,43
3103,-48,-229,7241,240,-1841,1183
3104,547,2189,5474,555,-539,-1277
3105,-978,3465,-713,-520,-1758,-1815
3106,6626,-4468,-315,795,-294,479
3107,-1079,-7360,-6314,1562,-523,-760
3108,-5581,254,997,631,-1471,768
3109,327,3426,4372,222,-1170,615
3110,-1978,7824,-1059,-1039,1037,874
3111,4672,6456,5552,792,1174,-1875
3112,5333,-1913,-426,1508,-1177,-744
3113,-1025,2694,6645,1241,773,1072
3114,-7943,-454,-7486,1854,-1361,-1089
3115,-4765,6010,1494,-1655,1760,-1805
3116,1844,-7427,-2491,1252,1367,-521
3117,3297,6416,7870,-1286,1971,455
3118,3807,4840,3315,-683,-1324,-1725
3119,6929,-2345,2210,188,-1821,-1464
3120,-6219,4957,-5056,-888,-1725,-114
3121,4977,5317,7240,1548,992,-448
3122,-7118,-5981,-3624,-312,-765,-125
3123,-5066,-2342,148,1942,1122,280
3124,2794,-6126,-7810,-374,209,226
3125,-1745,6348,3249,-1723,528,-277
3126,-1030,521,-5761,-1777,-687,-1044
3127,7207,626,3618,1364,650,188
3128,-3272,-965,2101,1772,956,1588
3129,-1675,-934,-5573,150,-1688,-1022
3130,2981,6650,-1741,-1560,682,1167
3131,-1335,7957,4349,443,-212,-509
3132,4974,1385,1971,76,-1850,1746
3133,-286,6296,-1821,-1148,-1215,672
3134,2800,-1982,-6720,322,11,1310
3135,6986,3884,-2439,-1889,1435,-746
3136,7495,-4987,-5448,-570,-607,-1589
3137,5731,1378,-4937,1797,1867,1038
3138,-41,-7434,704,335,789,342
3139,2915,-4675,-4715,-1772,1841,-1157
3140,-7191,3027,3515,-473,1502,-940
3141,2525,7514,6531,1263,-1969,-1364
3142,-2497,3297,2923,-735,872,246
3143,-6978,6896,-1275,-1675,740,-217
3144,4534,2148,-3763,1048,-784,-1101
3145,1848,3429,-3132,1760,-1848,-79
3146,-7409,-6545,-3450,-396,727,-1859
3147,-6309,-4327,764,-1544,628,-27
3148,-3294,281,-680,-1034,1216,-1031
3149,7479,3302,2219,-109,290,-1792
3150,-3236,705,3688,1015,-919,1442
3151,3977,401,-4611,1633,-1020,-1962
3152,7040,6216,-5802,-956,-1566,-698
3153,-6375,-5345,-1791,-738,-1750,1896
3154,-5976,-4566,-7649,231,395,116
3155,4055,5636,4328,-694,-397,-1884
3156,6890,6257,7398,-1412,-1105,-626
3157,7585,1119,3444,1059,1971,1332
3158,1116,4544,6394,-670,-1804,1243
3159,-290,-3196,3759,-1652,987,1767
3160,5547,6681,-7663,353,402,1775
3161,4687,-4963,-7379,1330,-65,126
3162,-7856,5711,-7724,1704,-578,-1581
3163,-2174,5351,6313,1600,767,-1824
3164,3874,6195,-775,180,1523,748
3165,5933,-1412,2386,-242,182,1088
3166,256,-5943,1075,-1395,-1118,419
3167,30,-612,-141,-1268,-1758,1650
3168,3902,-1526,4796,607,-480,866
3169,-4418,6403,-398,691,-285,597
3170,5329,5319,-4744,1836,1317,-888
3171,-2038,-2705,-391,-614,1595,1549
3172,3348,-5875,-2639,1781,162,1787
3173,-7952,643,842,-584,1487,796
3174,-6509,-291,2036,1318,-1658,902
3175,-1355,-5042,5723,30,-363,-187
3176,1759,-6811,-7925,1769,1537,-183
3177,6893,4399,2241,1163,1294,1252
3178,-913,-7497,-2300,-1479,377,-476
3179,7305,5936,7908,-1841,-1993,307
3180,-4893,-7949,-4002,-1026,-351,1383
3181,-2666,-7098,7918,339,140,-1959
3182,-2847,1653,-4404,418,203,313
3183,-1217,-7619,-6611,257,-985,-1779
3184,6033,-6449,7239,83,-870,146
3185,7925,-7120,5124,198,-627,-1192
3186,2824,-1418,-4272,-1106,1680,1950
3187,6364,2043,4766,748,1915,457
3188,-3630,-1362,2701,-1819,-388,-1023
3189,-3278,-2609,7306,-182,372,-398
3190,-5012,-5898,-2866,-1430,-461,385
3191,-7779,-3142,1421,1059,935,359
3192,-6871,-5002,4769,-170,-1730,-1129
3193,-7025,551,-961,307,107,1329
3194,5274,-2952,-7716,612,-135,-1666
3195,-5260,-2111,7270,1844,1281,394
3196,-6497,-1474,-5660,1697,-311,126
3197,-3777,-4981,7298,-1494,821,1430
3198,-1160,4883,7451,1138,-411,-1423
3199,723,-6968,-3977,625,1544,-1648
3200,-4851,-6157,4702,-1306,1873,-1579
3201,-7737,-2431,-6501,-1957,1456,-1971
3202,7831,7259,-1334,305,1198,-641
3203,2053,1615,5996,346,-628,43
3204,3127,3106,7894,1745,361,-1189
3205,3961,-3356,-4744,810,-1832,-644
3206,2850,1088,2390,-1746,577,1513
3207,3727,-928,-1182,-1489,38,-546
3208,-6203,1718,5008,1963,1312,-1289
3209,-3036,5506,6041,1938,1191,-1701
3210,-2926,7426,3649,-1377,-2,1172
3211,7033,-1624,-5174,1812,1127,1811
3212,6036,5472,4445,957,-207,1687
3213,2023,-3910,-2827,-555,1663,1576
3214,6984,6080,2329,1210,-1993,-1849
3215,-2753,7492,-3020,-10,-1002,-992
3216,6797,-5716,5498,-1224,-304,-728
3217,-4401,-5214,1524,1580,1496,-937
3218,3098,956,1013,-1622,-610,219
3219,7804,1975,-7444,1387,-1019,-1592
3220,5693,-1383,-3336,-161,-1606,-1012
3221,7664,-4767,6953,-637,1733,-25
3222,-3337,3955,-3447,-992,-880,-1369
3223,-2483,-7784,-6985,-1071,-358,-406
3224,3266,-3430,-3222,-106,1866,-1086
3225,6028,4175,7865,-617,-782,652
3226,-6892,975,5553,379,-1635,-828
3227,2622,380,5738,797,-1330,791
3228,5360,1862,-7074,1883,-339,-320
3229,-4526,-5215,6689,-1777,28,1623
3230,843,5125,6607,406,372,-1599
3231,-2280,1953,-4262,785,-1717,-984
3232,-3598,5759,-7583,1861,-1769,1381
3233,-3183,-30,-2981,294,1772,866
3234,-5636,3367,2360,771,516,1529
3235,-6076,3300,-237,1783,-192,1991
3236,-2797,2273,-4982,-353,827,453
3237,-627,-1725,4998,919,543,1475
3238,-7597,7408,5630,-157,368,745
3239,-623,-2614,-7218,1718,-959,-1873
3240,-2483,-1053,1339,668,1078,761
3241,5462,-4018,-1818,127,1157,894
3242,-1046,4169,6855,-348,1672,-1004
3243,-5889,-3189,2192,-1294,1618,695
3244,-5666,554,-5298,376,-607,-486
3245,3273,-1792,-4566,-1747,317,1447
3246,5951,-7361,-1499,698,1515,-984
3247,-909,-2469,-5638,1082,-1933,-885
3248,7864,-2864,1757,-167,-158,213
3249,1304,6538,-4862,-1562,1196,-1793
3250,-5747,3661,7038,1129,-1659,1566
3251,2195,4096,-2395,477,586,1919
3252,4090,-4326,3392,-827,-1067,24
3253,-5845,4174,363,-452,-839,-183
3254,6060,-6501,-546,942,-431,-499
3255,1950,-4656,5006,-1684,-599,652
3256,-1672,-3270,-5509,-1544,1449,253
3257,-2588,-7159,-5732,1952,-1767,-48
3258,-3818,1262,1850,-1489,-1369,-842
3259,-919,2847,-6835,177,-1987,-21
3260,6416,7172,7083,215,-1729,-553
3261,-527,-4339,7949,632,-167,1141
3262,7923,3748,6087,-1177,1258,-1747
3263,1441,-4782,2455,-899,1778,-1523
3264,7279,-1275,7386,1978,1891,-646
3265,2413,-2365,-3395,582,1213,-1037
3266,-6233,576,-2417,-263,5,677
3267,861,-2816,459,1028,1878,-1448
3268,-7466,-7221,2319,294,1991,-475
3269,7314,1985,1488,-526,200,-527
3270,1905,3362,-4632,-931,-1379,-289
3271,-4579,6371,-51,253,1069,390
3272,4583,-3909,6064,-1064,5,1448
3273,-3066,-7425,-102,1059,-1252,-372
3274,6184,-4843,-3481,1794,-1668,1470
3275,-3967,-1015,4847,486,927,90
3276,5121,1250,6449,-1112,606,1516
3277,-864,6436,1570,758,1865,1430
3278,-3844,-2869,-7686,-1525,1077,-1225
3279,-2425,-2397,228,-1604,871,-209
3280,248,1860,7540,-193,147,-385
3281,-371,1577,1965,1641,414,-1421
3282,-658,3055,-1186,815,-1007,-1324
3283,7204,3304,-147,-1248,-832,-730
3284,4079,6538,-2862,204,-847,552
3285,3130,4636,1672,-175,554,-466
3286,-3071,7817,4735,-1754,272,-1665
3287,6275,2581,7806,1961,-1568,660
3288,5270,-5221,4490,1837,1114,1318
3289,-5781,6038,5679,1886,1302,-739
3290,5924,-7199,-1087,801,1998,-1728
3291,-7376,-258,305,1600,654,-1925
3292,-6047,-5217,4654,1083,184,-1172
3293,-7768,6375,5158,1933,-1908,-204
3294,7043,2826,3011,-1978,-1046,115
3295,5722,5450,-2977,1325,894,-1195
3296,-7504,-6250,-1273,-758,-220,-679
3297,-5082,2919,-2029,-931,1320,-1564
3298,4839,430,684,-1047,-296,522
3299,-5943,7230,-5003,1953,1093,1034
3300,1980,2960,6499,254,1068,1815
3301,5424,-7090,-825,934,-1180,-266
3302,-2350,-1895,-6819,-403,-383,1173
3303,-6568,-3520,5715,528,333,515
3304,1306,6808,5305,285,-127,748
3305,-2695,7515,4010,890,944,-1175
3306,-3287,-5023,1641,-40,-863,-944
3307,5597,-1789,-6084,-1234,1753,-1386
3308,-6330,-6812,2895,-998,-1352,266
3309,3346,1733,-5943,-193,-1465,1335
3310,-5622,4384,3415,1441,7,-308
3311,-641,5858,-2849,-617,387,-649
3312,-1034,2774,3473,-1439,-170,1184
3313,-349,910,-4165,692,-1834,858
3314,2190,4062,7520,-947,1617,-162
3315,3592,-1205,-969,1619,-1191,-1338
3316,-2793,7913,3057,-1556,1202,-982
3317,-6703,-4240,4398,-1171,950,-71
3318,-2750,1782,1195,663,1650,-1692
3319,-7387,5417,1549,-1848,76,1918
3320,-6248,5916,-3135,-1102,-1509,1107
3321,-7268,-2755,5763,1643,-536,1930
3322,4896,-3154,-2718,66,1345,-1499
3323,4975,-5785,5897,848,-908,-1141
3324,-6012,6686,-4819,344,-119,-677
3325,-4037,7308,1294,1985,1308,-766
3326,6932,-6528,-2644,-1966,675,-1267
3327,-7587,3531,-6281,1970,427,1219
3328,-7960,-5077,-935,-709,-1407,1380
3329,-1534,-7308,-4391,1577,1888,-1507
3330,3382,351,3416,-1555,-1725,-1131
3331,-3783,4165,3209,496,1791,-1589
3332,-278,-2270,-4456,465,-1723,445
3333,-5784,-1645,-2669,1012,1134,-1244
3334,3038,3393,-5871,-301,1991,-1900
3335,-7761,-4990,1505,325,-498,1286
3336,-4114,5189,-4869,1292,1711,-595
3337,-2963,-6429,-2423,-1053,-1062,210
3338,-4832,-330,1423,-807,167,-451
3339,-2563,5090,7092,1072,-1881,-919
3340,5712,-6782,6848,1956,1439,1850
3341,-4102,1382,7267,1374,-877,-1735
3342,2074,3531,2042,-865,-1269,-186
3343,351,62,-6827,-1137,1262,203
3344,867,-6163,4129,1159,-720,-1532
3345,-1293,1665,-3936,505,1809,-379
3346,4541,-966,-4363,1576,-482,-694
3347,-5873,-6270,-7850,-1238,-1043,1902
3348,6878,7021,-4070,297,558,-1198
3349,6363,-5551,3770,-1618,-1081,-1302
3350,-3214,4924,6539,-1521,1794,-1512
3351,-6562,1444,6762,-1187,511,-1011
3352,-6710,-5730,-2404,775,-1003,1142
3353,1709,-5564,-5589,1007,396,-703
3354,109,172,-214,1572,408,-1827
3355,-7655,-7687,1028,1114,-1403,1350
3356,3786,1221,6654,-1438,955,-1648
3357,7936,-7791,2843,-1249,-1017,-1077
3358,4188,-5384,2677,-312,1191,-816
3359,7840,-1952,2828,1903,-250,-1416
3360,2886,-1272,-545,-1928,-1949,1692
3361,3323,1276,-2781,1818,1949,-1706
3362,-7457,-4348,3807,-1735,1535,1996
3363,6992,-2475,3226,-1186,173,-1
3364,2483,5461,1995,1906,958,-1062
3365,-4164,6158,-501,-490,-1417,-1154
3366,5916,1829,6052,962,9,1752
3367,-6530,-7132,5916,1572,-1991,1863
3368,2762,504,-7552,-230,-473,-601
