Sample,Ax,Ay,Az,Gx,Gy,Gz
0,-1470,1603,-1153,-869,-1661,-1899
1,7888,5888,6183,-1193,-1931,1839
2,-5880,-5759,5713,-913,1022,-1037
3,6773,5887,-5894,1316,1662,512
4,-2347,-6762,-1387,1901,-824,763
5,173,-4634,-6219,-1042,-1453,-1326
6,1716,1812,-4710,411,-980,-32
7,5785,-5417,-930,-1219,-1915,-172
8,3675,-1349,3988,-1588,-84,-1889
9,-5147,1608,5285,-717,1540,153
10,-2210,-2646,7358,-1687,908,80
11,6642,5605,-1809,824,-364,824
12,6130,-2366,-2512,-836,-678,-1375
13,2904,-7909,-4218,850,-220,-344
14,3320,5724,5997,531,579,716
15,-4494,401,6694,1900,-736,72
16,1770,1061,1231,1310,-1042,-1399
17,7928,-4440,-3458,-399,-848,-147
18,-3898,-5855,7537,-1279,-807,1400
19,-2411,3846,7105,-626,-1787,-1546
20,-5229,1897,-4459,-774,-355,268
21,-6785,2929,5415,150,-95,750
22,-7349,-7317,-978,-1215,-1002,-108
23,-3558,2937,-2230,862,-837,-1141
24,4987,1225,5313,1078,1666,-888
25,-1260,-2963,-4177,605,-384,381
26,2831,894,6323,1929,1381,1972
27,2515,-3610,-1861,-1315,-1401,627
28,496,4218,2707,-375,-471,1857
29,4082,4813,-744,-1921,-1261,601
30,-2207,-1654,-4228,-1346,343,715
31,1017,917,-7254,1882,-1937,1160
32,-3765,6043,7264,-1906,-654,1498
33,-7296,6342,-7470,-1844,319,1921
34,1444,5229,1286,-319,1091,-355
35,5165,5385,7958,-538,-1444,959
36,-1442,113,899,-1221,-1071,-633
37,5724,-5571,-7063,1290,-1567,1842
38,-4136,-166,-818,946,-1773,-679
39,-7521,-36,2938,901,-1138,-1975
40,-5695,-1475,7609,665,-123,714
41,-4765,-3042,-5270,571,-233,697
42,4405,2769,3040,-243,1356,-765
43,-345,-166,6364,1131,-861,-1609
44,159,-2303,245,-1864,1363,1884
45,-3693,5492,3363,818,-1219,1475
46,-2978,-883,7716,818,878,-1120
47,-1795,7466,-5355,1662,-1190,-1876
48,2164,-2545,4903,254,-1730,-1940
49,-3449,3764,-2767,1222,1452,-1036
50,-1034,2664,6156,1611,-1387,-1861
51,-7343,1330,1762,997,1688,1735
52,-6968,3206,5235,-1597,1779,-1333
53,6120,-7216,-5854,769,-5,-1596
54,-4904,2140,2768,136,-1312,-174
55,585,-4374,4945,-552,-605,72
56,3250,3801,-905,359,86,-1816
57,6014,5040,-7996,41,-1046,-1816
58,-2794,4079,709,-1852,498,-499
59,4412,5633,7090,-1630,-670,752
60,5497,2725,-2913,158,-1763,1640
61,3348,-5243,2782,115,320,1457
62,5785,-5210,-5273,-1853,1482,-1815
63,-2819,-3462,-1626,-63,962,1481
64,-348,-2069,-6497,1946,-1246,-1551
65,-7041,-5304,-7644,-855,-662,928
66,4670,4720,5595,-972,843,1904
67,-3040,3962,-5571,-1104,-1918,373
68,6733,531,2467,408,-1009,1431
69,-5334,-1822,-2198,684,832,-1784
70,-1060,-3286,2191,-1,-1755,1699
71,-7699,-5748,1451,-227,-1098,896
72,-4913,1823,1610,755,1673,-765
73,-4874,-7535,-3455,-573,-1633,-1458
74,4565,1619,7474,691,-1823,-382
75,302,3045,4037,-973,826,-1146
76,-1033,3158,7985,640,-1723,1036
77,6789,4645,-857,-535,-1270,1502
78,3771,5626,-6886,-1500,902,159
79,5370,-582,5573,1260,-879,1464
80,-5166,-6982,6482,-340,405,1722
81,-5819,3330,-5812,-273,656,96
82,4509,-7996,1327,1874,-207,-95
83,4979,-4215,-6508,460,-689,392
84,5885,887,3815,681,1672,-446
85,4577,7873,-7849,615,1132,-1423
86,-1533,7771,7127,1172,474,196
87,-3571,-105,5654,1460,1913,1588
88,3640,5442,-968,46,363,-1121
89,4388,-7182,5524,-588,-1535,-1683
90,-360,-564,2979,-1088,-1962,1726
91,2263,-90,1230,-711,-776,703
92,-6759,5702,-2970,1821,-1913,829
93,-5653,839,6966,1852,1440,-834
94,-2052,-3237,3720,-292,-1382,-565
95,-7676,2235,3012,321,924,-501
96,315,-7695,7704,-557,878,-101
97,2535,-1847,-7337,-1155,-1507,-1501
98,-2659,-3995,-108,-829,-731,-462
99,-7246,2620,6365,1363,-1007,-121
100,-4954,-7380,5300,1410,1779,-1449
101,1158,5859,7202,-740,-1571,1592
102,-3705,6090,-1384,-652,1859,1370
103,-6053,889,1184,-879,-1698,85
104,4527,-2407,5038,1884,1679,-1825
105,4179,-807,-4503,-1683,-1167,-1678
106,779,4157,-1880,-1962,268,1239
107,2945,-6599,6561,468,-164,885
108,3175,2726,-5508,1040,-853,430
109,-7885,-4336,579,-569,909,-1537
110,-4633,1994,-1681,-1877,1683,-1862
111,6658,-3962,-1278,1907,-1700,-1715
112,-7791,-1482,-1719,1885,67,265
113,5531,7916,-4426,183,174,-1558
114,-49,-3756,1293,-1224,18,-151
115,879,-7616,3201,935,-678,1995
116,1095,-7871,5663,858,-1775,-398
117,-2419,-99,2272,-607,882,553
118,-2045,7637,-7911,-1651,-1156,-349
119,7499,6590,78,1866,592,-1092
120,-6329,5398,-588,783,1332,1171
121,-3959,3279,7553,650,-664,-1002
122,-262,-6595,7315,-740,1740,1413
123,90,-1266,-2464,1984,1914,1253
124,-2661,-5355,3673,734,-1836,-480
125,-6563,-1824,3742,-571,1916,565
126,-7679,229,-6467,1649,-467,877
127,3955,959,-6729,-325,-674,1973
128,-5097,3391,-4364,981,1856,-1692
129,-3124,-3636,-798,975,566,-1633
130,503,6269,-4071,630,1077,557
131,4243,1680,-4616,-362,-850,1525
132,-4280,2672,-6468,782,954,566
133,3182,-3721,6090,-1336,191,-593
134,2620,1731,-139,-11,1313,893
135,3228,4501,-4483,-1114,-1706,-638
136,1743,187,-4902,1911,982,1367
137,-7462,6232,1646,729,-205,824
138,-1583,2801,1420,-377,-569,1839
139,6396,4195,6491,-1375,-1805,-175
140,-44,6769,668,401,-1265,-1776
141,7816,-777,2739,-677,-1885,1079
142,-1189,-3859,1224,796,-754,-581
143,-977,-1649,-1504,1825,1121,476
144,-800,-6960,-5916,817,920,1917
145,-2461,-3723,6479,-1592,1143,-369
146,-1710,3016,-2060,1362,-1404,-1226
147,4970,-3206,-2693,645,-754,498
148,-5094,-6590,3045,1670,1512,1356
149,7342,6848,-5096,-261,1453,-1221
150,-69,-5271,-3547,-770,-425,-482
151,-2837,6780,6596,1555,-348,1088
152,1493,-1842,2697,972,267,-1267
153,7058,-7612,-2984,1378,972,-1933
154,7422,-4845,3113,18,496,927
155,7211,-5770,6263,-110,1159,-1753
156,-378,1589,-3573,-1708,-1116,642
157,-2568,-2835,-3646,-1720,472,835
158,1853,2211,-2930,1676,136,1268
159,-457,2119,-5763,1627,-1824,290
160,3229,6824,-5872,-1563,1900,-626
161,-2692,6446,-7167,76,-620,74
162,-7260,1921,2568,1790,1208,1565
163,4725,-3521,6943,-1178,-1893,-1551
164,-6505,550,509,-1198,-639,1176
165,2795,7064,7837,814,1495,241
166,7005,-3923,-448,848,1452,-1069
167,-7169,5445,-6531,1308,1442,-124
168,-7373,4712,-6588,1051,-973,-912
169,-7442,1267,1570,964,-1171,1372
170,3256,4937,873,-1962,1320,669
171,7277,2923,2214,294,-1393,1707
172,-7092,2437,5537,-1577,1520,-1167
173,-4859,-2653,6630,-1667,-1912,-172
174,-3508,-7633,-3383,-583,16,-288
175,1476,389,-2620,1073,616,-1109
176,-5766,-710,-4269,1562,-115,-794
177,6951,-7535,-3300,-1467,-563,633
178,-4166,761,7229,533,176,1795
179,-4563,-7850,5275,-981,1460,701
180,-5770,-6756,5420,580,-725,-1751
181,7038,-3256,-850,1648,172,456
182,-3387,-543,-7217,-761,1968,1238
183,-5289,-572,5501,-689,530,612
184,2388,-7026,68,-1579,-1914,-1253
185,6828,-2446,5063,1422,-1907,-1364
186,1118,4,7557,1565,22,1353
187,-953,-3017,6357,635,1447,-1757
188,799,-148,3351,1706,1809,1404
189,-5552,-2602,-1592,-1449,204,1500
190,-291,-6223,4810,851,1943,256
191,6653,4929,7846,-1101,774,518
192,-7568,4952,-4382,760,540,1564
193,-253,-5976,1225,775,-732,-1308
194,4577,6544,5816,1242,950,1979
195,-1856,5187,7918,994,-1116,-1238
196,-4902,-4336,3173,-841,1327,1281
197,2398,4742,-7777,-1391,-1906,-1920
198,-4901,4835,-913,-430,769,501
199,4568,1805,5290,-1243,-1689,-1900
200,-6854,4873,-2807,-74,1247,-97
201,-7842,-5453,1214,-1270,-565,-1949
202,-344,-7887,-3372,-777,431,78
203,2078,-6756,573,1087,1532,-1807
204,-5530,-5968,6356,-427,1167,-569
205,6733,-5759,-95,1197,1427,1152
206,7823,-5348,-6127,735,460,913
207,7676,-3342,2619,1982,1626,1156
208,4942,-4672,-4032,-543,-1006,-1350
209,5088,6901,-1775,-644,-1932,1363
210,6650,5057,2592,-559,1154,-288
211,-4904,-6845,6583,213,773,-43
212,7640,3548,5082,1541,1607,565
213,-49,4131,3193,1337,-1851,7
214,3066,-7064,-3468,485,70,-1801
215,-776,99,-3559,1695,-671,1503
216,576,4501,-3374,-1082,-1086,-1474
217,1479,-1519,-4298,-1074,70,352
218,-3664,-3242,-2876,-1084,-852,-1413
219,4976,-2084,-157,626,-868,-1656
220,2114,6588,-6523,1508,395,-979
221,-3816,-3994,3392,1662,-592,-503
222,1513,3249,-6528,881,-527,-777
223,-6318,-5588,-7908,1336,-1427,-1993
224,1058,-2765,-6627,528,-547,-1076
225,3377,-6935,7157,1955,394,75
226,6093,-5408,-7378,1262,1538,1680
227,-374,-5398,-361,-1081,1081,-174
228,3168,7994,-4242,835,-588,272
229,539,502,810,-1373,805,204
230,3252,-1,-4247,1276,-677,-1912
231,-4996,1178,-6262,-1619,-1752,323
232,3598,-6508,6159,-522,421,124
233,-7828,-908,858,-1175,-1470,996
234,7865,-6521,7863,713,-1189,-1955
235,3212,-5898,2425,1040,-812,-1956
236,-2581,4442,3396,-248,5,-1477
237,-1330,4754,-3575,1644,19,-211
238,-2677,6072,4506,171,144,1131
239,-7332,3030,-3760,486,-1768,-902
240,7951,4014,-6816,1490,1529,1361
241,-2019,4940,5779,1956,-1231,-1545
242,-7755,-2281,6677,-1095,182,510
243,-134,-4537,-5830,-960,1108,-735
244,-5340,5596,5485,779,-1643,1590
245,1036,-3684,3250,236,-1452,-1972
246,6769,-7823,-3909,1380,1632,-1822
247,7393,-6376,-6595,866,408,1881
248,-3409,6646,-5023,-256,1637,-157
249,-3459,587,550,-1737,-354,1711
250,7878,-7618,2186,712,-857,234
251,6571,5792,-5559,1860,-136,945
252,-521,3975,-1544,1553,-1644,1961
253,6907,1053,-7000,1015,642,667
254,852,6127,3066,1078,-1008,-404
255,5542,7423,-4515,617,-998,950
256,1630,6746,77,1926,-1407,0
257,5847,-2611,-5999,-257,-673,-1099
258,836,-251,358,988,-1808,-172
259,3889,4720,3438,1250,1811,-705
260,6966,-7677,-4278,-1303,635,1174
261,-7159,6297,-1939,-1140,329,-372
262,-1614,-5179,-6640,1101,-1799,1490
263,4009,-6714,7125,-568,1385,-1758
264,801,-2169,-3792,1837,184,1471
265,5583,3164,-4567,147,-160,-1986
266,7952,5470,-7130,372,764,1628
267,-6778,7003,2481,1284,720,1285
268,-6231,5652,-7990,-414,-1378,-1255
269,5702,-3587,628,-1964,-464,-1848
270,1077,4277,7115,377,-776,-558
271,763,-5585,-3357,-1100,-1629,-1388
272,1987,-7371,-6226,-74,842,1121
273,1117,4378,-3049,-460,650,-80
274,6421,5851,-488,1332,1055,1553
275,2176,-1598,2194,132,1590,-1931
276,-5943,-7286,18,1741,266,716
277,-7204,-5142,7762,-849,-1602,-357
278,2822,-2386,6742,-1051,856,808
279,-7196,2327,5996,770,-623,312
280,2382,-4011,4272,1225,-452,-1400
281,3505,7946,26,-1358,-864,1275
282,3386,-1720,350,851,86,-132
283,2260,-1575,6692,-1474,109,1334
284,-1325,224,6749,-1393,-1162,-452
285,1856,547,4753,1037,-972,1968
286,-3004,724,-6369,739,1576,1594
287,-6454,4389,2631,-782,1068,599
288,2600,-464,-2423,630,-1158,-567
289,7029,-1872,246,1084,157,-1006
290,-4267,4886,7660,-1656,1040,352
291,6103,5647,-918,1972,900,784
292,7836,-4633,-2178,-994,1517,136
293,-1414,-2646,-1218,315,-1752,1521
294,1010,1756,-2252,-1512,1220,1771
295,-1798,3653,6607,1662,-507,508
296,-609,640,275,555,-1331,-138
297,-6576,-2083,-364,-87,946,-854
298,-7009,-3187,-1036,-1563,937,-568
299,6426,6437,5902,1199,-1715,93
300,6643,7933,4522,-1055,-1285,-463
301,2877,-3720,-3885,783,-1512,1122
302,-4211,5525,-2057,-308,-664,1312
303,2480,-5710,-819,-679,256,89
304,-1285,5595,392,-1789,-102,1663
305,2902,3336,6429,722,-14,658
306,-2932,1106,-115,-581,-303,185
307,-4371,4814,-6386,501,691,555
308,6749,-5928,5888,-213,876,-535
309,-3476,-2016,1161,1237,-1531,1493
310,-5319,-1315,4732,-1470,-913,-781
311,-6539,1488,-6255,125,320,-191
312,717,4753,5693,469,1464,-520
313,-7906,-1536,847,1583,-838,719
314,-1823,-4358,-7207,312,-1089,1517
315,1101,7336,-7269,-1435,1133,-527
316,-2798,6887,-5805,1700,757,-1946
317,-837,-6198,3313,1432,184,-747
318,-500,-5424,5577,-1617,367,-1121
319,2146,-2105,-837,-289,291,1941
320,7750,5918,-3528,764,-183,-821
321,5358,6456,1215,-1180,824,1935
322,-5895,-5544,-1027,-667,495,1934
323,-7633,48,-1243,110,1099,1713
324,-6774,1879,-5917,1734,1947,1149
325,5341,7218,1478,1499,31,-1362
326,7886,4013,5170,-1426,-1575,1283
327,-632,485,-539,-232,480,1480
328,-529,7799,-2151,1875,1671,-500
329,-6596,-3614,-7335,612,1356,-890
330,-6334,-3110,-6455,-1381,776,1307
331,90,-3419,-783,-1802,551,-1925
332,1898,-6947,282,1384,-1362,1135
333,-6479,-4464,-3411,261,-1386,838
334,-6788,-281,1252,695,893,-1295
335,2876,-2644,7083,112,454,1245
336,6099,-3760,-5722,1635,-1660,1585
337,-3707,1363,-2308,-1537,1615,100
338,7294,5377,-3246,1903,-1773,1828
339,-1901,489,-2040,644,-675,-114
340,5267,6258,-1810,-1683,-551,300
341,-3515,5944,-2426,75,1325,696
342,7835,-5321,-2364,620,-1603,65
343,-3935,5508,-2131,-191,-1926,893
344,-4699,-5423,5183,-226,-1903,-1841
345,-6095,-5805,3502,1816,-434,-1027
346,6355,2767,2260,1819,1224,763
347,7243,-675,4665,1218,1831,-1224
348,-6114,556,-953,123,-352,851
349,-4785,2899,-546,-761,-517,-1162
350,-1321,7854,5960,-782,541,1514
351,6955,-4433,-4555,-646,599,871
352,-7516,-3607,-2265,-258,-1605,966
353,-451,2908,-4481,1465,1850,-456
354,7365,7095,4189,-653,1244,510
355,-1269,-1326,2652,-389,-1000,-624
356,4967,4984,-7073,811,1230,-1496
357,3645,5068,4773,-970,1543,-1781
358,-5038,-6099,-2708,1315,-1094,-472
359,6666,7524,-6383,-935,1993,-357
360,-3966,-625,7093,-1043,-1554,-335
361,-1614,2942,3634,37,615,-1697
362,7952,845,-1639,-1396,-641,-255
363,-2845,7950,-4500,1646,1059,464
364,6410,-6220,1325,851,-874,470
365,2137,-4152,5908,1195,-797,89
366,-627,2850,-3279,-734,703,365
367,109,6930,6091,1330,239,-939
368,1568,-1748,-7215,719,634,-1094
369,7472,5197,-135,1574,-329,1704
370,7653,-7869,6875,-822,1735,-1574
371,4175,-7222,4936,95,-339,833
372,-1802,-1909,2987,202,-1699,67
373,4780,-6352,-2148,-1550,-205,806
374,-4799,5968,3182,1552,589,554
375,1086,-3121,-2463,-272,-1631,-681
376,-4782,6911,2956,-261,1782,-1669
377,-875,1754,6217,-1660,1181,-199
378,2916,39,3193,163,1614,1459
379,2827,-6961,4974,407,13,1661
380,-3722,-5782,5299,-637,-599,898
381,-2075,-128,-6402,1446,-1926,-69
382,-1952,2189,-4148,1860,1876,-1285
383,-3866,5264,-3849,1288,-1347,1036
384,4438,-4341,7106,-393,-1150,-1653
385,4734,7127,-2548,361,324,-1259
386,-6911,-2810,-2688,-152,-1803,-466
387,-4305,-1579,-6845,-871,-999,-457
388,-752,-4549,-3155,1074,-1839,-895
389,6288,3376,-1656,-777,1495,-6
390,3101,-2228,839,-311,-1564,-568
391,3484,-4049,-2952,-822,789,1357
392,6418,7667,2492,1931,889,112
393,7954,-5376,6248,-342,-1675,-953
394,1836,1242,5178,18,-1361,-399
395,4015,2516,-4169,1056,-1834,1972
396,-2822,-89,-2302,548,62,-1875
397,4741,-4021,-4922,-1042,293,-451
398,2965,3233,3692,-170,-144,1426
399,5579,-5909,6140,-745,677,520
400,-7221,1636,-740,-1669,1764,-1325
401,4632,6562,-2794,-1004,655,1507
402,3537,-3317,2441,-1952,-905,37
403,2397,2150,6096,-803,-1627,441
404,-3809,7824,-4237,-422,-930,-1342
405,-5024,-6892,-7345,-1759,1385,-1767
406,6523,4789,4947,1591,1047,-38
407,-2685,-3259,-2817,-638,-1237,-1355
408,-7638,-4508,-1449,-1509,-1402,-959
409,368,5239,7786,961,32,-50
410,-2345,6710,2146,443,-1195,-783
411,7337,4272,-1515,1429,-1744,-1734
412,5142,6028,902,-730,407,1197
413,402,5315,6785,-1760,-337,-751
414,-1507,-5622,-5698,1867,1437,-1404
415,-5972,7520,-733,-31,1239,47
416,-1171,-3475,-1242,-595,458,217
417,1898,3825,1719,1165,-33,288
418,-1640,4606,-2220,495,1636,-1613
419,3187,1779,2421,1115,-589,1576
420,2922,-6185,-4052,-268,-1735,-1900
421,4824,3518,453,1127,-909,-901
422,-3987,6557,5259,-1752,-938,-402
423,1322,-4007,-2023,409,396,-1246
424,-1517,2839,3531,-1474,1449,68
425,-3326,-1790,1339,-972,505,-651
426,7168,7262,5848,-1175,550,-717
427,-1449,-6171,-3602,-611,338,698
428,-4798,5348,6603,-1527,1409,11
429,-6259,3015,-6145,261,179,-756
430,5505,-1760,2400,-633,859,-181
431,-7852,6997,758,1042,-483,1062
432,803,1112,3118,696,-648,-498
433,-2899,2539,7710,1787,-1413,-1466
434,5855,-3699,2775,-76,-1996,1760
435,-6194,-5073,3427,-873,-1400,1957
436,-7045,-3174,-387,1216,-1728,221
437,-50,-7011,-296,116,794,1251
438,1643,5041,-4018,364,-290,91
439,4637,-234,-1735,-1257,729,1953
440,-3078,-1287,-6224,1255,-870,-1720
441,4752,1798,-7968,555,-378,-1056
442,-1869,-6713,-233,1345,-81,-1345
443,5174,5938,-3912,1675,1046,1581
444,-5520,-4288,-3214,-420,-601,-1472
445,-3268,-7259,-4217,-1676,-1987,-65
446,1953,4997,-7485,-1286,1462,1142
447,2928,3741,7749,-739,-284,468
448,982,7580,7267,-753,-194,-1119
449,-1672,-367,-4696,-1802,-7,966
450,-1441,-6429,-6232,27,-519,1879
451,4287,7303,4022,-458,-1778,-1806
452,5846,5565,-5575,-700,-1818,1015
453,3658,-7054,652,1522,1095,-1827
454,-7890,-6595,-3607,996,1120,1299
455,-2558,5831,-435,-1141,1682,-423
456,4538,6771,-2507,1428,852,1788
457,-6095,3140,-1191,-752,1082,-462
458,-544,-7876,1249,1655,1848,332
459,7946,-4990,2838,80,-541,-1899
460,5352,5607,4154,-759,-607,-196
461,2595,-4870,-4546,-1742,1777,-877
462,-300,-4313,7522,498,1637,793
463,-1960,3640,3656,890,-1193,207
464,-7745,4674,-5206,-1937,865,-278
465,7616,-7789,-401,-638,-1455,-30
466,2108,-3607,6226,-745,405,-309
467,-2992,6870,-3499,1545,-1472,129
468,-2720,-2734,1113,197,951,-375
469,5694,-5545,-7682,-362,-954,1326
470,443,-5315,-7960,97,671,-265
471,2389,3726,156,-566,-274,989
472,7736,-631,1169,-1018,1151,1861
473,7731,-3537,-6283,521,1934,1629
474,6651,-2209,4269,-1088,-379,-677
475,4457,2622,6780,94,-48,1211
476,-6477,-1931,6532,674,1383,912
477,3762,-3048,1867,1971,1733,755
478,-2977,7106,7215,-409,-200,-1175
479,303,-5833,7394,-1503,1853,1409
480,4473,5123,5082,-86,1707,-957
481,-1784,-7636,-259,1111,1407,1740
482,6269,3283,-7986,1824,-259,-1936
483,7275,853,7408,-489,-1312,1315
484,7955,1038,5274,1447,1763,252
485,-5991,-7585,2731,-1129,-1407,1920
486,442,-7676,-7991,-797,-508,-308
487,-611,-7888,5569,282,1098,1149
488,-5162,7159,-5139,-348,1063,805
489,-1698,-6852,306,1526,1418,1857
490,-885,-1332,669,-900,-1304,-1818
491,7941,-2121,-5861,-1385,-971,-371
492,-4126,5970,152,1162,350,1138
493,-2318,-7236,-7607,-431,-417,-620
494,347,587,7791,-1541,-720,358
495,3804,5185,-2544,-1702,1540,396
496,-7534,6995,-840,-147,-684,1497
497,1070,3174,-3647,-1614,-1400,176
498,-3250,6160,-3898,-1045,1161,283
499,1199,-7549,2232,1985,-669,-201
500,7156,1828,1209,8,454,-396
501,-351,-1247,-4114,775,1220,-35
502,-835,-6857,-575,-58,825,-902
503,2713,2056,-6513,422,433,874
504,6120,5496,-5221,1064,-508,-550
505,1292,-1655,-2376,-128,-1392,1662
506,6951,-7668,-7220,-589,-166,1009
507,-4871,4073,-5551,1119,1776,1684
508,-1221,-7909,224,719,1624,-289
509,-3415,1059,2335,153,1485,-83
510,-7019,-850,-7338,720,-345,-1176
511,5194,-3807,-6635,-1323,1609,-1847
512,6852,113,-1178,1046,456,620
513,4159,-7901,-5035,-1581,-1235,1760
514,2629,6771,-732,-680,-1718,-1945
515,7563,-1966,-7711,-588,283,-1202
516,-2533,-389,3546,-482,354,819
517,4753,-5631,-3199,-1127,408,-1181
518,5509,-888,-2875,40,89,-1618
519,-4705,-3898,3338,1898,-619,557
520,-5712,5494,1997,-605,-1774,-1426
521,4400,-6533,-6193,-297,1087,-915
522,7175,912,6117,1840,1316,-1621
523,-5232,-3723,1124,1653,211,-817
524,-646,5125,4679,-130,-518,-113
525,-1184,617,1110,-1827,-1455,-1702
526,-3212,3579,-5801,-497,-1020,1901
527,-5641,4103,-247,167,505,-591
528,1386,-1412,4895,-1595,1360,-1893
529,-7958,-991,2691,-1458,1436,1881
530,6489,-3980,-7301,644,1817,-208
531,5430,-6528,-1842,-661,-1667,-572
532,-5620,7224,-3362,726,-616,1720
533,6223,-1339,-1270,1179,761,1449
534,4423,3151,610,-837,904,-212
535,-6405,-2551,-230,-13,1630,-1551
536,3002,7325,3299,771,-780,-311
537,-3936,-5766,-4324,54,-1260,932
538,-2443,6526,2809,-1121,-1474,970
539,947,-4436,-580,445,-380,1791
540,-7425,-5215,-7103,180,1701,1806
541,-6025,-6623,4130,-116,-1000,255
542,670,-6134,3076,464,772,-1253
543,7215,7161,-4500,306,-1780,694
544,-3290,7073,3596,1054,1785,-793
545,2113,2514,-5638,-185,-254,1130
546,6260,-707,3353,-1542,1272,689
547,-7472,5277,3183,58,1968,761
548,3743,-2118,-7378,-941,1245,-549
549,7574,6345,2274,-1689,-903,315
550,6892,-3526,-2852,1932,-1306,-683
551,1623,4562,131,-783,864,1925
552,3631,5367,5647,-1772,1544,306
553,-2439,-7271,-747,-612,-1477,-664
554,1837,2199,3600,1696,1582,836
555,-1634,7632,-4858,-1681,641,-667
556,7500,2947,1236,-1460,1415,689
557,4349,1178,4744,1628,-1489,-1019
558,2484,-2825,-1102,-1469,-1353,236
559,6648,5613,7703,-337,-1878,-1761
560,5886,-5202,4515,-408,-1208,-313
561,3835,4506,7392,988,-648,1774
562,240,6928,-7183,916,759,392
563,2616,-33,7260,1469,-1696,1981
564,-2609,-5475,7250,-1488,-420,-937
565,-2567,-145,-3466,-483,-1819,-160
566,5927,3966,7647,-296,1348,773
567,-1698,3786,-4757,-1124,135,1264
568,-1493,287,-5817,-992,268,1757
569,-1840,-2136,-3953,1247,-123,72
570,-2145,1903,7295,-774,-209,551
571,-201,6775,-7579,1406,-243,950
572,3453,7122,-3118,1511,-388,1755
573,-1548,5766,4564,1359,-1200,496
574,2528,3548,-282,211,1936,1833
575,7147,-1532,884,-1424,1073,-718
576,-4536,5737,-5137,1730,1903,-1563
577,7830,2195,918,-1329,1611,1478
578,-7575,973,-2008,-318,272,-109
579,-7455,-4914,4891,466,-842,1268
580,3590,-2777,2241,-981,560,1158
581,-583,-5026,-3631,1175,-1889,1408
582,7455,-301,-1779,1258,1030,758
583,-4627,1575,1739,918,391,1926
584,-3820,2014,5570,1968,-1858,-1879
585,-6605,3518,-1052,427,-162,1338
586,-1474,4601,1784,-892,1609,913
587,-6724,4885,-2078,1908,-534,-1228
588,6756,-6782,-5318,-191,296,736
589,549,-870,-7982,1728,-1849,-1366
590,-1585,7870,3361,-1734,313,-1343
591,-3046,2036,-4516,-1084,1930,1197
592,-2490,-5711,2768,1425,-154,-1854
593,6998,-5027,7457,1385,244,-929
594,-3051,-2264,7915,-1688,1726,935
595,717,6041,-5921,1676,-65,-1974
596,-6822,949,-2724,1179,-194,-1779
597,1873,-4708,-2756,1875,124,-760
598,7344,-208,-4200,859,-1969,1621
599,-3925,1986,-1080,1731,-1274,1581
600,6331,2186,1923,297,1452,1329
601,1403,-2493,-10,-1189,-631,924
602,-3203,7181,1486,-1554,-238,1193
603,-6843,7660,90,1306,473,-121
604,7858,2141,-6905,315,-506,-551
605,693,1433,-6747,962,-192,-1727
606,-4596,5281,7364,-1145,-369,1841
607,6489,-5029,1083,-651,-1387,1966
608,5685,-6979,5056,-493,-505,927
609,-2403,-6567,-3440,-1615,-1058,688
610,6993,82,1722,664,1418,-1669
611,3808,-3130,-968,-1879,1498,1937
612,2151,2341,-5657,-154,-404,1891
613,-3547,-6291,6854,-1688,-1968,-541
614,5197,-7380,1596,1895,646,-1329
615,-3705,4701,-7028,-1876,1818,-1238
616,-6173,-4811,3597,-273,33,-1805
617,6891,-678,-6929,1818,-560,1212
618,-5862,5795,-4378,472,-582,728
619,2616,4006,-4636,-458,1593,617
620,-2850,4538,2437,-1100,-410,1490
621,-3399,1313,-5456,-1990,1808,-230
622,-4804,-6666,6314,-1985,-527,839
623,6886,-7131,-5129,449,-490,-1573
624,-5636,7621,-3364,11,-1823,608
625,-3306,2245,3503,-212,-671,1826
626,5488,-2520,6233,-776,-246,939
627,-6732,-1267,-4491,-311,-1608,-400
628,4791,6388,-4329,917,-1337,-1966
629,4771,924,4219,-1661,1923,-1501
630,1628,1324,2478,246,-408,1699
631,-1509,654,2446,-1840,775,774
632,5363,4278,-7745,975,-496,337
633,-6788,3461,-7762,-603,1896,-1641
634,-1728,-7009,-6704,-879,-439,190
635,-88,7433,1551,912,1643,-1856
636,-3376,-76,-3814,1345,-1297,1881
637,6279,-5122,-1232,406,1488,943
638,6702,-4371,-1733,-997,-278,612
639,5510,123,5254,726,1944,67
640,2137,-1481,6876,-211,-1248,-914
641,4053,-7091,-2397,-1694,1374,544
642,-5679,3171,2135,-1140,96,762
643,-2055,-4228,-1369,-1242,-1481,100
644,-4260,-4631,-6444,-1528,-1633,-405
645,5543,-3026,-11,1994,457,-354
646,6658,-795,-2370,433,1140,545
647,-7760,6787,197,682,-49,1928
648,6862,6576,-3112,1562,1379,-1591
649,-5020,929,-3980,-1540,-1930,231
650,-5344,3292,-3271,1335,851,-1513
651,-547,-7917,-968,-1780,-1048,877
652,-4778,-1731,4456,-425,-438,-1934
653,-2771,-3435,-2398,0,1114,255
654,7571,-4815,-5299,-528,1052,608
655,7516,2536,-6630,-1042,1928,150
656,7938,-2284,-7054,1348,371,-1027
657,6933,-1168,-4523,-264,-369,-1337
658,989,-7659,-2418,214,1087,997
659,-6663,-65,6370,-37,-357,-1714
660,-6826,5443,-5617,173,1585,-983
661,7036,2466,1339,806,878,153
662,-2029,-2905,-3459,131,1880,1897
663,-1104,-1276,3030,1436,547,1150
664,3505,5753,-5304,58,-1227,-727
665,-351,-3459,-2179,597,246,1416
666,1512,6684,6442,1173,1868,1830
667,-4257,4261,785,-1074,675,-967
668,4131,-7041,2020,177,1118,-924
669,-2257,1929,-7577,-1145,1856,-52
670,-4438,-2786,-4728,1749,-884,-728
671,-3013,-994,-3243,1583,345,-1429
672,-2858,6063,2291,631,-1613,-1497
673,7131,-1140,4535,-247,-563,-1298
674,-4816,-4898,3156,-1800,-1037,548
675,-4816,6496,-6130,-834,1777,619
676,-1578,-7195,5173,617,-1454,1532
677,7674,7468,-1947,-1608,-1676,-932
678,-5203,3079,7676,-502,-49,-13
679,-2487,3436,2751,1201,1219,919
680,5164,-1473,4673,32,-1877,-667
681,2884,2715,-5287,734,763,789
682,645,412,-338,-1830,1468,-1015
683,1239,6456,7353,995,-998,1685
684,-3316,79,4368,-61,-1182,-1031
685,6763,-4040,886,360,-171,-227
686,-4101,4429,4727,-232,-312,759
687,896,-5831,-6901,-21,-190,-917
688,-1378,-4436,4191,1343,-35,26
689,-4831,-6237,6866,-701,27,1536
690,468,3241,5187,899,259,-878
691,1420,-700,-3388,-1371,886,-731
692,-1121,4267,-6650,1486,-1709,598
693,2454,7019,1124,-907,1248,1644
694,5900,-4993,138,605,-1407,-1895
695,-1624,-2656,-3346,-67,546,446
696,4457,6607,7262,297,123,196
697,4615,381,4051,29,1240,314
698,-3510,-4554,-3409,-1224,1074,-695
699,-6455,5252,583,1779,-1934,326
700,-3125,6017,-6037,216,-1193,-1756
701,-5343,-5084,660,-600,-1905,974
702,4921,6828,-153,-166,-982,1875
703,4156,648,-4006,-1630,-1531,-19
704,-3538,3852,307,828,1635,-1238
705,1734,-7299,-4898,1550,764,197
706,5906,3548,3387,-868,1170,1978
707,-3290,-5859,-6060,501,1211,-461
708,-7816,2539,-1002,-605,265,1886
709,-7103,-6400,7165,193,97,486
710,-7954,-563,-218,-1907,160,-594
711,7926,946,-6641,256,-1048,-956
712,-4847,-6397,-1376,-246,1475,-1820
713,2512,-1159,-3223,-1650,-1574,184
714,-5088,3014,7854,865,390,552
715,-2773,-2108,-235,-692,1190,926
716,-3571,-6188,-5317,-173,717,-64
717,-7899,-5696,1274,1357,-1974,1967
718,-7972,-199,5678,1007,-1754,1773
719,7593,7588,-2214,1684,-270,-531
720,168,6713,-3417,-1835,402,-863
721,-6125,-3513,5279,-1133,785,1176
722,-5264,-4121,-4978,1257,1496,-1764
723,-3959,2446,-452,1842,-1851,-1531
724,-3465,-6826,5634,1412,-1134,-1357
725,-7904,-6399,1903,331,-957,-961
726,766,-240,4117,212,-955,955
727,-6046,1388,-4715,317,1012,-233
728,-7392,-6217,-978,71,1833,-778
729,-603,7200,-1500,527,-1687,-1826
730,-4000,5425,-6447,-334,-1384,-1852
731,1052,-6398,-1574,934,275,1129
732,-7534,6611,2674,-1299,436,-1852
733,-6443,7548,-4922,-1953,-1863,-1212
734,1756,4808,2546,1189,-281,-831
735,6982,5075,-7728,418,-229,1712
736,2762,3809,3562,55,1335,189
737,-449,6450,6833,-1617,1716,-1331
738,7985,-3513,4660,1798,824,-215
739,7547,-2468,-6099,1629,740,234
740,4802,-514,3884,1421,1955,-1459
741,530,-6559,3473,1821,-879,-1056
742,-7022,-3784,-6193,-65,1470,-1762
743,-3126,-454,1330,-1715,-479,-399
744,1966,-4156,7018,1739,1680,450
745,-2014,-1809,5979,722,-1493,808
746,-1516,1932,-1195,-1930,970,817
747,-2797,6747,4691,-1721,70,1852
748,2649,-4238,7202,747,-619,1812
749,7666,4449,-2275,1583,394,296
750,118,-1785,1730,-493,1266,-1288
751,7034,-3558,-3462,319,866,284
752,2482,-4457,4982,1125,962,1197
753,5191,2616,-1547,1040,-23,360
754,-2157,-7628,5064,-1934,645,-908
755,-1363,291,-6326,-161,1384,-1376
756,-11,-216,-1329,454,-925,-272
757,6194,7375,5000,103,-1658,-658
758,-5245,-4132,-7978,-1210,-1774,1512
759,-6064,4253,1888,1407,1395,-536
760,-6150,530,-3019,1025,-1179,-1579
761,6087,1336,2725,1212,1904,1232
762,5023,3918,5440,1464,1581,-1036
763,-6025,5540,-2565,985,-468,-1781
764,3720,6316,-7960,90,388,-1342
765,2872,5132,-2427,829,1498,334
766,-1813,2092,1580,-1747,-471,-884
767,-464,-2615,-4476,-63,-297,-341
768,-584,-4513,-2045,486,-731,-1159
769,4086,5905,7048,-896,17,-469
770,-4544,7695,-3547,926,-1862,1387
771,4388,-7619,7839,1880,807,833
772,4061,339,2050,1833,806,207
773,5043,7392,3632,688,-1699,-1755
774,-2370,7032,4864,1600,1865,-1175
775,-7549,-692,6671,1113,219,743
776,-7113,3868,-2899,1906,97,1086
777,2006,-4243,-5722,-928,79,-1890
778,-7452,1872,-4951,-232,-773,1764
779,919,-4650,5419,-226,573,1311
780,4801,4355,3584,715,-134,-184
781,-6764,-2826,-3497,36,1825,-1214
782,-251,-7013,6645,-758,147,218
783,2363,-3285,6473,1440,-1965,503
784,-6313,1341,403,245,-582,310
785,-2907,-5768,2398,1902,-169,-648
786,806,-5556,4022,-958,-1820,-1818
787,-3184,6496,-2827,37,-972,936
788,4832,-6196,-4616,-330,-10,-1543
789,-2588,953,3355,37,1183,1510
790,6241,1973,7593,1402,-1081,1514
791,5184,6754,883,-1327,761,-1598
792,1115,-1054,6287,1397,-834,1440
793,4683,2457,-4153,-1977,-440,-226
794,-6137,-5920,4855,-825,1770,-927
795,-6411,5308,4226,1214,-1896,1047
796,6849,7920,-7596,-1978,841,-936
797,4415,3561,6245,-108,-468,1465
798,4061,-6489,1274,-64,-1853,642
799,-25,6987,2575,-1430,1756,622
800,2626,-6987,7729,-498,-1079,343
801,-2810,-1716,2533,-584,-1559,-1991
802,717,-5815,-7901,-1556,-741,155
803,-2153,4083,6217,-924,1392,961
804,4732,6447,-5589,-879,737,269
805,-4223,366,1408,1731,-1151,-1529
806,4948,-743,338,1795,1979,1936
807,1718,4059,-133,-266,1153,28
808,-5795,-6496,-6309,-396,1969,-1917
809,-2335,-2457,4748,1990,186,-277
810,7153,590,7271,1416,1006,1391
811,5321,2206,-6174,-1194,-688,1318
812,-2741,4109,-4554,-1406,921,-1027
813,539,-5268,4120,709,1625,741
814,-1723,-6006,-3113,1333,-148,-237
815,-119,3882,-408,-1789,1804,-1183
816,2016,4862,-2242,-793,402,-412
817,6690,1734,4675,-1111,640,-909
818,-5422,3816,-7669,-310,1670,-1658
819,1342,6766,5193,995,1476,1550
820,5333,3570,4606,-1481,1083,-1687
821,-6949,729,1895,1608,-309,1416
822,-110,-4360,1164,-914,688,1382
823,-4469,3585,-4893,1493,-1853,1274
824,5083,-7683,3698,794,-151,-1990
825,-7698,-5246,7265,-202,174,-320
826,-5493,927,-4016,939,-1458,1630
827,-1309,4270,-6417,1758,754,11
828,-6508,2617,1450,1681,450,1846
829,2023,5992,-5019,-1827,-669,139
830,-6161,-6000,7112,-264,-1562,1258
831,-5019,5150,6715,-1775,-764,1130
832,-169,22,-1053,467,1472,1068
833,5102,72,4224,-747,-1096,196
834,-5527,-6526,-775,-234,-1271,-1391
835,-193,3679,4784,1128,615,-1317
836,6500,5215,4057,-1036,1812,-1059
837,-7423,3957,5290,1787,1118,694
838,7129,839,7641,-115,120,-1164
839,3589,-4518,4166,851,-1117,1635
840,-6001,4725,3735,1088,1525,1361
841,-1214,3011,-299,-12,1113,-510
842,-1669,2422,162,789,-1471,1526
843,3564,-196,-3694,-919,655,86
844,-5589,-5435,-2264,1274,-1623,1663
845,1679,5034,5486,1127,1860,1448
846,-1292,-5732,-7065,-244,1015,-144
847,2001,-399,-7049,-1229,-529,-1502
848,-5788,-2172,1294,1404,1994,1535
849,-5452,-450,6891,-1665,1687,1317
850,-7329,-4456,201,887,277,1717
851,311,7035,-6490,29,-1595,997
852,7592,-223,-6163,-474,-546,-563
853,-7419,-982,7925,972,1135,-399
854,1932,5418,-1088,-1077,-856,-463
855,-2462,6238,2612,-811,482,-1695
856,146,-4777,-6617,86,-186,920
857,-4661,-960,-6177,1770,555,-1384
858,-4495,6504,442,386,128,62
859,78,-7041,-2256,-1643,-767,1761
860,-2703,-4779,-789,1029,-415,-1815
861,-2590,4059,-1651,287,1256,-1667
862,1695,6508,4034,-1063,-181,-1598
863,-1627,-2953,4618,247,-383,1594
864,-4566,194,-7504,1801,-1762,365
865,5364,5176,3207,148,-1003,-1695
866,432,3532,-294,1202,1210,-615
867,504,-4796,-632,-278,1175,-1798
868,-3145,7166,-3838,-1731,812,1279
869,-6354,-5538,1549,1196,590,-554
870,-6954,964,-6599,-1552,1720,-449
871,-6936,1152,-3327,960,1982,-500
872,6592,4557,2682,-86,-983,242
873,-1514,-900,549,-1248,1810,-4
874,3919,2248,1908,-1097,-1009,1814
875,-567,176,2358,-1625,-613,1824
876,-1057,-3789,-4750,1065,1934,1500
877,-3658,-4035,-6999,398,449,1047
878,175,7588,2941,-1772,807,1919
879,5037,516,-5993,-1259,982,714
880,-3261,-5238,-2760,-1946,-1176,245
881,-1934,2923,-2867,-1978,-468,-1353
882,4810,-7975,2713,-1203,1550,593
883,-7501,7511,2400,-853,1391,1113
884,-677,7464,-7560,1280,-956,1995
885,-3870,-6222,-837,150,-406,561
886,2492,2684,5606,-1173,29,-169
887,-7747,1394,7261,-782,-1283,1532
888,-6827,-7129,7075,-166,-272,1830
889,-16,-2084,5945,486,234,403
890,-6157,-836,-3614,990,-1035,187
891,2109,1925,-5968,-413,699,-816
892,1649,388,-1998,-643,1008,-1372
893,-4671,-5082,-1829,1081,1398,-1625
894,-3973,6803,2785,1886,1452,455
895,6650,6130,-6759,-527,1258,-300
896,7089,-2138,-1941,327,-1816,1068
897,2409,1734,5265,-1578,662,432
898,-7729,-4288,-2023,-904,-214,483
899,5116,-6898,-683,-1923,-1510,532
900,-1203,-6255,-7846,125,-366,-824
901,-6789,6047,2477,-380,-508,38
902,2774,-7037,-4990,55,-263,1588
903,-4516,-81,-4666,497,158,-57
904,-5540,3578,-7158,1785,-621,-1394
905,-214,-3119,7896,722,1402,-1563
906,-2122,-3264,2468,-1227,-1876,-469
907,-780,-7729,-5072,514,1390,809
908,6099,-7357,-7452,-663,-745,1757
909,-3932,3302,6598,503,1415,-337
910,-7698,181,4654,697,556,1397
911,-2799,6647,6276,1520,585,829
912,6462,-5095,884,-1865,690,1315
913,-1127,-7960,-7499,1221,-364,-1652
914,5159,-4725,-1851,-771,850,-1446
915,-7779,7531,3439,-1478,136,-1287
916,4542,3331,-3828,-1067,-657,643
917,-6822,-492,7325,1555,941,-864
918,4765,-1128,2475,1936,1307,155
919,6272,7399,3059,230,309,-1307
920,700,7376,4238,1076,-1994,794
921,-6317,-1926,-835,251,-2,-297
922,-413,-127,-7433,-1117,530,1585
923,925,1156,-2350,1052,485,1333
924,4918,-2833,7301,260,-1301,-1491
925,5588,-668,-3540,78,-1682,-1429
926,5748,5880,-5746,-178,1643,187
927,-5222,-4127,5234,1512,-1023,57
928,7775,7044,-7138,1251,-1742,-1413
929,5877,1162,-3878,1942,-1663,-118
930,5035,5189,1163,-1759,-1699,1793
931,-7866,2284,7938,-1622,-848,208
932,-5628,-4341,7003,1614,-1950,1232
933,4037,-2484,-5185,-117,-1516,948
934,3750,-719,5883,225,1031,-1592
935,5920,4979,7775,-1970,1427,-1204
936,7774,-52,2632,1285,1549,1824
937,-857,4438,2154,-1378,1936,1292
938,6182,-360,6268,-824,870,-129
939,-4000,2127,-21,-420,205,-1435
940,7162,1715,1921,-1031,1162,1691
941,5850,6526,-4629,-1131,-1821,-308
942,2800,6809,7479,1821,1929,1594
943,4229,-7572,-5664,1277,-504,-941
944,-352,-3864,-4403,-442,559,1953
945,-5503,3356,6298,1346,949,230
946,-1191,5318,1931,-347,921,861
947,-6840,4903,-4582,-1405,915,265
948,-1746,6659,1226,1367,-998,1884
949,4953,-3956,-5969,1357,-1611,-1666
950,-2119,3791,-7942,-1457,-285,-511
951,4148,7716,-4652,-1760,-1560,-1995
952,5672,-5938,1113,377,-76,-1575
953,-7947,3819,6054,-392,-643,-846
954,5894,7442,3770,756,1238,-1371
955,-2954,-3665,6161,1968,1281,-151
956,-7242,-7879,-867,29,-667,-1619
957,2119,-6316,583,373,-1304,-1128
958,7218,804,1493,1589,-1543,1290
959,-1397,-3040,7813,-294,1237,-1050
960,-3474,6380,-5247,1331,1635,-1747
961,4314,-4373,-5722,-929,1097,-876
962,-7725,-6436,2347,-1791,1967,1194
963,1484,-4799,239,1103,1690,-1380
964,-3148,1272,4269,134,-1209,1982
965,2713,-6866,-3842,655,1606,657
966,745,-179,861,847,113,-1117
967,1082,7956,-1460,-582,-1379,-1913
968,-4309,-3442,-6379,997,-1811,-342
969,5476,-1395,5893,1812,1158,1756
970,-2622,5133,-1897,-1313,430,1941
971,6463,1040,4884,1744,1450,-1977
972,-5158,6822,502,1948,-1278,-972
973,4835,-159,-5834,-32,944,182
974,7206,-3432,4388,729,-1551,-488
975,-1878,7664,227,1465,-423,867
976,5113,2551,5068,-1226,-970,1711
977,6908,-7633,3575,-846,-169,1007
978,-1657,-6738,6629,388,132,-1491
979,7694,-5113,-4066,-875,1754,1720
980,6199,7396,7258,-1634,1007,-1848
981,-36,7575,-3907,1857,-1443,524
982,7317,-1106,3448,-625,-1225,-288
983,818,1184,-156,1402,-279,-1449
984,-5676,-2740,-5511,-851,1217,-1767
985,5137,-4228,337,-339,-1138,1399
986,4514,-6291,-5914,1878,994,203
987,-4720,-6074,2331,-531,14,235
988,-1366,-7714,-7128,-623,813,-1808
989,5193,-7921,-4155,-751,-1926,1004
990,-5298,-5350,4491,-1375,155,-345
991,-7814,-9,-5346,948,-290,491
992,6977,-1713,-2861,-983,807,1969
993,-1153,-2870,452,401,-1037,322
994,4078,1475,345,474,894,1050
995,4593,5331,-5392,-1453,-117,767
996,-287,-1384,5207,138,904,292
997,-1468,-4084,3628,-37,-1334,1205
998,6319,7246,-7668,-1782,-653,684
999,-7780,-848,1520,-268,607,1848
1000,-200,4255,5049,-1411,681,1349
1001,4828,-4439,5657,773,-356,-1727
1002,2819,-2852,4000,-1995,-743,-1948
1003,5367,2379,-4622,-559,1668,1448
1004,546,5432,470,-444,1141,-929
1005,-7475,-4382,-5774,1990,-1550,768
1006,-3961,1111,3108,568,-59,526
1007,-527,-2884,1808,1594,499,1073
1008,1050,-935,3395,1795,-1765,-1434
1009,-6212,-2861,1099,-1666,-1403,-1195
1010,4209,1220,438,1621,-1201,-727
1011,-4017,-7116,2225,1392,490,-1609
1012,6211,-6226,993,-1953,-974,1690
1013,-2314,-6944,-982,-1716,864,-418
1014,-6286,-19,5173,920,668,919
1015,3984,-5819,6001,734,1188,1592
1016,-784,-3231,1089,-204,368,345
1017,7067,6761,4732,1373,304,-1719
1018,7497,6383,5771,956,-1590,1440
1019,7074,5002,5836,1599,901,-43
1020,-4373,5147,899,1560,-1102,-1948
1021,7573,-2099,-3403,13,116,1716
1022,2985,-4959,-2514,1802,-1723,337
1023,-2608,3971,-3589,-1409,167,822
1024,-3933,3864,1370,-1365,-1575,-1169
1025,-6424,4106,-1787,-335,1278,-1177
1026,-4992,-2601,-7517,-848,1656,-179
1027,-7488,1968,3118,1211,371,-1641
1028,-2830,2683,6199,-1891,1604,357
1029,3730,-7743,-7893,-1401,642,-172
1030,3084,-3711,-2416,1650,-1196,-1722
1031,-4030,3328,-4706,335,-1180,-375
1032,-4806,2311,624,-1192,-493,-1424
1033,6285,-2212,-5255,-174,-1517,1064
1034,3353,5302,3181,-807,398,951
1035,6978,-7193,796,76,-411,-123
1036,-1264,2761,4066,-418,747,-268
1037,2600,6865,6245,-1326,328,140
1038,-5891,1414,4477,-126,1087,747
1039,4500,1611,-5590,1911,1041,-831
1040,2692,3678,-2967,-1557,1321,-502
1041,508,-4540,202,-1631,-942,-646
1042,-7170,1721,6303,-396,-856,-296
1043,-835,7720,-4201,-1741,1971,-373
1044,829,5106,3845,538,218,-1802
1045,1074,-4783,7416,-934,-934,1769
1046,-2879,3358,94,-829,-255,-105
1047,1670,1525,-2879,440,-20,-832
1048,2099,7691,-6370,-1568,802,-691
1049,-6806,394,-3365,1646,1480,1440
1050,-5105,-396,-5729,-1821,-901,-867
1051,-1152,-1239,-3339,1862,319,482
1052,-6495,7987,1081,1779,-1154,-1696
1053,-3830,-1766,-5097,1410,-524,868
1054,-7250,-6863,-2944,-483,1796,-436
1055,1479,6393,4649,-806,-1680,-1029
1056,1917,7174,624,-1675,1663,1382
1057,5823,-4386,5485,-924,952,1146
1058,5145,-5173,2747,-1038,92,1024
1059,-1811,-6426,2121,-1808,-880,1073
1060,-2405,-6843,5145,-1309,1601,-1187
1061,-1981,-6787,3386,1159,-435,1412
1062,-4534,-6700,2039,1262,-1166,266
1063,2183,-1313,6794,1541,-692,-1173
1064,-2819,1669,-5760,-1961,-1653,592
1065,-4943,-7847,-5943,-1203,199,-997
1066,-618,-3538,-933,-1119,475,400
1067,3509,-5751,-1065,194,461,469
1068,3218,2650,-2306,1187,1140,554
1069,-6307,1400,6831,536,459,1480
1070,4595,-1749,-819,-976,-44,82
1071,18,-7709,4461,809,874,-534
1072,3091,2784,2967,1239,-606,-1167
1073,-2080,3909,-6177,1607,1134,-1576
1074,2284,-1568,-6291,-1404,-431,-1769
1075,4573,-1615,7726,731,1762,-1214
1076,-1262,-7288,-7989,-613,1200,-919
1077,5816,-4837,-3514,-706,-876,612
1078,-2707,6299,-3842,-487,-505,-876
1079,-2142,-6445,-7610,-742,-1578,-145
1080,773,-4636,6475,-1665,1757,845
1081,1704,170,-2436,1811,687,1186
1082,7889,-7938,-473,-978,1949,849
1083,-6065,-3026,-4073,404,1332,898
1084,-6526,-5603,6133,-941,629,-339
1085,-1341,2953,-6477,846,-788,-467
1086,-461,-2469,320,-1424,-1526,1242
1087,5150,6810,5923,243,-1491,-1110
1088,6573,-5443,6575,-1299,-397,-1107
1089,5932,6677,-944,1976,1943,-1144
1090,-3121,-2619,7212,-1024,1982,-899
1091,-2978,3094,-1070,-594,-1041,-133
1092,2911,4500,4518,1724,-1114,-1992
1093,6495,6330,2780,1370,659,-1848
1094,3150,813,78,-1255,-396,-1635
1095,5910,-6058,1445,-1867,-648,-407
1096,-5120,-7103,820,1889,-1751,395
1097,-4523,6259,-888,688,1711,-1965
1098,-4060,5425,-2210,834,142,596
1099,-1232,801,-5150,-1675,1254,134
1100,-6378,-6478,-393,-423,644,-860
1101,-1536,-5239,5157,-363,1769,-1313
1102,-1083,-3962,-3236,-1858,-465,385
1103,-5547,-895,3287,413,-496,-569
1104,-634,905,-5009,-369,70,-1604
1105,3049,-5260,-6669,720,-1695,1722
1106,4870,-1117,-7066,-1141,-205,69
1107,-6434,2604,1033,-734,-1394,-1302
1108,-6382,2126,-7355,105,239,437
1109,-7530,4282,4505,-749,-1449,1588
1110,3302,-3724,2210,-703,1564,1311
1111,3835,-149,1944,-1348,818,-1310
1112,2645,5286,-5195,509,1700,-1706
1113,-3447,-7501,1514,-115,-1084,871
1114,-4136,-5060,-7232,1592,-1707,-869
1115,5761,6099,-7211,1886,460,1466
1116,-479,-7860,-565,-1574,-1630,-444
1117,4817,-6359,-2613,972,-305,-1999
1118,-5342,-7483,-2742,1759,-569,-1195
1119,-5912,1883,-3730,-1167,1179,953
1120,130,-1514,1806,1031,-1378,-1803
1121,7486,-6145,35,1400,419,1789
1122,-7559,-1096,-3225,-49,-1039,878
1123,-1352,422,-333,-993,-1740,626
1124,-1570,7054,6142,1587,100,-1612
1125,4976,2164,3896,-1384,159,-717
1126,2653,6630,3516,-318,383,1390
1127,4459,4476,1966,-1525,1389,516
1128,-5804,-936,4128,-1113,-1803,-550
1129,-7788,4801,934,135,-12,856
1130,-1839,1538,4760,-1161,672,-505
1131,6506,-7171,-3798,1196,-109,366
1132,6126,-4766,2035,-696,1420,-1512
1133,7968,-4529,-4670,-92,221,1734
1134,3380,-1416,2453,1517,1104,-1740
1135,5139,-1550,-7734,-1680,570,688
1136,-3895,5916,6964,-528,89,939
1137,-1160,5197,-5518,1787,608,1233
1138,6469,3029,1746,1509,1457,-1128
1139,-6679,-6240,-1038,-198,1180,-1384
1140,-5577,7155,-4447,-726,-1485,-820
1141,3529,-701,2964,641,-359,526
1142,-7616,644,-1633,1409,1485,1516
1143,6762,2574,4369,1718,-355,1173
1144,4693,7308,-591,1622,1831,1651
1145,4102,7957,5360,1831,-1282,1968
1146,-1083,4648,7753,-1793,181,779
1147,1612,-3139,-1734,1094,746,1994
1148,870,1016,-6348,-1480,694,124
1149,-4147,-2427,5634,-338,654,-1273
1150,5589,-2739,1384,339,1088,331
1151,-2801,-1271,-2351,995,-1728,1976
1152,5806,2906,5417,-1783,828,1968
1153,-4599,3240,-2825,1216,462,1022
1154,5734,3659,4252,1486,1610,1961
1155,-2969,641,-6147,-413,-1909,1161
1156,1030,7554,3011,-27,1440,-583
1157,6513,-1253,5850,1250,300,-887
1158,7267,-7244,491,-266,-1922,190
1159,-1859,-3509,-858,-332,1116,641
1160,-3952,1618,2207,-274,712,-1590
1161,50,7831,5390,-1349,1851,167
1162,-3600,-2293,-6482,615,-1624,1183
1163,4421,-4635,430,-928,106,665
1164,259,1819,-4693,733,1780,-1101
1165,-1760,-825,-2725,-832,-308,-1360
1166,-2419,-3459,5785,-1513,940,1246
1167,-2599,4688,-200,1598,-1530,423
1168,-527,5422,2976,-249,1114,1769
1169,5760,-4307,3151,-1629,204,-1137
1170,-1782,4020,-1542,-1022,-803,156
1171,-877,5614,-1538,-47,1749,-549
1172,1760,-6448,-4865,-24,1940,-1846
1173,-7039,1313,-5694,-624,-1762,359
1174,-992,-6283,-6699,-745,-1070,-1426
1175,-7102,81,-1088,379,339,-1543
1176,1030,-6232,7016,-1267,-943,1851
1177,-2639,7865,6588,-1649,-1780,1969
1178,-4369,-3981,-1594,-220,776,-338
1179,-2501,-4328,5173,-894,1244,1117
1180,4982,-3959,3986,700,144,5
1181,6721,-236,4127,-356,1819,328
1182,-3499,3873,5483,-531,1882,-458
1183,499,-4949,-4797,-548,-430,-180
1184,-5251,-3353,5501,516,1873,1068
1185,2845,-6729,7025,1126,1732,1068
1186,5067,6949,-1918,950,-250,-887
1187,1168,-663,2361,1704,-1378,-94
1188,-2449,-3297,4634,1143,-1187,-447
1189,1935,1699,-3014,-1595,-1149,-149
1190,-1987,-1874,-2510,-1058,285,-506
1191,-6117,-1636,3903,-585,-1805,1288
1192,-1218,4519,3326,891,-223,-1989
1193,7951,-1030,7017,1574,-1581,-1774
1194,4792,-4406,-3424,-239,-1819,1611
1195,-2249,-4697,-7610,-1251,-933,-958
1196,5534,7417,-4735,484,1136,1904
1197,2893,7951,6237,740,-1419,-1119
1198,-7860,-2973,5239,-1391,-1437,-638
1199,-7581,4143,-1590,-691,-1066,1633
1200,-7217,2593,1881,1992,49,-131
1201,-1812,-6764,7113,882,-1777,1680
1202,1354,-3630,-5073,1652,228,1497
1203,1006,485,5047,450,-1039,-526
1204,1678,-5459,-7950,817,-194,-651
1205,2969,7621,1649,975,-1267,-1115
1206,-1661,-1975,-5060,1713,1412,1081
1207,-3624,-4420,-7717,146,204,1816
1208,3318,-7456,241,-1923,1051,244
1209,-2549,3447,1498,-1747,-1499,196
1210,-7307,-4552,4407,-1491,-293,1905
1211,5802,-7946,-3496,-444,620,1323
1212,-2725,6187,7201,-1782,1553,134
1213,-7961,816,2022,-820,1410,345
1214,-6601,-5479,-7060,-414,-1624,-192
1215,-5239,7687,-7545,-1413,-1746,1975
1216,-5642,-5568,1619,444,430,-959
1217,2291,6829,-7985,952,-1617,-1393
1218,-2952,-6211,-7018,1293,890,-284
1219,-7355,1750,-2468,1950,547,-1751
1220,-1728,-2603,19,-1862,847,-448
1221,5409,306,2578,-1282,-1609,1395
1222,-6699,1202,-726,1062,-511,1611
1223,6588,-4982,6534,-6,1415,317
1224,7005,6528,538,-1174,1480,862
1225,-1425,2629,-713,1317,906,-1799
1226,5164,-4176,3258,-1362,-1367,987
1227,-5854,-3604,-617,673,1243,1968
1228,-5079,-2823,-4510,-792,1058,-808
1229,-7980,3728,2420,429,-604,-1536
1230,2802,-3624,209,-1844,850,-1441
1231,4976,-6375,-4770,705,-136,319
1232,7433,5980,2594,-1614,1957,1459
1233,4657,239,4170,1239,407,1424
1234,-1510,-6354,-52,-373,853,-931
1235,-6302,5929,-550,437,-1286,-596
1236,2391,6044,4324,1232,-745,1939
1237,6840,5986,-1085,681,174,-921
1238,7692,-751,-6563,-279,1421,-1494
1239,-7112,3583,-4010,-125,-969,-978
1240,3491,2879,-6753,1230,1109,1579
1241,-7492,4728,-5318,-605,-842,219
1242,-2844,-5624,-5227,1995,1204,-1544
1243,6024,-1252,5967,-1344,-398,577
1244,6119,-5096,-76,991,1527,-1072
1245,6616,-5494,7981,-883,1267,779
1246,4961,3214,-2223,-1586,-655,522
1247,3929,-6771,1892,406,-1582,-1827
1248,5739,7037,-7055,-1638,1571,1059
1249,-4008,-2620,-4302,-898,517,-80
1250,7093,6338,2982,1420,-555,1851
1251,7525,-1641,4566,-1774,-1306,1070
1252,3739,-1355,3048,610,1702,-1313
1253,-6865,4873,7820,614,-1443,-253
1254,1862,1770,4973,-79,76,-1311
1255,-7889,5405,-654,1499,1024,-1185
1256,-2018,-808,-4848,-187,87,883
1257,2618,2923,-7749,825,1756,245
1258,-4572,2587,-2983,-12,-496,286
1259,-3861,6397,3345,-26,-1712,1994
1260,-3095,5691,3135,-1034,-547,-485
1261,6291,6669,4526,-1054,1093,1032
1262,-3863,-5282,2233,-1351,-779,-500
1263,2427,-3253,-7235,-1734,-1660,-394
1264,4803,4625,-760,-46,-37,-506
1265,-3283,5063,-426,1269,-767,-1533
1266,-4766,384,-3934,-662,-1280,140
1267,560,-4014,3174,983,-1861,154
1268,-443,-81,2460,-835,1549,-1059
1269,-1453,-4595,-7615,1275,-1455,-82
1270,-5984,-5207,-6377,989,965,-901
1271,2074,615,-1503,-837,1896,1126
1272,-5983,-642,888,189,569,27
1273,-5012,-2407,-6528,1029,-1224,-1866
1274,-4717,798,2821,-528,1484,-373
1275,3494,4794,3798,-625,1297,-163
1276,-4560,-4195,2956,-5,143,362
1277,7536,-1448,-2969,302,1572,564
1278,-2625,5610,2043,-354,304,-1135
1279,6970,-5447,-3088,-1555,1706,1462
1280,3542,-6349,3279,-312,-154,803
1281,-5927,-2577,-1582,293,-1087,-846
1282,-2844,-6347,-6961,-789,-1386,-684
1283,-630,6093,-7212,-173,-1980,971
1284,5784,-4701,5458,1118,571,743
1285,4116,4350,-4268,555,1611,1696
1286,-1820,-7530,-4223,-1398,1453,-573
1287,980,-5185,-3819,1316,1265,-1121
1288,1748,5120,5578,-1894,795,1178
1289,-449,-5061,-3623,-684,-1010,584
1290,469,4227,4460,-860,-1044,-4
1291,2322,-7348,-7763,-684,-1290,576
1292,2326,-7767,7466,-1306,116,-460
1293,-6975,5504,3943,1222,-1424,976
1294,-517,-7380,-2898,-1831,650,42
1295,5855,-6579,6142,747,696,-282
1296,-4573,-5341,-5148,1814,17,-1082
1297,3057,-5691,-7731,-1225,-558,-40
1298,7621,-4705,-155,-490,-145,-1463
1299,-6010,-1471,-2082,24,206,638
1300,5891,882,-2415,1671,1674,-484
1301,7044,258,-3665,-521,-528,103
1302,-6659,3159,7828,-1689,194,1792
1303,7304,6054,5738,-856,498,-1059
1304,647,2743,6042,-1784,1995,330
1305,2100,-7629,992,-7,1304,-281
1306,4790,-7601,1253,-476,-595,-1141
1307,6286,1789,7912,307,640,-1236
1308,3602,7452,150,-1294,-1712,1922
1309,4747,-7278,-262,1760,265,-1218
1310,5021,6039,-2970,1853,-1794,843
1311,-2146,74,-5728,-629,-1350,1046
1312,-6873,635,-4354,1796,1433,-1032
1313,4522,4074,-7714,1051,367,-445
1314,-6665,-3508,4700,-309,-4,-1937
1315,1759,-1666,6281,414,-1417,1975
1316,-2384,-2972,5476,-1804,-914,136
1317,7117,-609,-2238,-1931,245,1176
1318,-1952,2857,-1228,504,-1060,-653
1319,7456,-3080,4142,-1499,96,-260
1320,-5137,5658,5868,1177,1273,1190
1321,2615,-2277,-324,68,-817,-959
1322,5842,-209,954,-997,48,-786
1323,2726,7644,7910,745,304,-892
1324,7401,1256,-7770,1135,-806,-116
1325,-151,-765,-1478,30,-1669,-377
1326,-7854,-2992,-3583,1855,-1240,220
1327,-6774,-2454,4608,-1622,1456,-1334
1328,6514,5311,-2844,1029,1755,1839
1329,4974,2917,1136,-589,1125,-1427
1330,1207,-5626,-577,675,-1641,101
1331,5780,-4971,4792,929,-887,533
1332,-5914,-5214,4205,1154,-1431,637
1333,5970,-1479,-5930,-1785,-977,1645
1334,5774,3765,1342,1728,815,-483
1335,2011,-1580,2277,473,1531,1247
1336,1632,3279,6980,1543,1519,-1933
1337,-3147,-3436,-3177,1497,483,-1223
1338,6942,-2929,252,1140,1416,-1305
1339,441,5329,-3410,1003,-1701,955
1340,62,3878,-1109,-1577,1366,1491
1341,-1689,-79,7961,-255,-1462,1575
1342,4464,-2038,7434,-1270,1982,-1356
1343,6384,4239,6684,-1864,-670,221
1344,-5626,1484,2317,562,-805,-320
1345,7384,-2931,3083,1885,1776,110
1346,6647,-3168,-3582,-489,-1276,1649
1347,-4921,-7265,677,1528,-918,1057
1348,2039,7164,4786,1708,-736,-1720
1349,4720,5950,-5770,1052,-1480,-1433
1350,-1722,741,5377,-209,483,-1683
1351,-1096,557,7928,-635,622,1082
1352,1820,-7287,-5180,-64,1545,-1931
1353,-5119,2307,-3613,1330,-1501,1182
1354,-7789,-1125,140,-775,-334,1104
1355,2637,28,4209,-846,1240,414
1356,4017,5373,2288,-221,777,246
1357,7084,486,-3902,-543,-1510,-1504
1358,-3794,-5336,606,1190,377,-61
1359,2582,-7282,-707,-377,-159,-37
1360,-502,-5367,7080,1398,-912,1778
1361,-7900,2083,-6430,394,1848,1749
1362,7519,6193,-4875,-1161,-408,1946
1363,-2903,-3568,-4636,1924,295,589
1364,-3016,-7827,-7507,924,-615,410
1365,3733,-6471,5946,-1905,-1367,1062
1366,2350,-7218,6890,1795,466,-1954
1367,-2287,1595,6679,-96,-1511,-1426
1368,-4385,1001,-3386,-885,8,-931
1369,-7419,-7258,-1425,372,-726,-599
1370,-3632,4743,-6353,1159,1671,-120
1371,622,5646,-3666,-176,-1518,969
1372,6595,161,-1608,1168,-1133,520
1373,-4485,2996,-7930,356,804,1436
1374,-4473,-6732,7159,-1306,-1340,212
1375,571,-350,7750,1156,346,-165
1376,-3149,-3604,3276,1496,-1028,54
1377,3906,702,85,1469,-1891,270
1378,-4036,3405,5404,-838,1653,706
1379,4995,5383,7221,-127,272,-1709
1380,-2656,-7826,-6096,1024,-1560,994
1381,-49,6280,-681,280,709,-1523
1382,3500,-3504,-3061,995,208,-757
1383,-2384,2591,7264,-1813,-232,1905
1384,-7260,-1371,-5742,-85,-141,-482
1385,-3125,-3253,223,1849,-1012,1081
1386,-3754,-4544,-4062,1019,-1329,-867
1387,5374,-892,-509,844,155,-577
1388,6765,6801,7245,390,158,-1731
1389,4330,-5406,-582,-268,1291,825
1390,-1148,1030,2069,-787,1423,-102
1391,-528,-154,-4161,-443,-234,-49
1392,-4932,-3834,-4244,214,894,-822
1393,1615,-6471,-5302,1962,-1188,-1773
1394,-7935,129,2340,1819,1389,1169
1395,1888,2443,-6616,922,-857,1000
1396,7317,-1860,-5234,-48,-1410,1321
1397,7585,2997,712,474,-1143,1020
1398,3230,-6807,-3203,1459,264,1642
1399,5006,6774,2464,1193,-1684,1399
1400,4606,1327,5219,173,-82,-808
1401,7282,-6401,1528,-1589,589,-1722
1402,6358,-5057,-261,792,-381,708
1403,-2020,-6810,5346,1663,373,-400
1404,-6928,-287,-6889,1541,-1520,-1488
1405,2659,-6831,-5478,-1456,-356,682
1406,5542,-922,348,-430,235,-801
1407,4974,-6088,2609,1167,-12,-1397
1408,-6684,7141,3065,627,995,-644
1409,-5454,2516,200,-1356,1070,914
1410,-2098,-7917,4453,1800,688,1597
1411,-964,-7571,-3716,-47,1920,-57
1412,-2592,2615,-6984,1782,-1111,1793
1413,5202,158,-4930,1212,242,768
1414,1580,-7649,-3544,-539,620,1838
1415,6957,1191,3424,-1296,1628,-1619
1416,1969,-7282,2019,600,-611,-1208
1417,-5740,7114,6444,1372,345,1406
1418,-3181,189,510,-1064,1644,-261
1419,4820,2943,-4864,-1001,536,1040
1420,5,-3120,-2873,-1808,1436,1111
1421,6334,663,7078,-1514,-1017,1682
1422,-5401,-4726,-3833,1172,-558,-470
1423,-1579,-100,6245,-1375,1571,1383
1424,-4663,335,6244,385,207,-1017
1425,-111,2695,-5698,1813,-1231,-1892
1426,-6836,-583,-4582,140,-695,-668
1427,-2049,7411,3762,603,-1598,-628
1428,-2667,7746,-3378,1801,-394,146
1429,-154,2089,4996,-1139,470,-290
1430,-6796,943,-7228,-1411,1909,-93
1431,7011,544,-978,769,-1427,272
1432,-3651,2157,831,1959,-622,1043
1433,4260,7277,-963,-565,-1048,-630
1434,-324,1560,-6620,878,-1617,-1182
1435,5968,-920,5733,-1607,23,-1749
1436,-6205,-639,5342,-1278,1900,267
1437,-7247,3875,519,-1148,1184,228
1438,4016,-2121,-5667,-819,-855,-63
1439,-1029,7309,1044,-83,-172,192
1440,7412,5502,3041,-1050,1278,-383
1441,-499,-1804,-7665,78,-791,-407
1442,-1972,5374,1489,582,1131,-143
1443,-3886,-5966,2504,-1644,-1559,-558
1444,-5024,-4888,3239,261,102,-1419
1445,2466,7805,-4510,-1078,1461,-1226
1446,3207,2933,-5596,271,244,1040
1447,-1215,-5890,4246,-1801,-1432,-1404
1448,-1042,-6062,-7224,-1355,837,723
1449,-6939,4287,-2883,435,-1956,1842
1450,-6821,1210,662,1663,-1198,-1162
1451,6018,2312,1040,-1206,740,-1758
1452,6518,6665,-7304,178,-40,-1223
1453,1716,-6599,2070,1873,-1773,-179
1454,5196,-4222,-587,1411,241,740
1455,-2207,-3102,1856,675,-281,-683
1456,-6710,3979,-2817,-282,-272,954
1457,750,-2980,-4703,-168,833,-258
1458,7833,319,2356,-153,-910,-590
1459,2603,-3616,1012,1520,730,-1300
1460,2201,3985,6405,1281,-517,572
1461,-690,-4924,1261,987,317,-62
1462,-38,6925,6504,-1831,795,1614
1463,1301,-7717,-6240,-753,-629,-1734
1464,-5457,4127,-4039,-1440,-29,-489
1465,6997,-3539,6816,1355,1119,1456
1466,-5851,3612,-4595,-333,-456,459
1467,-2570,1413,-563,-551,1589,-1838
1468,-7264,6736,-6286,-779,430,-396
1469,4859,2796,-4740,-664,-784,-662
1470,-3183,-2212,5466,-1587,1059,-1772
1471,-5716,-3356,-408,-1814,-915,-1123
1472,5112,182,728,880,-1829,29
1473,7768,1790,-79,1994,63,241
1474,356,2296,3783,-362,1515,-1313
1475,-848,3922,-2935,-1764,1026,-369
1476,-1340,6194,2067,1213,961,-1569
1477,3033,4065,6065,192,-471,1580
1478,1896,-2945,-731,1151,862,746
1479,-1138,-2936,6069,1679,-1900,1675
1480,1979,5231,-4804,-1342,-1183,-321
1481,1177,5091,5945,600,-1227,-1035
1482,5016,3105,-1634,1287,1554,-1031
1483,-271,-4570,5965,-1761,-298,-235
1484,-7773,4689,-3123,1315,1378,790
1485,2145,-2659,6669,1849,-336,1929
1486,-2385,4582,-5477,-97,-1573,1124
1487,-899,7203,-3442,-557,-1917,-458
1488,733,6144,-7052,454,1217,1885
1489,-5365,4581,7670,1230,684,389
1490,-4937,753,-1314,-129,-1645,1263
1491,421,-7259,6166,1237,-712,-1486
1492,-2784,-3328,-6238,-1148,-1352,1337
1493,-4266,-1854,2225,-1495,-1918,1424
1494,6905,6518,5515,1947,550,1802
1495,1306,-7684,4165,1443,-1613,650
1496,-525,1772,4796,-711,439,1716
1497,4244,-2890,-5654,492,-945,-1052
1498,229,1197,-7493,-1720,-899,860
1499,3854,7223,-5614,-664,1807,-939
1500,2466,-2610,-6366,851,1787,883
1501,1743,988,-3642,-335,1357,65
1502,1460,7991,4165,-1292,-1180,900
1503,-6998,5430,-2829,-1231,1657,-1919
1504,-111,-5448,-4033,1154,1414,-438
1505,3661,5294,-2896,-891,1156,1504
1506,5977,-1059,7898,1112,-1433,390
1507,-3721,-4401,-2656,1766,1539,1723
1508,5570,7131,6794,-720,-1736,-674
1509,-7381,-5523,-5379,-811,-1296,-774
1510,1221,-4847,6197,495,-430,1105
1511,-7,-7308,311,-1967,-877,-874
1512,7193,-1169,608,-1566,-1456,-303
1513,-6460,5190,4753,1480,-1333,732
1514,-4003,2634,-428,-1615,1263,516
1515,-5149,-4028,7853,1870,1066,374
1516,2158,6003,3683,766,690,-1368
1517,-1046,-3403,4704,1302,-992,1818
1518,-3696,-1484,3771,1353,-1549,-1217
1519,-2191,48,-1470,445,121,750
1520,-4895,4445,-5830,1485,-99,-485
1521,4855,6927,2976,1389,148,-1609
1522,-3079,845,-4507,1008,-799,480
1523,-4729,-7007,-6114,248,-748,-1673
1524,-1563,-1318,-409,-756,-669,719
1525,7458,-532,-4934,822,-461,-878
1526,-7760,449,-4936,-1945,1061,1799
1527,-242,5403,7226,8,-1797,1426
1528,4420,3417,-4453,-635,-883,1386
1529,5633,3676,-5801,-454,-1557,-691
1530,-3510,-6426,-3823,-1573,490,1521
1531,5686,5022,-7196,133,1676,1041
1532,-1490,2353,7850,1598,-305,-1360
1533,1229,7557,2335,-255,374,573
1534,-2832,2486,6500,364,596,-391
1535,-1050,7025,497,1696,1040,1636
1536,-1817,6539,-7451,1455,-851,-1918
1537,7349,-1330,2025,-501,-1225,1186
1538,-5638,-7947,-7394,1548,1642,1037
1539,-7177,5578,-375,1289,1762,422
1540,3388,-3593,7223,-605,-293,1088
1541,-1333,-4973,-285,1009,110,1228
1542,4296,-2555,7212,-81,1653,1832
1543,4322,5909,-5022,1296,-745,-1203
1544,-473,-5834,-31,570,-325,-1660
1545,-3138,4966,-390,4,487,51
1546,6568,-3754,-6740,376,283,-238
1547,-1440,-2513,7366,-1353,-1319,-1202
1548,2181,547,-6056,-1505,-1573,-210
1549,1621,280,-4045,859,1290,1111
1550,-1025,2147,4885,1454,-1654,413
1551,5860,3421,4433,-351,1388,1066
1552,2748,-732,3728,1212,-1409,-1110
1553,-7837,6599,-687,-330,-1998,1756
1554,-2114,6005,-5901,-1707,-582,-736
1555,3786,2943,3148,-1967,-760,1987
1556,-6713,-7524,-2628,1968,1058,707
1557,1006,-5966,-6300,967,1126,-649
1558,-214,-3008,-1185,-1157,411,-1596
1559,7129,3881,-800,-839,1147,1076
1560,769,3181,-644,1716,-335,-1076
1561,-3050,2994,-3461,-1026,944,-61
1562,6264,-4437,2315,-131,1417,-1062
1563,-5588,6577,2093,1904,-1981,-921
1564,478,2397,3210,-1487,148,-535
1565,3159,6073,6472,1152,-1157,-1101
1566,7195,-1386,-932,-574,1482,17
1567,-2904,2056,-5631,1796,1993,1541
1568,7086,-5581,-5353,-954,-1412,-48
1569,4213,-2604,-5234,479,1227,1467
1570,2807,-7511,-947,-1457,1467,-1685
1571,-4273,6595,38,1624,1199,-1791
1572,-1185,3988,-3112,-307,546,-1332
1573,6293,2105,7837,-1178,1660,115
1574,7476,-2135,3309,1104,1607,-1686
1575,-5620,-3801,-4958,1863,801,-1765
1576,-2740,4455,-802,-1998,-1709,994
1577,6204,-4065,7436,475,397,-777
1578,-7125,-260,507,1342,-1288,-1204
1579,-2333,447,5565,-9,-1796,-447
1580,1838,-6536,-365,1653,-1780,-933
1581,-7127,7314,5423,637,-1824,-436
1582,-6527,-7116,566,946,-1360,681
1583,6099,-6213,3481,919,1330,117
1584,-2197,-3155,-4955,371,486,1751
1585,-6419,-4870,-1624,-404,208,1464
1586,-6683,836,-7729,-1517,1056,-1985
1587,-5143,3654,7784,-910,1235,-474
1588,-7894,6207,-643,-1850,-765,-1656
1589,1905,1988,1923,-381,1027,1195
1590,-1793,-5807,2256,-1313,-969,1068
1591,668,-5282,6239,-661,1049,-916
1592,1347,4720,7502,1901,1673,84
1593,-7741,-7844,-1236,525,971,1428
1594,7275,2434,6715,1818,-36,-665
1595,-6493,3658,2943,-672,805,-1819
1596,-4866,-3261,-6239,-157,-673,-1519
1597,-6618,5491,-387,-63,-1262,90
1598,23,-6151,-2461,-508,-1068,1521
1599,-4233,3747,-3162,-1357,-161,298
1600,-997,-1500,5647,1438,-52,1522
1601,-2709,1569,7179,-1994,586,-1163
1602,-3581,3662,-6966,291,849,-58
1603,3425,2588,3380,1529,423,-789
1604,5774,-6759,3146,1643,-1858,-368
1605,317,-2690,-4410,-768,1879,1603
1606,1042,-5562,-5349,-1822,939,-122
1607,-5086,2384,5532,-825,-1964,-233
1608,-1377,7869,6906,1398,-1204,1104
1609,-738,6502,-3550,803,-252,-1756
1610,-6448,49,-1306,-207,1834,-836
1611,6698,-7555,-5030,-926,311,-90
1612,5694,-3548,-3404,-1945,-426,-923
1613,5191,6490,-7104,1578,76,1781
1614,7474,1104,3743,-1095,320,1999
1615,4298,-3402,3759,820,-1216,365
1616,3204,-2956,172,866,393,1654
1617,5059,5873,-6150,-565,-1536,-65
1618,6296,-3562,6395,-1639,191,-23
1619,-2624,-2703,-390,1783,1473,-1455
1620,539,4923,4100,-1823,-1779,-1507
1621,-387,1730,-5917,-9,1269,-187
1622,1548,-3289,5907,461,-1569,-1537
1623,5544,-6781,2365,-1817,1921,-1465
1624,-812,7860,2803,-1356,-1859,-1545
1625,-6811,-213,-7918,612,-358,1544
1626,-176,-6389,7680,-289,-1784,-1882
1627,-2551,1020,5754,1076,773,-645
1628,-2910,-2183,2357,638,-886,-927
1629,-4002,-4328,6936,1288,992,1935
1630,487,1879,6064,640,1066,998
1631,3301,-5658,-6494,-159,-1542,-987
1632,-4380,736,2881,-826,1568,-238
1633,-2376,2178,5490,1715,-67,-959
1634,-212,-7869,7483,-1692,1008,-1070
1635,-2912,4387,391,1503,118,542
1636,-283,-758,2483,-1816,-1383,-1785
1637,4014,-3134,-3587,-163,1318,713
1638,527,5234,-2308,-952,229,167
1639,-6861,6413,7271,-1860,1121,-842
1640,7935,2955,7101,37,1977,-1579
1641,-4241,4244,1040,-480,721,1824
1642,4276,-5217,-3153,585,-1183,1995
1643,-3263,-7078,-7135,-1233,-1602,-1554
1644,1658,-786,6771,-96,-970,-797
1645,-7700,4159,-4706,-642,1601,576
1646,6787,-4148,-1053,1208,-451,-243
1647,2881,6109,-2065,1492,1241,-1869
1648,-1827,6246,-1327,-1777,280,-838
1649,-110,-6439,6462,1628,1874,272
1650,-3600,5679,1984,926,1695,-5
1651,-6024,-6960,-2234,1603,-451,416
1652,4943,3832,-918,-310,-189,-1532
1653,-5622,-3484,5518,1263,-1746,-1031
1654,3858,7972,3269,-1555,-1279,-1848
1655,3696,7794,-6362,-1552,-793,-1284
1656,553,3807,-7299,-1829,844,-1534
1657,7892,1884,4058,563,296,1053
1658,1472,-3785,5704,-1097,1818,-1558
1659,4758,-6902,5910,392,-1191,1904
1660,6159,-3348,4783,-1108,-663,-282
1661,-4408,-182,-6918,1778,-806,-321
1662,-5266,-2674,6120,972,896,1188
1663,2902,-820,-6354,-940,580,906
1664,-2128,7931,-2768,-133,989,571
1665,-4618,7053,6398,332,-425,785
1666,3817,1386,-3264,-1149,-765,-1857
1667,5159,533,-7721,176,-1425,-432
1668,2485,7592,6678,74,473,1457
1669,-5825,-7756,-7946,-61,1785,-121
1670,1867,3209,-3347,1819,-48,-472
1671,3753,7378,6420,186,-986,-1247
1672,6260,6638,-7713,1371,-1836,-1210
1673,3161,3745,3119,1715,1340,-150
1674,-3441,7757,3445,1698,-730,-1577
1675,-7293,6615,-5219,843,-1434,-66
1676,7349,7178,5735,66,986,-714
1677,-6705,2824,7673,1072,-6,1831
1678,4577,3791,-4096,409,-1582,-941
1679,6773,-4081,-4696,1634,-1093,-90
1680,-2384,2575,-7689,1631,-76,866
1681,-5453,431,-3499,1967,-774,444
1682,-3620,-7962,-3300,1723,699,-1431
1683,6862,2642,1031,-1860,306,853
1684,32,-6272,-2141,-878,-1151,-1788
1685,-3332,562,5927,1670,948,-632
1686,1614,711,-1544,66,-1381,-825
1687,-4295,-7169,-910,-1663,-1478,-1205
1688,-4892,6807,3235,1396,111,-652
1689,-5352,-1017,-6672,-179,1385,204
1690,7026,1467,-1538,1809,511,1039
1691,6883,7076,-7367,-551,-1757,-1567
1692,6306,-2752,-1469,680,472,326
1693,6514,-4424,4261,-1302,1724,107
1694,389,503,6473,-1771,774,1182
1695,7565,-2782,-1309,1708,-1100,-1725
1696,-5327,140,-1032,-249,-1921,1487
1697,4213,-3419,290,-1459,1979,1411
1698,-1519,5300,-6992,1451,1809,-1319
1699,-2898,-3798,3062,1498,-1463,-755
1700,958,6776,7968,-1269,-1718,1190
1701,7759,1930,912,-1710,-1298,588
1702,-4274,6954,-5868,-760,-1759,426
1703,3707,-2340,6526,-1682,953,-1780
1704,-42,7900,3944,-735,663,-1576
1705,1319,4316,1689,-305,314,-1775
1706,3108,6925,221,938,804,433
1707,-4291,-1615,-5024,806,1760,606
1708,-4833,391,7622,1770,-557,-777
1709,5480,3059,4305,-1551,-677,-334
1710,1957,1868,-738,-193,1527,-1679
1711,-2444,2692,2669,-8,-1222,-712
1712,1770,3521,6011,-782,-1872,-1118
1713,-2743,6210,-7832,-812,-1474,1428
1714,5419,5676,2835,-1388,1290,799
1715,-346,6241,368,1633,106,-1053
1716,589,767,-5872,-1372,-84,1190
1717,3870,197,391,1376,52,297
1718,4895,420,2973,-1781,1816,-1233
1719,2443,2726,7663,136,1075,-1159
1720,-3545,5736,-4616,-1514,-786,417
1721,-656,3941,-2991,-1702,-424,-793
1722,-1175,7008,-4760,-1417,-1045,6
1723,4864,601,-7203,-1340,320,-426
1724,-7699,103,4857,1102,-1446,1736
1725,-982,-6424,1022,1956,-1870,-1392
1726,-5221,-1136,-5654,-1798,-1911,-1333
1727,-5810,1643,5589,636,-773,-1411
1728,378,-2547,-4275,-565,938,1905
1729,-729,-5749,-6652,-227,678,-1953
1730,5831,-6796,-7452,1186,-862,-941
1731,-6057,-3237,-7718,-814,159,-1248
1732,2984,-5176,6377,-666,1284,1866
1733,-1704,-5973,6275,1440,926,1527
1734,-6350,6140,-1338,779,-132,747
1735,5528,3104,7343,-523,1819,1186
1736,-6010,4851,-4008,86,-1612,-229
1737,-3915,-7603,1972,1244,1070,-1067
1738,3042,2415,-7492,-1827,-35,1883
1739,-1055,-2546,-6950,879,-1970,1477
1740,1976,-4022,-5800,-1827,773,551
1741,6988,-6733,-6326,-1699,346,-268
1742,-4557,5451,1133,623,-1713,-351
1743,410,813,2160,-475,207,1248
1744,-5621,5861,3697,1072,-361,505
1745,-4047,-6828,3915,682,-1962,-1500
1746,6813,6477,4811,-1281,1671,1286
1747,6765,-5244,607,-1412,-793,1989
1748,173,7484,2771,621,1599,309
1749,4061,4804,4672,-602,-288,-823
1750,-1476,-4199,1161,-1333,1127,-517
1751,-3877,1065,-1943,-1128,-742,-108
1752,2586,-6111,-5985,-976,1634,-732
1753,-804,5803,7815,1018,-1770,-1183
1754,-679,-1018,2997,-828,1934,1769
1755,-1880,-6701,-6271,-502,-190,984
1756,-5660,7029,5846,1293,-110,886
1757,-535,7655,2371,1423,-1463,509
1758,2000,4244,321,417,-919,-582
1759,-1553,-4708,-333,-1016,21,-354
1760,1577,834,-1852,-484,1990,-1166
1761,-7507,7992,1314,-457,-1030,-470
1762,7704,-3303,2257,926,-851,-930
1763,-3441,-3725,5074,-159,1218,-1402
1764,1223,-4553,-3048,-1901,-766,-396
1765,2204,6569,5830,-1977,-929,-636
1766,5580,-1115,5050,-540,491,536
1767,-4974,-3732,-2723,1440,643,237
1768,-743,3233,1718,1212,-1385,-10
1769,2291,-3464,5751,-723,1945,310
1770,5089,-3206,5368,379,675,1640
1771,3416,3628,1114,1761,-641,1562
1772,5439,2748,-3469,1040,-1549,665
1773,-6172,5771,4359,-1885,-1619,1341
1774,-3625,7891,-7402,1623,1092,-1722
1775,-886,-1788,-678,-1188,1287,-549
1776,3058,-5707,-1345,1023,-887,-1660
1777,65,1902,5229,613,-1157,607
1778,-7074,351,-891,-270,-466,-154
1779,-1129,-6172,-7608,949,-1798,-293
1780,672,-3305,288,728,1933,1892
1781,4175,-1867,-177,1913,-1232,-27
1782,-6887,-3716,-6548,1857,1155,1774
1783,2977,1398,3276,1516,-1890,-1336
1784,-1018,1028,-1494,-695,-1703,-663
1785,2421,-7078,7742,-1585,1226,896
1786,6354,6701,5245,-1767,354,-1673
1787,-1963,-4104,6629,-1239,1301,-1447
1788,-5284,2503,-6665,-1577,534,-518
1789,2033,2528,5313,-1635,-1077,795
1790,4852,2713,-1314,-963,1614,-1738
1791,-1536,2963,-2716,315,991,-34
1792,-94,-2982,-6204,-44,1021,-1908
1793,-894,-7642,2239,-632,1929,-1672
1794,-1347,1232,-7819,1285,251,-804
1795,2620,-6703,5410,733,-426,-976
1796,-7477,-6199,4120,-1511,439,-1692
1797,4549,-5351,3580,1225,-901,443
1798,1693,5190,-7031,352,-459,1957
1799,-4798,4076,-6181,1270,-799,-907
1800,6574,-4577,6237,-1218,-1765,502
1801,-504,-2395,-3160,1936,765,-1776
1802,38,-6659,-1450,-1777,155,-1308
1803,-6676,6681,2111,240,937,1554
1804,-1928,7462,6676,1070,-267,-337
1805,6769,500,-2372,510,-212,1012
1806,-935,-1723,-6980,-873,-301,208
1807,104,2213,5364,-1643,-896,1290
1808,-7771,-5619,3423,661,-1984,-666
1809,1001,1678,146,-124,-1279,-210
1810,1317,-5049,2550,1822,-251,-726
1811,-7834,2428,-5855,-1788,882,-588
1812,-3228,-7022,4384,957,-183,-1277
1813,5568,-6716,6648,299,-742,-1718
1814,-2683,-6887,3493,1923,-1826,97
1815,-7446,-7891,5193,1732,356,258
1816,1236,3017,4518,-1327,-689,-927
1817,5570,-184,1804,-1704,-34,1147
1818,-4780,-7947,3323,1880,-1740,226
1819,6948,-1082,-4776,1138,325,325
1820,2454,4141,-4691,565,-1427,511
1821,-4971,-5349,1840,1536,-232,-1019
1822,3770,-3310,-1160,925,-902,1249
1823,-1629,346,-6201,-1403,-472,1445
1824,7573,6388,769,1831,827,-1456
1825,7068,-5298,2258,-1699,-860,-372
1826,-6361,650,-6256,-538,-1059,423
1827,-1896,3200,6668,934,-1432,332
1828,-6466,-3086,6789,1422,1737,-1917
1829,5833,-587,-2417,1774,-1825,-833
1830,6041,4478,3564,-1391,-1049,1574
1831,7525,4543,518,-804,147,-201
1832,-6489,-830,6005,-1826,-1645,1748
1833,2215,3111,-7381,-1639,387,-852
1834,-6653,-4067,-997,-1892,1873,549
1835,-1716,-5998,-5309,-330,-1379,895
1836,5553,-3717,-4273,1073,1567,1102
1837,-7085,-1390,-433,184,-1960,-1507
1838,7287,-1967,3734,1581,636,1797
1839,-2329,-4190,590,1902,1187,134
1840,-1420,-3939,-5332,868,-1324,1167
1841,2098,-807,-3635,-1300,-1793,-1744
1842,5669,-5678,2792,-10,1129,211
1843,1278,-6632,7431,444,-521,-2
1844,-6403,-1465,-3964,1012,-1797,1407
1845,-1731,3334,-5020,941,-633,451
1846,6703,-6067,-6891,590,864,1587
1847,6672,-1506,1787,-136,-1804,1085
1848,6686,-364,-7115,1158,-1537,-89
1849,-5855,-4024,-7290,1860,967,-1422
1850,-3204,4296,-3135,1821,1601,-1364
1851,-460,-7965,-6279,-1882,-351,1089
1852,7256,6759,-29,1454,1906,-1487
1853,4157,1733,-773,455,-1008,1861
1854,5321,4881,7764,-578,609,-1982
1855,3872,-7692,6873,1199,1284,-809
1856,2830,-4777,4720,-1179,1846,-1397
1857,-6780,-3717,4657,-1319,-62,-1614
1858,4623,407,1003,479,906,28
1859,7383,6813,-1026,-221,1619,32
1860,3637,-4192,1001,-436,-1648,-1671
1861,-930,-6020,-5973,402,-383,-389
1862,-6836,-4227,3321,-958,-1260,-843
1863,7515,5016,2018,901,-1898,-571
1864,-4368,-5401,-5825,-943,-1785,-1725
1865,4136,-4365,-7784,-1798,-1098,-1917
1866,362,-4254,6100,-1044,1413,-1187
1867,-1009,-3796,5071,964,1331,-1313
1868,4057,-4201,-2251,1475,1574,201
1869,-4929,5111,-4987,1880,207,-371
1870,-372,-1885,-4123,-1719,-163,-943
1871,-6565,-1105,-7133,1143,-1775,587
1872,1402,-1438,3774,788,-1898,2
1873,7482,-4235,-3672,418,949,1571
1874,7671,-4221,7434,-164,-375,-1453
1875,-6367,-4076,1087,-1102,1391,838
1876,6419,-3505,-3305,-1294,1491,224
1877,-4292,-5018,-1106,-1698,-1184,-1566
1878,-4735,7181,-2504,1869,-1631,-548
1879,6539,4051,6105,-274,-1823,-1952
1880,-6722,1140,3340,1368,-1828,1412
1881,4124,2495,1510,1798,550,-1516
1882,2404,-1148,4679,923,362,948
1883,-5465,-5530,-36,-673,-1211,-864
1884,1170,2701,-2638,-1537,-1119,-212
1885,3799,2875,6657,293,-1608,-1068
1886,-1684,445,-2718,1515,1561,-300
1887,7464,-4225,-6058,1826,1346,-1178
1888,-7590,7089,-5885,1148,1001,1007
1889,4922,-6137,6923,-682,-1877,-1988
1890,1986,-28,7825,-1871,-1894,906
1891,4687,-3048,7103,829,-818,-1886
1892,5600,-256,-5769,60,-1305,777
1893,6317,-2296,5360,1565,-892,477
1894,7453,-1450,-5233,-1517,1721,-1870
1895,4600,-828,5427,1765,-691,1229
1896,4223,857,2165,1091,-1312,1450
1897,-2995,2410,-7632,-1290,423,-350
1898,79,7475,1677,186,-969,1348
1899,3836,-4079,3950,-53,-1794,-931
1900,267,206,7383,-408,-1746,-1399
1901,2051,3892,2504,966,-867,-1686
1902,6032,-4867,-3612,-81,440,-1055
1903,6973,-4401,-1121,1481,-144,-974
1904,-1904,-5680,-2265,-371,1667,-1235
1905,7121,5426,-7929,24,762,124
1906,3608,-2783,3077,1632,-1622,1667
1907,2520,-6115,6768,-581,1204,-1990
1908,2957,5741,-279,-1023,117,958
1909,263,-5338,2113,-79,614,-692
1910,-7455,961,-1244,-1911,1616,-1807
1911,407,-687,6896,-1658,1645,-1279
1912,-4653,795,4634,1970,-539,1241
1913,-6720,-4740,976,674,719,1010
1914,7397,-5974,-6877,987,121,1978
1915,-6670,-3492,-2361,1479,286,1829
1916,2105,-5235,-4365,241,1478,-1274
1917,7963,-7927,-2824,317,1855,1165
1918,7159,6867,200,1842,1774,-859
1919,7669,5169,-7989,731,188,187
1920,3321,-859,4553,1693,509,-1357
1921,-7149,2922,-877,-1467,-1108,-438
1922,4055,4993,-6984,-1441,-1449,-125
1923,-2342,-3500,-2813,-1931,714,1539
1924,-7820,-601,6126,278,-569,582
1925,6061,-682,-5451,243,-1667,1832
1926,2338,1119,1491,-1018,1419,1953
1927,1336,114,3294,-880,995,-1418
1928,-124,1392,3234,68,-1725,720
1929,-4895,-3164,-7719,1568,-710,1042
1930,-702,7514,2170,1660,-1029,-676
1931,-3940,-979,3367,1013,-1320,1140
1932,-5801,-6115,5641,-1028,56,-80
1933,5917,5990,4050,1358,-1006,1860
1934,6845,7209,6979,372,611,-884
1935,2641,-1008,2779,-144,181,1617
1936,6085,6983,6840,999,1314,1317
1937,3350,-7170,6295,-73,727,110
1938,-2276,1591,-1901,-173,-568,1413
1939,-6266,2206,7379,381,-1983,1470
1940,512,-5333,577,-23,1337,-46
1941,2942,-1558,1646,92,-1665,1019
1942,-7653,-4006,218,740,1943,735
1943,326,-4395,3359,570,-1463,885
1944,7201,1698,-4573,-1613,1737,706
1945,6711,6475,2952,-151,-420,1965
1946,-6984,7029,7019,506,1067,546
1947,6841,7313,1535,-1266,296,947
1948,-4637,3063,433,823,-189,-815
1949,-3538,-2768,3660,784,575,-1443
1950,-685,2872,-7693,-396,719,-216
1951,4529,6169,-2259,1780,279,259
1952,-2920,3450,-1181,-1813,-523,1057
1953,-6440,-1389,1924,1827,-1600,-1493
1954,-5219,-4374,1660,1422,729,336
1955,-563,-919,2532,-800,-290,-30
1956,4736,-71,-6472,-1712,-4,1151
1957,2351,-2089,-320,1881,-1764,-271
1958,-680,2284,831,1696,-1272,-408
1959,5387,-898,6734,555,587,-1555
1960,515,-6017,-3428,-674,1417,-1729
1961,5859,-7507,-4752,-1211,776,-786
1962,-2021,-4152,1401,1334,-15,-631
1963,-3886,-785,-5781,709,1578,-1023
1964,1432,-2220,-5580,594,741,318
1965,-760,-3085,94,-821,635,-1459
1966,-5216,-7366,-5718,920,1835,-1603
1967,2060,5223,-415,1424,1170,-320
1968,5021,7525,1668,-128,1268,760
1969,1051,-635,-1867,-1389,1505,341
1970,7906,-4127,6483,767,-1800,1433
1971,929,-1995,-5532,73,1417,-710
1972,4467,6734,-4390,-825,-1329,-1668
1973,3185,-7708,5938,-539,187,631
1974,-1526,7542,-7511,902,846,895
1975,-7816,-4711,583,1550,996,-699
1976,-7376,2880,4913,-227,-1378,85
1977,-1038,-5078,-4821,-39,313,-1931
1978,4729,-499,-5764,147,89,-1507
1979,278,3207,5364,1112,-36,-53
1980,2656,3720,7114,-441,-1164,250
1981,-7692,-6551,-7181,1444,-1329,-594
1982,-846,-7854,7155,-1671,903,-1888
1983,5627,2888,-6100,1919,-99,1024
1984,3859,-7826,-49,-1869,-940,206
1985,3484,-2416,-7847,-8,-95,-1716
1986,-3281,1088,1797,1719,1225,-314
1987,-7197,5302,1551,-1374,757,1730
1988,2574,-7565,-7250,-1198,-679,-1054
1989,-485,-7941,-6454,-910,-1282,788
1990,-3373,-3888,-4386,53,-1950,-1692
1991,3199,-6462,-3439,-1488,743,869
1992,-2881,-5095,-6692,1159,-556,1622
1993,-5483,5833,-5598,-1325,-1855,-859
1994,-13,-7846,4930,1557,-852,920
1995,2985,-83,-7516,368,1726,1250
1996,7200,-4181,-4411,1153,-819,-281
1997,1404,5376,4052,1741,-1198,-392
1998,-6895,1014,3196,-1748,-1662,-1640
1999,4737,291,-3242,-968,1517,887
2000,5316,2382,-4818,-983,679,487
2001,5093,5083,2214,-197,749,1067
2002,-775,-4638,2596,-1439,-751,-1544
2003,2382,-2744,-6639,1363,-788,-202
2004,-3883,-4583,-1199,910,1123,1614
2005,6572,-396,6605,725,-26,-653
2006,-723,4867,777,703,1202,616
2007,-6000,-1853,323,1421,594,274
2008,6442,-3765,-93,1601,-889,-336
2009,3880,-2620,-4394,-1620,1615,-756
2010,157,-5253,-3755,1277,1384,1780
2011,7278,-7691,889,-1787,403,1284
2012,-3157,2046,7145,-356,1857,-340
2013,5318,1292,4005,-1476,-666,297
2014,-6813,-7809,-1997,1423,1166,-1383
2015,-6593,-5346,-5036,1490,1461,-1931
2016,7608,2800,-2946,-1554,8,-1240
2017,-697,6713,-5706,840,-1479,-1794
2018,-2241,5260,-7475,433,538,-98
2019,-4868,4329,-7148,-1263,21,-51
2020,1142,-4188,3820,-1761,-515,-490
2021,-3963,2952,-1540,-1568,-593,1612
2022,-6432,-3327,5394,205,1006,1847
2023,1736,2966,1539,557,-416,33
2024,2969,-1914,3172,-1340,1003,-876
2025,3607,3161,7284,207,1933,-1954
2026,-7622,5206,184,1834,-1094,900
2027,-5535,760,-1656,-736,-806,-1681
2028,1389,1441,2593,-1978,1844,1997
2029,7209,4727,2673,51,54,948
2030,7138,556,-3247,162,-1126,-102
2031,-7426,-4769,1233,-185,-395,1711
2032,6758,-713,3715,1456,1822,-1733
2033,-7869,-2543,-5968,368,434,708
2034,7516,6053,4994,-603,873,1769
2035,-7037,7355,-7621,-784,889,50
2036,3643,4862,781,609,848,-709
2037,-7658,-6007,1887,1409,-368,-1087
2038,2875,6915,-224,-1831,1842,245
2039,-5140,7073,195,-759,-1725,1132
2040,2713,-2673,-5347,-578,-1448,-223
2041,-2600,-3340,-828,1636,90,1161
2042,7666,-603,-3203,-482,-565,83
2043,3364,1577,5583,-753,-1918,-1911
2044,-3768,630,-713,1660,126,240
2045,1940,-428,-577,544,1534,595
2046,6270,-2290,201,1635,-1078,-1186
2047,-7385,5656,-3800,-1867,-1867,-1913
2048,-2343,-824,5061,-1063,1812,260
2049,1188,6586,7865,763,697,-1835
2050,-1718,5563,-5548,1132,1180,1004
2051,-2952,2304,989,-1963,-974,-27
2052,4935,16,-2227,-558,-1801,-1435
2053,2152,-5472,2630,1324,788,182
2054,7338,-827,3525,-436,-828,1
2055,656,-2261,841,832,-680,-332
2056,-6424,7399,6089,1870,1275,-1811
2057,2278,3538,6273,706,1947,1682
2058,-3732,2633,-3284,-1492,-1616,-1376
2059,-1869,6290,-7057,1108,-204,740
2060,774,-2540,3317,1211,-538,478
2061,3287,-1531,-1363,-278,-1005,814
2062,-7544,-5985,280,1343,-1267,1115
2063,910,686,5253,-578,1901,-1598
2064,3505,-5303,6751,1836,1105,-764
2065,-1472,7527,3,-831,1802,-191
2066,5013,-20,820,1129,486,-617
2067,-5048,-1261,6154,772,-1965,1615
2068,3089,-6255,-1600,17,1126,-1734
2069,7718,4838,-6100,561,-939,1316
2070,-6357,-4049,-3813,-487,-1552,-1148
2071,1835,6694,-2971,406,376,-1072
2072,2149,7406,-2485,-912,-1791,-925
2073,-4362,-355,-3186,662,-1648,963
2074,-1718,-7420,-6868,-1390,-345,1265
2075,-3927,-2977,3296,1324,1728,1993
2076,-3321,-7899,4223,-1764,-127,1298
2077,5896,-7826,-1464,-1995,158,598
2078,-6729,-3278,-6531,637,565,-1894
2079,-1978,-5788,780,-1775,1393,-904
2080,3439,5137,1302,1957,1940,-1283
2081,-1758,-459,-815,163,1504,-337
2082,5591,-7913,7660,971,-626,1938
2083,1797,-1856,-6390,655,-466,-1061
2084,-7850,-2172,5742,-705,-1002,1025
2085,-1680,5161,-6389,-1637,1019,-444
2086,7352,-3948,2828,-245,-112,1506
2087,-6638,-2340,-5242,-725,409,397
2088,4126,552,2047,529,-22,-837
2089,1424,-7652,-2799,-1395,1256,1271
2090,-2772,-4364,-4598,-1906,45,1788
2091,2902,1927,-2609,619,1069,1434
2092,1752,7340,2463,-1142,77,281
2093,-798,3405,-7802,1886,51,-397
2094,1248,293,5528,-493,-762,1969
2095,4770,3075,-5548,-926,265,799
2096,1316,-3719,-1052,1006,809,-1788
2097,-7438,-1419,-2220,-834,1394,-1355
2098,-2408,-6963,-1168,-23,-1140,1582
2099,-853,-2110,-3133,-1125,316,214
2100,-6288,4347,6648,684,-798,-1476
2101,-2963,6863,-3345,-1784,808,433
2102,2480,-4327,-703,-23,80,-568
2103,-3963,-3223,-7825,79,-1810,1455
2104,7965,4315,4382,762,-1641,863
2105,-3373,2215,3821,-1496,734,485
2106,-6430,5029,-4824,687,1292,-262
2107,-7838,1790,1315,-1884,-105,1379
2108,6112,15,-1838,1113,-325,-1984
2109,-1919,518,-6209,-1572,1257,1002
2110,-3396,-3755,2922,-781,1955,-1608
2111,2010,-1956,478,-1466,-1332,1506
2112,7186,7563,-6753,386,-493,631
2113,3636,-7575,-816,1073,-407,883
2114,-7583,-4035,523,-1009,1206,-1852
2115,-4290,2620,4525,1019,962,-457
2116,2300,6914,-5421,-1257,1666,1576
2117,5443,-7311,-3615,1148,-790,1253
2118,4550,-1695,-2846,641,198,-1703
2119,-6576,860,5771,-332,-770,-445
2120,1572,-5129,-5284,-954,175,-283
2121,4440,-6689,600,-1286,-115,-101
2122,-1713,-3283,-7296,285,401,-1151
2123,-420,-1047,1702,-585,-1133,-717
2124,1206,-1860,-657,-1202,754,-635
2125,-131,3297,2492,823,-813,1631
2126,810,6715,-3131,-220,1883,-1660
2127,-2720,1044,-1786,1077,1975,-1524
2128,-4367,1695,6078,1231,-537,-1459
2129,4739,1810,5337,-701,-1017,-943
2130,3703,447,-1283,1820,-218,-1314
2131,4044,7982,3106,-1157,1177,-58
2132,3857,48,-6062,1883,-215,420
2133,303,4876,5043,-609,991,-1075
2134,-4400,-4586,6640,-757,859,885
2135,-4959,1097,-1337,1777,-1015,-1221
2136,-2017,1918,-3103,508,1178,734
2137,-3853,-261,-507,-1415,-125,847
2138,7110,954,7004,1879,911,-419
2139,-7559,-490,-2314,-753,1136,1931
2140,6855,2774,1904,-438,1519,648
2141,-240,2299,-760,-1103,-700,-365
2142,-2059,-156,-5769,-1037,660,-1985
2143,6425,-3916,-2499,844,779,-963
2144,3080,6794,6877,906,806,-736
2145,2868,2599,4362,453,-719,149
2146,1638,1687,-2491,1710,-261,1790
2147,-239,3006,-7216,902,-1571,1097
2148,4368,-3964,-5798,1289,-168,1804
2149,-2539,-1324,-7805,-1291,-1420,1346
2150,-529,-6877,-4177,-1648,-1782,1688
2151,-3984,-5950,7244,1928,1391,729
2152,-3841,6036,388,-1948,-1116,1261
2153,1193,1352,-3362,1909,-1597,682
2154,7719,3972,7892,76,-623,-1586
2155,-6612,-3077,-94,795,1336,-1921
2156,3680,-3689,-7393,-493,-223,-9
2157,-2438,4910,-425,-390,925,-243
2158,6308,1719,-2183,1283,-761,-651
2159,-5462,-877,-6922,-476,265,326
2160,-7350,-2782,918,1048,187,1218
2161,-719,707,-2422,-834,1498,1875
2162,1941,-1798,2120,721,-1646,-213
2163,1134,-2602,5084,651,-1311,1510
2164,-2936,-414,-998,361,1496,-1289
2165,-3778,-7124,3728,245,1448,-1319
2166,4639,-5428,-6888,-225,1442,-537
2167,-5064,6388,-7477,1420,-1945,327
2168,5624,-7324,-7535,-66,-194,545
2169,-6904,-1932,-6978,1529,-751,722
2170,2621,-5402,-11,1432,-1885,-941
2171,1647,1310,2189,1664,-74,160
2172,5108,7049,-1277,1583,-1002,-972
2173,-2464,6984,-6175,-1201,515,-23
2174,5056,4662,5107,1069,-1822,-945
2175,-6092,-5599,5503,887,1868,1218
2176,-3846,-4557,-4980,715,1378,249
2177,7925,-5457,-612,1653,-888,1568
2178,-7866,-3084,-1147,-1549,254,-1163
2179,2890,-1297,1856,1170,-460,-210
2180,142,4977,5040,827,-1489,-457
2181,5961,3039,-3392,1598,-1301,180
2182,4964,-2051,-1960,633,-416,-836
2183,-2268,177,1603,367,1983,1232
2184,-5122,-6139,7084,1116,1479,234
2185,6834,4623,993,129,-317,-1562
2186,624,-3562,4509,-1468,-1537,224
2187,7763,7070,-2351,622,-1020,1301
2188,-7457,-531,-1247,1947,-513,1533
2189,4494,7427,-6453,1040,1471,686
2190,-6674,6975,-5982,-1970,131,488
2191,3088,-1585,5195,1285,355,844
2192,-5516,-281,-6066,-783,500,-1492
2193,-4665,6789,3575,-549,-1638,955
2194,934,-7389,-1989,-99,-877,624
2195,-1480,-1440,921,-1476,849,241
2196,6329,6676,-463,-684,-237,1211
2197,-4953,2607,-4998,1861,-169,-678
2198,2071,-5454,5468,-1555,-339,-883
2199,2091,7667,-4403,661,-1568,1822
2200,4542,4639,5328,-26,199,-1101
2201,-2995,1504,-7100,-37,-1168,-862
2202,-5586,-630,3433,-894,143,-907
2203,-5685,6317,-3079,-1896,1486,210
2204,-1167,3407,1609,1782,-1002,1829
2205,-5741,-4737,97,529,-217,1570
2206,2616,7986,-6486,294,1875,-566
2207,-1259,-5499,7393,1258,-348,-1504
2208,4698,-2538,1231,-354,638,-1611
2209,1983,782,2216,-1471,-73,1075
2210,-7996,-5018,2956,152,-1119,-495
2211,7830,-3345,3406,1798,-277,-1469
2212,-3791,7829,-1641,-170,-1539,-1259
2213,6508,-859,-1655,1811,-1102,-286
2214,3824,-4931,5046,278,-1749,1625
2215,-6386,3291,7552,892,1790,-1507
2216,-2163,3572,2952,-1325,1514,808
2217,-3605,-5731,-2146,-1526,475,-1399
2218,-6295,1000,-1401,1983,1994,-198
2219,-3475,60,7361,-1986,-762,21
2220,-5661,-3673,3877,-984,1655,1878
2221,4649,-2327,-2439,771,-549,957
2222,-7182,-84,7679,-390,633,926
2223,136,6905,-5171,-1419,-1073,-1908
2224,-4370,-5899,-2301,1039,-97,-822
2225,2699,-6647,7795,82,-464,-1738
2226,5320,821,291,883,90,-1837
2227,3585,-7460,-3708,-383,-1719,887
2228,-2058,5542,-3170,770,1146,-48
2229,-2928,-7756,3331,-1869,-1364,-1964
2230,-6591,5862,285,1055,16,1646
2231,-735,1141,-5117,345,-697,-762
2232,-6951,3652,-2729,-1442,-494,599
2233,-3776,-7390,-6908,1179,1795,-1279
2234,-977,-2458,6810,-1928,150,961
2235,-5901,5215,4586,947,-744,1151
2236,7226,-2010,1549,1937,257,366
2237,-1669,-2870,-7629,1683,1313,62
2238,4789,6240,-5070,382,-390,1656
2239,-3374,-4458,-1374,1785,511,368
2240,-488,2650,3593,-444,39,-1597
2241,840,3720,-1695,1798,-400,1666
2242,7985,-1967,-1551,-431,1659,-204
2243,7826,2750,7669,1708,-408,-1407
2244,7409,-804,-4438,372,1269,-1205
2245,7583,5798,-3153,1044,1700,684
2246,-6941,5369,2520,-1525,1145,-1545
2247,-1138,2135,7100,-1453,-330,-1287
2248,-7486,4270,-4202,-1775,1271,629
2249,4381,5102,3942,-1177,-652,1992
2250,-790,-1133,3219,-1319,473,194
2251,2077,1264,-2819,190,803,-1303
2252,5825,7064,-7108,209,830,1710
2253,802,511,-5436,1966,-185,205
2254,-4558,7882,-2780,783,-1039,1121
2255,2384,-118,-6750,-1896,622,-857
2256,92,2767,-6572,50,239,1573
2257,5835,-6241,2581,82,-449,1782
2258,358,-505,6480,1908,-278,-1568
2259,108,-6306,1531,439,720,1296
2260,3952,-3484,-1374,540,-355,1743
2261,-2828,-4098,-3762,-908,-968,-997
2262,5858,-579,-5068,891,-1619,-1746
2263,-3275,-925,7651,1399,1996,-1404
2264,4741,-1898,4856,-1630,-1685,-813
2265,7628,-7148,-6490,1702,1449,1844
2266,3486,-25,-7251,-1148,1265,-851
2267,-4021,-405,-2170,140,-1580,453
2268,1092,-2179,1653,-950,-1983,-996
2269,2662,2647,-7144,-1933,1533,963
2270,-4347,4181,-3677,-302,98,1318
2271,6345,-663,2588,-155,-402,483
2272,7211,504,-5151,-364,-1289,1853
2273,6687,1148,285,37,1011,-432
2274,1579,917,5910,-343,-1686,-859
2275,1651,-3988,-7234,-797,-1720,348
2276,-4763,-1508,2652,164,-1463,-1963
2277,-7655,-3225,4107,178,-370,4
2278,-194,-4952,4110,-1552,958,-1375
2279,4756,4422,-1399,74,1153,-1084
2280,-1348,-6663,-1069,-1517,1046,-1390
2281,2355,-959,793,-275,1632,113
2282,-3319,5478,5156,1583,306,481
2283,6665,4878,-4980,-324,677,713
2284,-5793,2502,6500,-1537,-799,-1582
2285,-4143,-4809,-6865,377,-1178,778
2286,-1362,-2672,-7553,-685,-410,625
2287,4963,-6490,1515,-1266,-79,-1340
2288,18,-3775,7515,619,-1554,-1597
2289,-1037,-7512,-2108,-1813,-1054,160
2290,-432,-2573,4360,-1803,-1866,456
2291,-1445,309,-2638,-1489,-1449,-529
2292,5226,1118,3902,1722,430,-805
2293,2251,573,6371,-1260,-27,1797
2294,-5776,3627,4566,72,-1901,-1320
2295,-2617,-6722,-476,-1951,1462,-1869
2296,-884,5115,-5056,1567,691,789
2297,2673,6794,4994,-1538,-353,-494
2298,4999,-7921,-7018,-1675,345,-1655
2299,1485,4571,-2219,-1854,-225,1351
2300,5468,-6948,7298,-1130,-1267,1101
2301,-6171,178,1934,-314,-1237,1210
2302,5537,4085,-3837,-815,-558,-626
2303,-5867,-6969,-5060,-545,776,-1482
2304,-1603,218,82,1883,-457,429
2305,-4186,4143,-1662,1954,-1210,923
2306,-5093,5161,-7246,-282,-1432,492
2307,1479,-2049,3006,-777,-1392,1520
2308,-7848,-4563,3199,1829,1405,-1209
2309,-5978,-3022,-363,-1870,1586,740
2310,-5872,-2141,-2279,1045,-906,760
2311,-4701,-1843,-1683,1039,-1547,1108
2312,5551,-5985,-2447,455,784,-1812
2313,2751,1206,548,-192,44,-1610
2314,-7403,1555,5218,-350,726,-1417
2315,6481,7717,-3181,1527,-163,-676
2316,-923,-2860,7270,121,-1360,-495
2317,1727,4050,-1293,-1768,-1064,-1682
2318,6713,-1614,6587,-953,1217,38
2319,-497,1896,-4322,-914,1392,1347
2320,-5687,-6215,3596,1624,1670,-278
2321,-1744,3089,6378,572,-719,-1813
2322,-93,-6172,600,-70,-1129,-1417
2323,1414,-5373,-3946,-491,655,478
2324,-3079,2982,-4730,-1031,-178,582
2325,3364,7898,2439,-1908,714,1372
2326,-421,6173,5586,323,587,394
2327,-2437,-2313,1641,165,-908,301
2328,5500,-2861,5094,-1897,1481,-1644
2329,-5835,-3789,-7037,-1785,244,642
2330,-1557,1153,6630,1502,25,1240
2331,2129,-5287,-4301,-746,-934,-1609
2332,315,-4374,-5687,1365,-464,1607
2333,-1141,-6111,5199,239,965,817
2334,454,7171,2422,1441,-967,-55
2335,6316,1472,2097,-1178,1888,490
2336,-405,7845,-695,-450,1375,-1903
2337,4191,6924,-297,-1006,1754,-1508
2338,-1379,931,-4619,1850,1832,1004
2339,-6644,3729,-3450,-1232,1153,-434
2340,-6261,-6283,656,359,-1552,1329
2341,-4668,-2908,256,-566,886,-1830
2342,3493,-4611,2906,233,954,-965
2343,1283,7958,-6795,1624,-1402,-929
2344,1962,-2013,2080,-95,680,500
2345,-6533,2605,-5660,-96,1380,330
2346,3567,-4177,-581,1389,-602,-347
2347,-4305,-4231,-509,483,778,1860
2348,1478,4940,1976,1972,-559,1226
2349,7766,3776,-2114,257,1070,1574
2350,-2912,3242,4666,-360,95,-869
2351,-4742,5919,-4400,248,-703,-242
2352,-5399,-1327,-6623,1628,224,-1071
2353,-14,201,-3702,1476,-298,-1258
2354,4344,3676,6306,713,1426,-1986
2355,-2185,-5266,-6586,740,1390,-560
2356,1712,5412,-974,-479,-1443,-165
2357,4133,5336,4151,1716,96,608
2358,-1768,-7862,5755,-1135,633,-1404
2359,1013,-5774,-2517,1650,1393,1930
2360,7633,-4427,19,-1907,-678,1966
2361,6760,5630,-5189,513,-506,1023
2362,-5925,6344,5861,-48,-902,149
2363,-3033,-5737,5365,-1860,-220,1023
2364,7421,2928,-3479,225,-949,689
2365,5849,-6930,4048,10,-363,18
2366,7074,3754,2744,1767,-843,-1846
2367,-5013,-3292,6851,968,-967,1736
2368,-7708,-476,6578,263,-1820,1499
2369,-1541,-3263,5063,-1480,100,-19
2370,3082,7442,-4665,1475,-1926,1120
2371,3652,6747,5808,-700,-1322,1128
2372,4486,2504,-566,-591,11,-1464
2373,3549,7154,-6211,160,1390,-540
2374,3952,5762,-7039,-1163,1710,-19
2375,256,-1141,1437,660,-1290,1865
2376,-7331,-7664,-4620,-293,-642,-86
2377,2421,-6693,-5943,-800,147,679
2378,-2811,4375,-1977,51,511,164
2379,5910,2344,458,-621,-1941,-959
2380,-3639,-6569,7239,-772,-453,-318
2381,576,-591,-1689,-355,-1342,891
2382,654,-7533,-5366,-1637,693,441
2383,-2437,-5588,6243,-1440,1323,-1078
2384,232,4813,1262,-152,-1733,-164
2385,-1056,1992,-4708,84,-711,-830
2386,4475,-4170,-1215,-885,456,1295
2387,5503,1404,-3041,-1834,168,26
2388,5660,3677,-728,-279,764,-320
2389,-7495,-2841,-5654,1525,1197,-208
2390,-4077,3119,1286,-1277,1939,1823
2391,-3489,3508,-1187,-1241,855,1749
2392,-6572,-1574,-1619,-268,1233,-440
2393,-6824,-3931,-3990,580,-1741,-1486
2394,-1221,6339,-7877,-1556,-1522,1378
2395,-2562,1948,7166,-388,577,-1718
2396,-1065,-4284,4219,-707,-927,1399
2397,6515,-2622,2478,1907,-930,457
2398,4642,-5291,-5409,891,-1298,-452
2399,-3122,-823,6472,-717,-1905,645
2400,-2521,-6641,4838,-473,-930,905
2401,-2349,5411,3291,148,1240,-1744
2402,-3265,-5978,3557,1400,1047,867
2403,243,-5524,-1883,-690,1142,-814
2404,7110,-6003,-6782,896,305,970
2405,625,-1282,-1436,1266,1944,-343
2406,-5339,-3985,4316,680,72,-1010
2407,4543,1934,-4503,1619,-883,370
2408,-3930,-1934,-5912,1938,-974,-1000
2409,5536,5830,-4027,-1007,85,410
2410,-5269,-6217,381,225,-1717,-123
2411,-7215,-740,2726,1568,381,-361
2412,-7064,-3479,4462,-441,1616,1417
2413,-6799,-3278,5493,1895,-1742,-1265
2414,-5785,4560,2722,1742,-992,-549
2415,869,-6808,-3048,1504,957,963
2416,5659,-7660,-6704,-150,-954,719
2417,-3550,2208,-1658,-3,-1987,-477
2418,7324,2148,-44,1267,-1964,458
2419,-1177,3955,-3597,-1497,1044,391
2420,-2298,-3376,-6670,1403,1412,279
2421,-4545,5908,-3694,-1138,-893,-241
2422,7563,-843,7976,-917,1990,-223
2423,-2714,1706,1765,-974,78,-781
2424,975,5525,3851,313,-1973,-1687
2425,44,-2441,5680,-1556,-860,-607
2426,5285,3372,-1376,107,-413,696
2427,-6679,-3731,-2837,1570,-288,-541
2428,2116,-5069,-4547,1495,-918,1621
2429,3483,4014,7961,-1743,-1673,-1608
2430,-4594,5105,3845,-1568,975,1462
2431,24,7422,-2434,-1471,368,-827
2432,7779,2492,-5332,-140,864,-1744
2433,6039,-4893,2989,1612,378,-212
2434,4993,7082,5524,1746,956,-402
2435,-7902,5262,7524,120,-1582,-368
2436,6150,-5050,802,703,-1131,1044
2437,5785,4646,5564,225,-92,-999
2438,2836,6674,4415,1851,-458,-1886
2439,808,6610,-3404,73,1785,993
2440,1143,419,-7845,-1068,79,-11
2441,-4808,-2692,5830,-716,1485,-1219
2442,-764,4904,-5188,-63,-1905,-1472
2443,-3536,-5682,1354,-144,293,107
2444,2737,-4328,1543,233,1426,449
2445,-2542,6671,-7470,-348,100,1443
2446,4207,-4669,585,448,-869,-1493
2447,-753,-5101,1103,930,1687,-757
2448,-3873,276,5067,-262,848,1901
2449,-7059,-3375,6854,1521,1978,-1569
2450,-848,-163,1617,1070,1050,-963
2451,977,-3752,-1385,-1274,766,1425
2452,7143,-4184,5443,1269,801,-172
2453,-6719,957,5412,-421,1674,-574
2454,5606,-2240,-1097,1601,-1178,-1912
2455,-3440,-4478,6354,1829,-1164,-441
2456,7979,6230,-6831,-426,-1936,-1927
2457,5628,-7949,-6596,-462,-989,214
2458,-5126,248,5295,-469,-603,987
2459,-4049,3299,-2889,1954,271,-67
2460,4414,-2561,4155,-1821,-143,1856
2461,-4528,-3367,-7220,1346,-323,834
2462,-4539,-5228,-3206,1226,-173,309
2463,-5204,-1918,5107,-1542,178,1270
2464,5720,1769,-3695,-1841,-221,-1473
2465,-2605,-5317,-4655,-985,1866,-382
2466,3919,6753,-1645,260,1477,1037
2467,7490,5939,110,-1276,1277,828
2468,4141,414,-262,456,-1810,-925
2469,133,-4606,-4901,834,1698,-1754
2470,6398,-6361,-3155,-868,931,1561
2471,-550,5336,4571,1971,1782,-290
2472,6949,4686,6749,1477,1451,1671
2473,-2154,2031,-131,-422,1976,1177
2474,-6722,7006,-562,1004,358,216
2475,-7646,-6017,5571,996,-173,-1946
2476,5667,-1482,6280,-1825,-1602,784
2477,739,4240,947,-1775,1423,-1355
2478,-7246,3989,-3389,-1324,740,1453
2479,-1414,7045,-4072,-1464,401,-168
2480,-722,5670,1574,-215,-833,-695
2481,4458,-2619,6196,12,1313,-1991
2482,4366,-4012,-4416,-442,245,-196
2483,-5132,-4599,-108,1387,823,744
2484,3566,4395,4274,-1282,1213,-1407
2485,-7058,2654,-3215,913,-516,1760
2486,-3330,6377,62,1703,-1566,-1027
2487,-7644,4780,4669,1127,-92,1435
2488,-605,-2764,7891,1150,-649,-737
2489,3735,-2409,-2155,99,-380,755
2490,-2423,-6657,-4908,-1325,-706,431
2491,-6536,1058,7637,1923,-1554,855
2492,3074,-5106,-5005,-776,583,1366
2493,2392,-4725,-6539,70,896,-1150
2494,-7370,6355,-6687,791,-1852,99
2495,6284,-2220,-7014,-399,-1489,-38
2496,-1268,3068,-4191,-84,1734,-153
2497,-1070,-3071,5560,339,1318,425
2498,-1102,2555,2008,-1405,-1115,1799
2499,3655,-2195,409,118,1316,1515
2500,-5427,-2282,901,1534,-1840,813
2501,1644,756,-7671,1836,1894,-1020
2502,-810,7226,1336,-1159,-1813,-250
2503,5560,7315,4,-420,-2,1204
2504,-4911,-5731,-5675,-570,-97,-908
2505,437,-6483,617,-12,-1853,-901
2506,1399,-7256,-3013,1824,506,1481
2507,-5069,-5662,-6615,-325,231,731
2508,4353,1026,-6243,279,-1407,42
2509,1668,5059,-2058,112,810,-1659
2510,-7848,-3372,4833,323,1972,-679
2511,-3623,-3496,-6698,1382,-1005,-1476
2512,1029,1323,-3069,422,1165,1234
2513,7861,3021,-370,-671,-1053,-1745
2514,-651,4707,-5351,1710,-886,-796
2515,-7731,1242,-5620,1805,-703,1656
2516,6350,1847,2145,662,1892,1290
2517,386,-1432,2951,280,-754,-45
2518,-2976,-1457,-6159,-1990,799,-822
2519,5885,-6103,5203,439,-102,-1599
2520,-7250,-3028,1858,-831,1214,-1583
2521,481,883,-2121,-919,1491,548
2522,2243,3667,5712,-1786,872,-1423
2523,5604,-5380,5661,1615,-293,-1554
2524,-3736,-5627,-3498,757,513,13
2525,-7925,-1617,-5695,-165,-1006,333
2526,-5326,-2864,4208,-732,-1709,-562
2527,118,3318,-7771,307,398,-19
2528,-1653,7236,-884,-147,206,-665
2529,958,-1129,-3556,621,-1838,603
2530,3653,-4160,510,1732,-511,312
2531,-6172,6998,-7369,393,1935,1241
2532,-2100,7725,-5213,-528,416,-1593
2533,-1902,-1458,-5351,-1767,1273,1416
2534,-1542,-2849,-403,-441,1217,-768
2535,-1670,1202,2337,1149,874,-785
2536,4497,7668,3777,-1434,-857,1596
2537,2417,-3641,-1251,-1524,1212,-40
2538,-5670,-7826,-302,1681,-942,-993
2539,-6756,-5586,1680,109,-739,-1047
2540,6579,3851,4053,949,89,989
2541,-356,-7923,3987,-684,1845,-1250
2542,804,-749,-3931,-1892,877,-1607
2543,4141,1389,-6832,1015,1267,-629
2544,-2755,1505,4910,-1886,-913,-411
2545,-7754,7535,-5284,-1060,-957,977
2546,3615,5671,3675,984,1596,132
2547,6159,1773,1153,1656,1301,-1800
2548,4370,336,-7835,1099,973,-1837
2549,-5408,3110,4268,98,1617,-860
2550,292,-5218,4085,1626,830,-133
2551,131,5757,-514,-581,1939,1291
2552,2946,4572,7375,758,-466,-1167
2553,2640,785,1769,1828,342,483
2554,-776,2510,6975,1710,313,-1842
2555,-3793,-6397,-2931,829,-1261,-613
2556,4684,1342,-3953,-772,-279,418
2557,7403,-5371,-5174,957,-1026,838
2558,-6954,-6077,-4650,1707,1175,-1587
2559,686,3541,-2173,480,227,-748
2560,541,7272,1087,-1569,321,-1203
2561,-976,6630,-799,-661,-1536,1304
2562,7896,2477,-4353,989,723,-1076
2563,-396,-3102,-1849,1486,679,-156
2564,1422,6462,-6287,-519,123,-712
2565,-4484,-3066,3103,-712,-977,-26
2566,-5712,7826,-5503,-1586,271,-963
2567,5356,5018,-2688,1036,-810,373
2568,-5104,210,4951,350,-1915,875
2569,7079,7681,-178,-1593,-1944,936
2570,2991,-6602,4936,1695,-1177,-301
2571,5855,5597,381,-1368,-1748,-1677
2572,-665,-5392,-5791,-416,-189,-506
2573,7127,6695,4887,-1335,462,-1215
2574,-4776,-1744,1431,1721,1536,1257
2575,5702,-7161,-2886,-767,431,438
2576,-1189,4883,-5641,-1850,1977,1013
2577,4605,2588,5298,-1109,-1036,1479
2578,-2385,-4246,-5779,-1973,-68,-1487
2579,1675,-7063,2796,-74,-958,368
2580,274,1687,-2707,-796,396,384
2581,3835,2147,-1058,-1570,977,1679
2582,-3386,1303,-4028,-709,-1976,614
2583,-214,-2961,7347,-117,-528,-1105
2584,-2910,6371,3755,1398,-364,1238
2585,-6784,170,6178,-1150,-243,1078
2586,-4696,-4315,622,267,-1096,231
2587,-6913,3668,-2679,509,-268,570
2588,-5742,-4974,4635,-484,1459,1670
2589,-2712,478,577,-985,-407,-1461
2590,-6217,1591,-5836,-1085,-390,30
2591,-7828,-7376,-299,-303,-1518,-1845
2592,-5898,-6822,-2520,1273,-1140,-1003
2593,4661,5618,-3350,718,449,-1467
2594,-3721,5014,2821,1754,43,-1353
2595,3700,5019,-2298,1550,1592,208
2596,2797,3794,-994,-1388,-299,417
2597,1969,6475,468,299,1415,-1619
2598,-1037,106,2973,764,-1265,526
2599,-4114,867,7195,1905,-795,-1326
2600,-1104,584,4892,-1039,-1214,-1382
2601,-6741,6277,1086,-1436,656,-30
2602,-2278,-5424,-6803,1947,-1796,1727
2603,-3267,3364,-7353,576,-125,-1644
2604,-7935,-6185,1036,-631,-1199,1671
2605,2539,-1959,6385,1216,1193,-1319
2606,-5237,-3107,873,1234,1151,-392
2607,-986,-1483,3156,-193,1175,1049
2608,963,5715,1161,-1279,1827,-743
2609,3391,-3599,7805,1550,-1135,-1513
2610,4335,-4526,5062,-487,-936,937
2611,-5052,-7259,5463,1891,-967,-916
2612,4200,-6646,4062,982,1903,-308
2613,1058,6372,-4515,-681,969,-963
2614,734,7080,-7573,1542,587,1246
2615,-212,-5071,-3638,-1673,-1078,-1831
2616,5826,-6221,-420,647,549,1798
2617,5167,-3467,1812,1052,991,877
2618,2505,7281,4124,-790,-97,-1405
2619,-6887,4145,-3514,1535,440,-965
2620,-7363,-1215,370,35,1728,130
2621,7835,-3825,-4899,1406,-683,406
2622,-2112,-1299,1632,-1480,-1090,-358
2623,-1617,7393,1620,-1613,1685,-808
2624,2797,5192,5536,1223,1979,1927
2625,-7601,5021,-7354,1045,1458,-156
2626,4260,-5886,21,1157,-818,484
2627,-4015,-1792,512,23,-1126,-778
2628,-968,3967,2946,617,-1304,-121
2629,6660,371,3509,-274,583,-1371
2630,7414,-4487,6845,-957,-1669,818
2631,4121,-720,-5777,-1772,139,-408
2632,67,7438,-4629,-1890,-18,-1750
2633,834,3997,3130,1760,-1992,587
2634,-1873,-5514,-423,-1000,-318,1374
2635,5808,6678,-3227,-441,1804,309
2636,4539,6523,33,520,-161,-537
2637,-4407,3662,-4129,1479,-1479,-196
2638,-2185,-2772,6396,-466,-294,-1958
2639,-4462,-966,2081,1350,1894,-1479
2640,4180,3903,5527,961,844,-611
2641,-5048,-3958,4530,-964,1866,-1496
2642,-1484,-1096,-5832,-1117,33,592
2643,-6775,7273,-285,1215,-1669,-876
2644,-4810,-4283,7160,-905,338,-1805
2645,2679,6843,7109,1208,1487,55
2646,-6935,-7629,-7244,1075,-1971,720
2647,-5678,-4238,-955,-158,-971,-1136
2648,-1552,6517,-3095,1562,-1833,-118
2649,-4904,-6924,2480,-727,-428,-955
2650,-897,5554,4805,432,-857,-669
2651,3918,4177,3556,-80,-1417,743
2652,2789,-4867,-3182,-1636,1904,-613
2653,-5564,5397,-1259,152,-1238,-994
2654,3312,-7346,-7472,-1000,1515,131
2655,-3667,-4425,4802,-1664,-485,1988
2656,5153,2822,-1995,627,-991,-1619
2657,1612,1724,23,378,-522,-895
2658,561,-7578,-2069,48,-94,-1157
2659,4912,3230,5360,1094,974,18
2660,-229,-6195,-1644,1400,-1512,-712
2661,-5188,-5965,6884,-525,760,-230
2662,-197,5010,4270,-1560,1350,-574
2663,-6884,7486,4412,-105,-1825,609
2664,-1941,6274,-796,-20,1082,-542
2665,5455,-7267,-2279,910,-1644,-1466
2666,-294,-130,-2351,1926,1618,1062
2667,2410,1567,78,-654,-267,-1229
2668,4371,-1429,-5483,-1479,-829,1799
2669,6204,4329,-7311,1413,-1751,275
2670,-1362,-6520,-1739,1190,-1211,-1116
2671,4904,-7982,7161,1799,1611,1047
2672,6116,-6000,-2630,-969,1319,-24
2673,5341,-3796,-1315,559,-249,1513
2674,-4288,4373,3479,-256,214,-1281
2675,-4612,1292,5803,1298,1505,-848
2676,-6243,-6356,-1812,-93,272,1612
2677,7171,4220,-4675,1893,1684,-269
2678,-7308,-1582,-7216,1357,128,-368
2679,-2283,-4537,-2144,-849,-1657,918
2680,-7393,2839,-5117,-1106,-860,-1840
2681,-2991,1568,4910,1506,203,-1410
2682,-4945,-1514,-440,965,1429,778
2683,5665,3650,-4957,487,598,-183
2684,-7125,-6088,5802,1232,-885,1785
2685,-3991,-2144,4525,-1397,-677,-1418
2686,1788,-263,-4764,1468,-386,896
2687,3672,3647,-6651,-270,1189,1628
2688,2790,-6295,7037,1479,365,-1754
2689,2876,-1460,-1911,-1936,1312,-1741
2690,-3648,-4542,5489,890,-829,-229
2691,1631,5651,6945,1824,13,1418
2692,-6310,-292,2204,1619,-298,1138
2693,-2328,-7225,3642,104,-452,-715
2694,-7148,-6328,3420,330,-833,750
2695,-3888,-907,-3047,1507,241,63
2696,2149,-1077,-2920,-1327,764,-1566
2697,-1633,39,3959,-1861,-475,1935
2698,3932,6098,-3382,-1402,1024,-914
2699,922,427,-2768,-748,478,255
2700,-2440,111,6069,-1040,1692,-1044
2701,267,2582,7881,472,971,-956
2702,-5727,6498,4947,-1645,-1104,439
2703,-6599,7435,4662,-1338,-1148,-1035
2704,-3895,-1015,-5140,1349,795,-21
2705,3696,-7702,5249,-756,-774,-899
2706,-213,5644,690,-1841,894,-1247
2707,2190,2302,-3804,-1135,1846,428
2708,5607,6696,3634,1508,718,-1557
2709,7434,4124,-1664,-974,752,-1008
2710,-174,5252,7461,1740,-475,-229
2711,-3289,6191,-871,-1743,-119,710
2712,5706,-7362,-3706,-1936,-1055,184
2713,1866,-6267,-4702,-1704,1256,1878
2714,-2753,7847,-5108,-1250,1158,-130
2715,-7286,-2412,6793,-1430,-1820,-696
2716,-4209,4283,-5586,-1413,846,1267
2717,5209,2389,7017,1251,1515,420
2718,6297,7570,1985,-977,-1363,-250
2719,-2716,-5316,454,-1815,-339,-734
2720,-4301,2419,346,1363,309,1283
2721,-6295,-7355,-4803,755,-224,-600
2722,-6291,-2031,-162,1139,-101,-993
2723,-2564,7959,528,-1070,439,-1923
2724,-5306,1435,-1290,1559,1283,-1875
2725,-2569,-1542,7229,-352,1684,-90
2726,-7706,4573,3538,1139,820,-1361
2727,-6496,6192,7578,-1584,379,65
2728,812,-1826,-3908,1750,-304,1399
2729,-723,3977,-1700,1510,-27,1378
2730,-439,2841,6573,-500,-1220,-202
2731,537,4591,4191,-1964,-1920,-1683
2732,-803,766,2248,796,1954,668
2733,-2862,-5107,6772,-571,-1291,621
2734,4432,-1825,-7287,-875,719,-542
2735,-7917,5979,-5586,498,1646,51
2736,6153,2276,414,-1481,1105,374
2737,-3988,2844,-6269,-1693,-49,-700
2738,-3237,-6560,3305,315,1147,-769
2739,875,-4931,-3391,1230,748,-1955
2740,7765,691,4113,539,1074,883
2741,-7271,7299,-7305,-1620,807,-20
2742,1834,-5976,2982,-96,582,-1081
2743,6933,965,-4813,204,-651,94
2744,-4263,1897,-1721,1568,236,-179
2745,-7051,1917,-7123,-1841,-600,1793
2746,1840,-3423,-1264,-369,-744,589
2747,-7568,2506,4627,491,1168,155
2748,-4161,-1718,7397,473,675,-1113
2749,-6307,622,3822,189,-1646,-1557
2750,1583,-6934,-5403,62,-1153,-489
2751,5471,-1874,591,-1706,1816,-1936
2752,6393,7754,-1529,-858,1715,-1517
2753,-5899,6861,6422,-241,-1906,-482
2754,-3475,876,6905,-1484,-102,389
2755,-614,-1753,-3341,751,1024,-822
2756,2183,1020,195,1327,-1143,896
2757,133,723,-7743,1850,45,-1695
2758,-4126,-3120,-5674,-1260,1201,1917
2759,7958,-2727,-2147,-108,-1782,-1839
2760,148,2475,-3177,526,895,-1099
2761,-611,2611,6898,323,-1128,226
2762,-6296,1729,3138,397,438,284
2763,-2024,6699,-3208,-1952,1910,1693
2764,-1952,2255,5293,-1684,-1363,1276
2765,-2186,-4368,5973,-539,1482,1419
2766,-5460,-3023,2366,-1176,1083,1116
2767,4611,305,7998,1987,-1522,130
2768,-1893,-7238,-6132,-751,1824,-1286
2769,7886,-5589,5990,-77,632,-607
2770,7747,462,52,-1614,-1134,38
2771,-6505,7095,6238,1782,-430,1119
2772,3254,4478,2955,1730,-357,536
2773,4937,5984,7308,574,1032,-366
2774,-4729,7762,-236,1636,1026,-504
2775,-6714,3619,-4420,-834,-928,-359
2776,4629,-2501,6386,-930,1015,-1928
2777,7070,-477,-4658,-908,-1829,1440
2778,5973,-7446,-655,-289,568,1205
2779,5537,-6768,3379,1394,1259,-681
2780,-2238,-6423,-7463,1962,-1223,-1106
2781,-7467,-1491,6143,-173,1542,377
2782,-6692,6457,-5061,-730,-816,-729
2783,-1930,-6851,4878,-1977,1921,188
2784,3097,-1073,-4709,-151,876,851
2785,605,-3438,898,-1512,-133,-734
2786,-2472,-6727,5719,811,1070,1812
2787,5566,-5717,-1664,-702,581,505
2788,-3618,4935,-6227,621,-759,-1289
2789,-107,5515,-6819,329,1248,1126
2790,471,-5543,-7408,-1742,-1970,555
2791,-5494,-4218,5966,1013,138,743
2792,-570,-6459,-3510,1898,725,-1428
2793,5867,-1185,-2551,-204,-1229,-972
2794,-3416,-681,-2021,-1052,-692,486
2795,-1722,1872,6563,-278,-180,801
2796,-6050,-4235,-1871,-509,808,1266
2797,4494,2049,6236,567,-754,560
2798,3807,-4999,-4206,-787,-1881,-275
2799,6688,6202,4134,86,-52,-732
2800,5942,-1209,-4502,26,1438,-451
2801,7688,-7837,2879,-496,656,1322
2802,3557,-2777,-2465,-1073,-539,-1662
2803,-4427,-705,-3668,-503,-56,1840
2804,-6503,6255,-1842,479,1349,1442
2805,2381,2688,5490,-955,-1248,-1405
2806,3184,-4070,-6503,-1161,-905,1983
2807,-1780,-605,-1350,1473,-1717,465
2808,7974,1437,3630,37,-994,551
2809,3823,6903,7785,-888,-149,-1908
2810,-7920,-5200,1393,1028,-166,-1161
2811,-3904,1435,194,-1514,-1651,-1121
2812,2932,4897,-2504,416,1211,1368
2813,-6543,-5133,-4736,-195,182,-95
2814,2485,-1419,-7395,9,1711,1224
2815,2310,7935,-2582,-1718,-1110,1950
2816,-3663,6107,-3733,-525,1345,1709
2817,6359,62,1506,1524,-1222,1697
2818,2328,7364,6200,658,-1621,-149
2819,6872,-2416,-7350,-1505,1042,1721
2820,-2710,4840,-3495,-1250,-884,-902
2821,7403,-7617,4356,-417,-397,1419
2822,-7995,-2491,43,-440,-1613,1815
2823,-240,-4746,1704,-988,212,-1021
2824,1212,6929,-412,449,-1478,-1567
2825,2651,-5537,-3739,242,-1485,-686
2826,-1508,6929,499,1094,-551,767
2827,-3968,-7969,2091,747,991,-1664
2828,-499,-6938,969,292,1078,-101
2829,-4099,-7399,-5932,-206,-1841,1862
2830,718,7771,7309,606,-614,-967
2831,-3932,-2290,6236,-690,-608,1403
2832,4849,-6983,4116,1556,530,-1103
2833,2925,-2555,-2212,1473,1615,1059
2834,5114,-1081,4435,1022,-1452,-1346
2835,-5773,-7632,-92,-511,-1189,1076
2836,6119,-3353,-2546,-1947,1716,385
2837,2304,6804,-7731,265,1434,-126
2838,-5482,2154,6483,-1705,686,-1512
2839,2176,-2091,1678,850,-548,273
2840,-7395,6281,7699,860,1142,-459
2841,2123,-5660,-679,-394,-1902,1859
2842,-1195,478,-6252,-552,744,235
2843,-1769,-1526,-2623,1842,-555,327
2844,1927,6,4728,-143,-507,-1913
2845,3965,-5164,7821,-846,-698,-1680
2846,-7812,469,3354,-255,-857,-1795
2847,-5027,5754,-5066,139,538,-1758
2848,-2727,6595,-5922,770,-1927,-1211
2849,-1198,-2051,1728,1457,1181,254
2850,-7181,7831,-7758,-415,1088,-878
2851,4380,5700,1734,985,1603,-74
2852,3055,-1671,1231,960,-452,1069
2853,848,-1854,-741,457,-691,379
2854,-3491,-7848,-2569,-1845,1715,-411
2855,7499,-7944,-7284,963,1348,-1421
2856,5379,-1162,-6236,797,1339,1317
2857,-646,-1207,5280,-414,-1353,-287
2858,7492,4731,-5717,-1576,210,-1968
2859,7989,-4152,2325,680,-1904,594
2860,-3477,3615,-2508,-1795,958,1533
2861,-1645,5675,5025,1033,1981,-804
2862,-7824,-3724,4457,-382,1374,33
2863,1374,5517,3501,-705,1757,-1700
2864,5616,-6141,-5080,281,1619,473
2865,-6930,3160,-1727,-728,-1702,-1713
2866,6545,2625,-5160,267,1111,-1345
2867,2794,6671,2843,-302,-77,-103
2868,5177,5798,6697,329,809,-61
2869,6796,-304,2523,-968,155,-1251
2870,-1872,4043,-2281,-1238,1808,490
2871,-7860,2799,4041,1689,1806,1232
2872,-4177,-7099,6457,-1678,381,1393
2873,7214,721,7011,-691,1468,-1264
2874,2477,1175,256,271,1944,1123
2875,908,7184,7652,-1600,-462,221
2876,-870,-2317,7317,637,1371,-1847
2877,1949,-3244,4917,-498,1233,1706
2878,-822,-3925,-5315,1540,296,69
2879,4865,-6542,-5803,-571,-450,-1031
2880,5359,5109,7813,1446,1208,180
2881,-5431,7361,-6177,-69,-1984,303
2882,-7177,3366,-7598,-466,934,-1963
2883,3674,1313,-2147,695,-933,442
2884,2820,-5685,3229,805,-1134,18
2885,-4008,5237,1259,-319,1849,774
2886,-3317,-2817,7782,-1528,1288,1729
2887,7277,2631,-7142,-785,839,220
2888,-6477,7561,7519,-1162,136,925
2889,5776,-251,-7108,1304,1051,-180
2890,656,-2618,5565,-1972,-1099,126
2891,-723,-4005,3520,242,-125,1061
2892,-7074,-5061,-1232,-1345,-1082,-916
2893,-3012,3307,3366,-1205,-1217,886
2894,-5966,7840,-2254,796,-482,-363
2895,5551,5428,1839,1477,79,1477
2896,-815,5743,7143,1262,872,-568
2897,-3279,-3892,-6022,811,-937,1488
2898,-2999,6163,-3650,1090,-1908,-396
2899,2482,-2888,-1872,1711,-810,-1840
2900,-6551,-1292,2828,-660,-346,-1691
2901,-493,-4721,-2002,-54,-1292,-438
2902,-7007,7729,4489,-621,1927,-1106
2903,-5871,1483,-7969,557,-932,-1563
2904,-5898,4811,-6231,1061,314,227
2905,1018,-6799,-4258,-1579,-131,-1851
2906,2180,-7275,7826,777,-919,-1079
2907,-1767,2476,6247,-1675,-118,-616
2908,-1570,-5120,-2307,1665,-862,1292
2909,7897,-5247,-4233,-1619,629,-676
2910,-3769,-5478,5403,185,1358,-768
2911,1805,-4588,-7345,-1384,-1810,1671
2912,3545,-705,1355,-1696,-310,356
2913,7941,406,6007,803,1782,352
2914,-6056,6,-3752,-1351,1606,-386
2915,1763,-4085,-3102,-1478,-1145,1429
2916,2113,6122,-5869,-840,-1091,-1487
2917,-6371,-2562,-2740,1544,-1925,-1028
2918,487,-1021,-7801,1841,-202,1906
2919,238,6335,-2325,-78,518,-1057
2920,-4348,2519,-6497,204,116,-827
2921,4653,1326,-4667,-78,1034,-761
2922,3582,-7935,3106,-1894,518,-109
2923,-7820,6401,1385,423,-522,796
2924,6100,2448,291,-1988,-427,815
2925,-2015,-5845,-7594,-1317,989,-1989
2926,2488,2543,6179,829,-738,-1014
2927,7605,3319,-5297,-544,-1173,878
2928,3823,320,-6294,-438,-78,-1284
2929,-536,6998,-5656,-1774,1728,369
2930,1865,5037,-6348,-1087,-1771,-1658
2931,-7150,6005,-5045,-1364,-1983,194
2932,-6654,3994,-1993,-151,-1173,1503
2933,7687,4191,-7260,-1856,-1116,-829
2934,-1188,-6774,-4196,468,1339,281
2935,4965,-5467,4143,-684,-1549,669
2936,-3001,-7218,-340,-1887,141,695
2937,-3502,-1651,2320,-479,1321,1871
2938,425,-767,-2151,1710,-616,1397
2939,1760,-5250,-6289,-44,-1217,-348
2940,7083,-7843,-180,444,1238,-1264
2941,-4530,-2736,-7821,924,291,-1917
2942,2007,6738,2055,951,1049,542
2943,4923,5155,6494,282,944,1295
2944,6278,-7880,1499,-1420,-1250,1987
2945,-2785,-4553,3208,-123,195,763
2946,-2572,1038,-264,-453,-1275,-1761
2947,6591,5552,-5423,-1863,-1847,-1526
2948,3950,-5132,1938,-1882,-1433,1261
2949,5779,2847,-2304,-757,1944,-298
2950,1790,-7477,-6114,-1928,303,1169
2951,-5208,-1857,-5002,301,1198,1154
2952,-6118,-3290,7209,-140,-732,-169
2953,4208,-4173,4009,768,-1012,-718
2954,-5158,-5007,5076,-254,-1049,-709
2955,3473,-3586,-7935,289,1612,1184
2956,-2328,-7322,4870,1452,-359,-1628
2957,-7276,778,6549,1502,1784,-418
2958,5048,-3429,4077,1888,626,-1713
2959,-393,847,-2826,1970,-389,1929
2960,-6464,-141,-7291,-723,-1176,-1660
2961,-1000,6161,4726,1574,1789,-1099
2962,4916,-2265,5910,-439,-1867,-328
2963,2759,-1174,-7754,-1189,-631,-106
2964,4618,-5279,-788,1077,1877,-538
2965,-2659,-7208,6483,1118,234,-1158
2966,969,1128,4327,330,-495,1363
2967,-6377,-1967,6734,-503,1447,-603
2968,-7621,-312,5969,1229,467,103
2969,1504,3840,1373,-1538,-119,-1309
2970,4558,6307,-3467,-637,-123,-1465
2971,3500,-1386,-2986,86,1234,-1616
2972,-824,-6005,6079,-1673,102,-1864
2973,5854,-2525,7986,1700,-349,1962
2974,2128,1789,-5029,-374,-1910,-358
2975,-3590,1341,-4417,671,-1472,1028
2976,6490,-3205,-2112,-924,-1810,-791
2977,-6755,3474,-340,1931,-246,-59
2978,2390,151,-1941,532,-478,1273
2979,-4781,5989,1442,-1753,-445,-120
2980,-3205,-2455,-2258,-814,631,1758
2981,-7417,4395,-5729,-742,88,-632
2982,4185,5079,-3493,-1033,1771,-1806
2983,1630,6963,3382,1996,906,-1547
2984,1129,2180,6152,-1771,-1767,-158
2985,6762,4579,118,1698,1895,-58
2986,1531,-3275,-1692,-1447,-1359,-256
2987,4094,5079,2136,1188,1117,-1846
2988,-508,6936,1753,493,-1490,-1309
2989,3415,-7626,-6528,-598,1896,1877
2990,-542,-1457,-4087,1957,-1306,906
2991,-3656,1432,738,-573,750,610
2992,-4728,5105,4693,-1532,-1900,1992
2993,1401,1262,-3585,-1946,185,-42
2994,4594,7616,-1730,1612,-1683,801
2995,-1367,-6504,4653,869,809,1802
2996,-1110,-966,7827,-1495,704,-65
2997,-819,-4653,5910,-1531,566,1385
2998,1673,4763,1268,-1421,-1225,1844
2999,2185,-6233,6371,1518,-514,-1667
3000,-4429,6698,7340,966,-295,576
3001,7572,-5277,5499,-1670,665,-1014
3002,4817,-1160,1215,1967,1026,-302
3003,-2043,2649,2133,-358,-689,-767
3004,-174,-3894,-4973,-307,1564,-750
3005,5917,3291,7730,-1362,1278,1637
3006,-1090,-7487,-7656,-1150,-151,144
3007,-4758,1824,-5134,1628,1815,-1267
3008,-5406,5933,-1389,-1559,933,-1901
3009,317,-4432,-3975,434,375,1328
3010,455,11,-1639,834,1748,1034
3011,3251,-7856,-5768,1108,1369,-132
3012,-596,-6366,5655,1664,-257,-605
3013,-1586,1374,5399,-558,-716,1415
3014,-2755,-4324,1343,-1255,811,1508
3015,6619,4102,-2231,1477,1041,-451
3016,1484,4327,-2241,-807,-879,1938
3017,-7897,4051,-5438,-286,713,251
3018,-3716,-7691,3041,1658,398,1859
3019,2955,-6906,-7790,1373,1709,-1055
3020,5574,6949,7945,891,-1575,706
3021,-4537,-1092,5528,-433,-1392,1922
3022,-2509,-2832,7536,-1600,642,-1500
3023,7037,-1256,4498,308,514,-237
3024,3546,-3882,7518,732,830,6
3025,2110,-6618,-645,-1922,1662,40
3026,6385,-1426,3546,1923,554,-1845
3027,4397,3730,2378,1578,-76,1508
3028,7500,-4777,-539,-643,732,712
3029,908,7721,5193,1918,678,-1293
3030,-7127,4459,-5521,1881,1061,-1042
3031,719,2204,-1775,-172,933,-1621
3032,-3423,-4760,-3006,732,421,-301
3033,6543,-4670,-2156,1324,1764,47
3034,-949,7577,-1369,-232,1818,1239
3035,2417,-3686,1907,1833,1691,-605
3036,-6016,7305,-4337,551,-1705,-534
3037,1826,-1528,-4136,-1640,682,-1189
3038,1890,1580,2141,-1717,-549,1811
3039,4195,1764,-6897,-1080,69,1371
3040,-3924,2320,5234,853,-530,379
3041,-2996,1137,4154,-1413,-1576,-158
3042,1965,7966,-1115,15,1080,-1158
3043,-3977,3283,-2652,958,-1151,948
3044,-4290,-4589,-4280,564,482,779
3045,4769,-1638,5935,860,-1419,-849
3046,-763,-7525,-6896,-1436,-796,1856
3047,640,-2871,-5417,-102,-326,1427
3048,-711,2851,7696,-1506,-1579,55
3049,3958,193,3173,1159,1068,1598
3050,7052,-2116,5268,677,-392,-877
3051,-3178,-4152,2449,614,-1695,485
3052,7866,-7043,-1586,-1352,587,-591
3053,-1262,888,-6297,186,-828,1482
3054,-4729,1594,6465,-1878,102,1214
3055,4928,-941,-5732,781,261,1387
3056,4110,-425,-2698,-1446,-1537,1912
3057,-5053,3652,339,52,-494,-1865
3058,-7793,-6515,5475,1488,-936,1863
3059,-5354,-6429,1170,689,1319,813
3060,4679,-6789,3139,192,890,-1693
3061,-5767,-2007,-4711,1012,-843,1314
3062,1492,4609,-2465,-1226,1655,-1461
3063,3997,4338,-1936,-266,1977,-1248
3064,-6730,3239,-2108,1945,1909,1242
3065,7895,3540,7665,20,-223,-1691
3066,-4792,3076,1362,-908,-1975,1767
3067,3487,-4734,850,-616,-1413,-313
3068,2699,-1566,-6966,1568,1276,-1237
3069,-545,-6313,-135,-1953,246,398
3070,4667,-5162,-2413,1271,-1129,454
3071,575,-1735,-3573,-1808,1962,1884
3072,-5976,-7674,-4095,-1045,-745,415
3073,-7760,-7663,556,772,-638,737
3074,-2270,-3152,-6660,-496,-1473,-709
3075,2369,-7517,-7442,960,9,-1069
3076,-5541,2299,5009,1200,-15,404
3077,4209,3955,-4462,1926,958,-1525
3078,7768,-3735,-1540,-211,1865,-1821
3079,-3117,4342,-4675,1614,-1777,-1355
3080,-7087,2107,-636,-842,624,-1202
3081,2772,-5841,-6153,-1084,-1240,-1779
3082,4245,-307,1451,878,1638,-634
3083,-3503,2014,-879,74,1608,-308
3084,-5371,-3973,2933,-788,-1070,-1659
3085,2100,1637,1004,-839,-1918,-1871
3086,1506,430,-3812,-894,-690,-1955
3087,-2387,-5965,-1212,1788,-1819,1675
3088,4723,-291,532,-1568,-923,-1517
3089,-4803,-5153,-5958,925,531,-1469
3090,2793,4279,-6776,1460,-259,-1991
3091,6052,4241,-4905,-953,1070,-1608
3092,4838,-5885,3160,676,1278,309
3093,-5736,-5031,-6216,1612,1628,-1215
3094,-2592,-4873,5643,1954,534,-1500
3095,7264,7113,4891,-350,1316,-797
3096,4746,-997,4972,-1696,1105,1936
3097,5655,5105,-7565,-1219,429,1232
3098,-431,3746,6738,-886,-837,-1158
3099,-4068,-4645,6228,-1607,749,223
3100,7515,208,-3856,-108,-1401,695
3101,-6526,4158,-308,-1710,143,1187
3102,7126,6335,-2827,-939,1116,778
3103,976,-3759,-648,-122,165,-1027
3104,5535,-2468,-1615,965,-628,350
3105,-3755,4897,7117,116,1029,538
3106,2070,-1504,5466,1422,-851,-19
3107,-988,-4104,-2545,-754,-1149,1947
3108,1744,-4134,4696,-663,1595,561
3109,6822,1500,3367,-1066,1658,-689
3110,-5018,5174,-3305,-1732,368,370
3111,-5728,2122,7070,1976,1893,-124
3112,-7407,-5282,-5545,924,584,-1471
3113,-653,-7018,2261,567,1956,723
3114,-799,6367,-3105,-400,-723,-862
3115,-3203,7256,2318,1258,1866,-286
3116,6913,5952,-6686,612,-1502,1547
3117,3684,4670,4086,-869,1784,996
3118,-1737,775,-6822,805,51,1644
3119,-1266,-5178,7472,1594,1750,-251
3120,2621,-6249,885,-1921,-1195,-47
3121,7053,3977,2305,724,-1845,-1874
3122,-6682,-5042,-6807,1186,-1417,-582
3123,2983,-5090,-797,-1851,107,-919
3124,-1411,-1657,6078,659,495,-1675
3125,4800,1391,5251,334,1687,1049
3126,-1011,-5595,2726,1321,1922,878
3127,5661,-3478,2836,-593,-582,-1793
3128,2680,-3288,-7152,-461,-1810,-210
3129,-1132,-1894,-798,1405,-283,1361
3130,-2042,3771,-1668,1967,-1589,1231
3131,-7551,-4892,-2368,-1776,-1605,-911
3132,-448,6774,6126,-658,728,-344
3133,-6808,6575,7778,-1226,1344,-214
3134,3137,-6146,-7302,-613,1473,-229
3135,7308,152,-1358,-1977,-312,-859
3136,-6696,-6916,-2232,8,263,-66
3137,1301,-5703,2092,378,75,-323
3138,4304,2026,6370,883,-421,-1624
3139,2603,4992,4568,1988,16,-1977
3140,-4043,-1210,1891,264,-730,997
3141,-2661,2525,-5886,-542,704,-355
3142,-6534,-1025,-7533,-1101,-186,735
3143,-1237,-3547,-4857,-1334,162,1896
3144,-497,5861,6176,1939,-1253,-285
3145,-3868,7339,4093,-1514,1186,647
3146,1964,1733,2347,-1027,-490,1191
3147,-5480,-7619,-2422,-1641,779,-587
3148,-3164,2377,7336,-1853,1291,450
3149,3050,6838,-6046,1182,-1366,-684
3150,7747,797,7518,-1958,-1781,964
3151,-3455,-3223,3001,-1781,-1923,-1843
3152,-1086,1911,3241,1828,-1093,369
3153,-1276,-2536,4229,1212,992,1066
3154,5507,-2339,-2822,1147,361,-962
3155,-65,5573,4020,-1796,-1751,-91
3156,-1674,4910,-3083,-102,1707,1293
3157,-1739,136,-4228,-937,734,-1689
3158,6903,6692,3439,880,-555,-644
3159,-6485,-6783,-2444,-1579,1130,435
3160,-7170,-623,6857,-963,-1282,-1681
3161,-4532,5261,1956,-714,904,-1737
3162,1512,-952,-2476,-1919,-387,-1138
3163,-1871,7775,-1522,-1427,65,756
3164,4261,-563,-6528,-885,1903,-1038
3165,-3112,-58,1364,700,1507,1465
3166,-1057,-3963,-5091,-1452,217,-1253
3167,-986,-5409,-296,-124,-841,-944
3168,-2256,-2456,5092,-1884,-553,1684
3169,-7184,-6216,-5718,1116,1008,275
3170,-423,3950,-401,-450,-785,632
3171,5375,-849,-5676,-968,336,1084
3172,866,-869,-534,1804,904,1577
3173,6177,6148,-6324,-1784,-993,-1857
3174,6482,-3326,-2738,-522,-611,-1612
3175,2786,6610,-4831,1964,420,1950
3176,-3409,713,-194,-1123,1912,-999
3177,140,-2276,993,318,-74,245
3178,681,6727,109,1238,80,846
3179,-7271,-3908,-6008,789,-1828,1333
3180,5066,-1734,5255,-1356,-1872,1904
3181,-3871,-28,6195,1256,1802,-800
3182,2537,2191,-927,-1520,951,740
3183,-6623,4500,173,769,-632,313
3184,5662,7401,-2572,-1951,880,1004
3185,1575,5005,688,954,828,1557
3186,1329,1858,-7255,-113,-1328,-1391
3187,-3225,-1255,1937,1724,960,-1810
3188,4548,-6353,-7662,1279,717,-1571
3189,7153,6360,-3042,-845,1593,-580
3190,6263,-5100,4394,-1648,1591,-127
3191,4719,1027,1238,-993,1735,-387
3192,-3586,-814,-1389,1861,1393,-1124
3193,7375,6191,-823,713,-1924,1373
3194,2572,991,-7411,-641,1931,981
3195,5773,-5034,-119,144,138,-276
3196,5751,2392,3594,-1051,1829,-1823
3197,22,5368,-2018,-1577,-757,-454
3198,-5083,-733,6965,956,1527,1016
3199,-2952,3931,4936,-740,973,1441
3200,455,3692,-5572,-581,127,1742
3201,1588,-2271,-2939,1434,-931,-76
3202,-6165,-4805,7611,1166,-195,-1933
3203,-4554,-7259,4732,-1145,-1312,-163
3204,3041,7786,480,-1101,-617,-1782
3205,467,4713,-2315,-1721,1228,1681
3206,-5892,5792,-7032,-1973,1668,-781
3207,163,5732,938,1011,155,-86
3208,-3024,-7710,161,510,329,1926
3209,7279,-4729,3,1347,-818,-30
3210,6683,-5121,-2271,-865,-1693,975
3211,-4079,-1665,-1804,-1442,740,-384
3212,4,-302,1284,-839,270,-1445
3213,-6937,-7733,400,-453,-740,-883
3214,4691,-4749,2816,-1251,-1769,-126
3215,-4846,646,-7670,1737,-551,1731
3216,-6890,-5318,4461,-1732,1250,-1870
3217,-6541,1901,6914,340,-267,-416
3218,1920,-2115,-1333,348,365,-1934
3219,1470,536,4812,195,289,-914
3220,-6384,-6391,-3286,1341,4,-202
3221,6977,6740,4513,205,-111,747
3222,3444,1718,-4967,1459,1508,-1886
3223,7519,-6290,4723,1096,1902,-1388
3224,1480,6800,-7209,-1737,-1708,533
3225,-5644,6510,-2591,1712,-946,-1949
3226,-4217,7684,2642,-744,-1204,-1545
3227,1667,-4531,4943,-1444,1504,263
3228,2185,-4758,-1237,-670,1390,-452
3229,6206,4268,-4489,1439,-1735,-1035
3230,1434,-7514,-2105,-472,-801,1931
3231,-3241,-5629,972,82,86,-785
3232,-1394,5032,4003,-123,-499,1362
3233,7684,-5617,3954,-180,-1678,-1661
3234,3676,372,711,1355,-138,485
3235,1351,-4965,6799,1825,671,-810
3236,-2462,3283,1626,261,-1800,-1067
3237,-788,-4423,2960,226,808,1576
3238,5821,2796,503,383,68,765
3239,-5136,-713,6197,1556,328,-45
3240,6715,1406,5580,-1642,-829,-1228
3241,-2581,-5421,86,-1240,-1911,-1192
3242,-682,-5763,5490,1547,1534,-1575
3243,-4778,-7418,7273,-12,656,-227
3244,21,6387,3447,606,326,1393
3245,70,-3259,2951,1822,404,1340
3246,4137,332,-5465,-234,-1444,-1102
3247,1520,-7408,-5684,423,-769,1387
3248,5306,4286,462,1546,-1704,-285
3249,-5700,-649,5211,559,1203,-1480
3250,-5429,-1776,1318,-236,-1443,-1780
3251,-2180,-3191,-1777,190,-721,1182
3252,4160,5759,-2555,1690,-1011,796
3253,5756,-6100,2690,43,-178,921
3254,3008,5033,4031,738,389,-1109
3255,1218,5302,5952,-782,207,1156
3256,5028,713,4694,1019,545,-466
3257,3792,320,-4224,-1244,-877,-1004
3258,5858,-3531,2912,-714,569,-879
3259,6038,6395,-3078,-571,909,1745
3260,-3199,7754,-7739,1968,1987,-1591
3261,-2601,452,-416,-1390,1331,-786
3262,-7983,-3444,351,759,1468,371
3263,-6540,765,5550,1482,154,-1299
3264,4291,-3949,878,-1431,1035,1317
3265,-3189,-4361,-5892,-312,-994,1189
3266,27,5621,2459,287,-314,1110
3267,483,-276,2826,-378,1881,1905
3268,-4120,2585,-4154,-344,-108,-1846
3269,-4605,-191,1999,-1848,-498,1623
3270,848,4435,-5408,-452,-995,-1906
3271,963,7478,5738,-283,-31,438
3272,-2909,-2661,445,852,57,-767
3273,-6750,1245,1261,-1325,-1031,1266
3274,7066,-7285,-6905,863,1248,1031
3275,7872,-742,2303,618,751,753
3276,-5750,-4600,-3850,1764,1402,1512
3277,-1022,4410,6011,593,-357,778
3278,7363,-7635,-1995,1481,77,1768
3279,-4080,3792,-5946,-1256,-1586,133
3280,-213,2226,-4525,-1589,1472,-147
3281,6208,7471,215,972,-1744,-1043
3282,186,7371,-1517,-1752,-1869,13
3283,-2632,2391,-5061,1233,-630,196
3284,4722,6539,-474,48,1432,-1663
3285,1029,2027,-4922,1505,-126,-811
3286,6779,4997,-1624,767,1809,-985
3287,5119,4646,-3559,1615,-384,-1019
3288,-5312,7042,3270,365,834,-208
3289,-6965,-2674,-6968,-211,40,-1725
3290,-2648,7525,-1515,781,677,-76
3291,-2627,6683,4390,-1691,1212,1422
3292,746,-2500,5875,1965,-848,345
3293,3320,-6219,-6694,-1029,-1485,-1430
3294,4906,-3612,-4859,-446,1610,241
3295,-7248,7322,3203,-934,-1606,-1498
3296,-3256,-2503,-7370,1241,-1117,-597
3297,2659,2280,-7354,-468,-1713,466
3298,-2211,1111,7488,768,-1829,268
3299,-6846,7569,-4410,-793,1133,-1566
3300,2969,-3772,-444,-148,-1032,367
3301,-3228,3433,7635,-1836,-528,-1783
3302,6757,4884,7432,790,-851,-1170
3303,3074,-6247,-3087,867,427,-1793
3304,1035,-3922,-87,-91,-953,564
3305,-2272,-7103,2810,-1550,-15,-882
3306,-1969,-2760,-4090,-262,-794,947
3307,1397,6781,-7417,302,342,1182
3308,5427,4005,782,1590,-794,828
3309,-2743,326,-7065,1360,684,-1425
3310,-5601,4160,811,-489,1951,-550
3311,-4316,113,-5031,1381,-1221,1264
3312,-3727,4782,-7776,-223,-1400,222
3313,3016,-4931,5435,-1855,-1680,1588
3314,-798,-376,7978,-256,-258,-1137
3315,-4952,-3988,5371,1338,1727,-1608
3316,-3978,2160,-6604,684,120,-1616
3317,-4777,-7856,-4680,-764,709,-440
3318,-3533,-2645,6205,107,1066,-1738
3319,726,-4687,-2116,-833,1035,-431
3320,-6462,-2031,-3122,714,1809,1928
3321,-1638,-5709,5255,-1626,1640,1552
3322,6927,7554,-1963,1930,512,1675
3323,3376,-1382,-3187,1853,-1922,-827
3324,-162,6627,1617,1911,-1874,-893
3325,2819,-2674,-6016,-1773,-299,-1588
3326,325,5562,-2195,-1400,-330,628
3327,-4984,-5237,6210,-1867,-1707,1498
3328,1459,6767,-1960,1375,-820,907
3329,-672,2822,355,-145,972,190
3330,-4542,-796,1546,375,-1213,-766
3331,3078,-6974,-7320,-1915,508,1600
3332,4072,5011,-7734,-1697,1495,1675
3333,3778,4158,3768,194,-52,1946
3334,4588,7029,189,-237,-1132,321
3335,-5925,-3220,2556,1055,470,-1427
3336,-4773,-2848,4413,-769,-1616,-797
3337,5366,-5433,949,-965,1363,-859
3338,-3834,-6055,-443,366,-715,-1802
3339,-3275,-6382,-5722,1571,1624,-312
3340,-3193,-562,-5928,1394,1800,-301
3341,7427,-988,-7281,-559,-1577,296
3342,5665,6247,-230,167,271,396
3343,-4915,2515,-5737,-301,792,-950
3344,-7304,-4120,-2436,1824,-474,-1904
3345,1380,5217,-7765,-1524,-1239,1700
3346,-3318,285,1265,583,-491,353
3347,7787,-5563,2381,483,809,-1847
3348,-5379,-1244,-2771,1946,-339,1659
3349,207,3218,-5271,1779,-742,-1266
3350,-5596,5862,2987,-593,813,632
3351,3046,377,2644,923,1834,776
3352,-640,1264,5372,424,1479,92
3353,5982,-2826,1903,1034,-1822,-250
3354,-7057,4676,-3218,-723,-746,1962
3355,858,-7733,-3781,-1238,1382,1885
3356,-7553,5037,-1476,1194,1216,1067
3357,-5717,-1816,714,-636,-1430,705
3358,3080,-4203,5331,-1994,1803,1100
3359,-1373,-7108,1817,-1677,-1426,518
3360,2019,-412,-7560,-1309,92,1315
3361,1800,7149,-1503,934,1003,-1339
3362,-1819,-7192,1801,-406,781,-1168
3363,-6264,969,4075,1474,626,1912
3364,-3428,420,6012,-498,1803,-158
3365,-2494,-5260,-4145,-1512,-1147,221
3366,5549,-6118,1353,1139,-1145,1765
3367,3720,-332,-5517,-814,1552,293
3368,4795,-2508,2147,1908,1460,-50
3369,-1996,-183,-3494,-1098,-1887,-1690
3370,-4395,-2082,-3003,-1569,942,1038
3371,-6240,1537,-7075,140,1312,-633
3372,1881,-3637,6234,-34,1184,-735
