Sample,Ax,Ay,Az,Gx,Gy,Gz
0,-3710,7632,4891,-881,-1484,257
1,-27,362,-1614,-912,-829,-23
2,6608,-5637,6396,1583,937,-1833
3,1149,4711,7628,-1842,-1459,-8
4,-5912,4516,-5414,792,-479,-106
5,-2499,2531,-6779,600,-1371,1632
6,-1327,-735,2501,130,-575,560
7,3088,5971,7980,-1676,-1403,1789
8,-7849,4204,-5306,722,1747,-1543
9,3738,553,4319,746,-1602,-1084
10,5389,4569,-2513,49,1657,-1579
11,-6392,-3244,-6175,1595,586,-1951
12,6278,3415,-2335,-1066,-149,1244
13,-1198,4977,4889,51,817,697
14,3452,4673,-7800,-1972,379,-1977
15,-6185,-4340,-6335,-1589,1325,-697
16,5374,7180,-7095,-1980,-613,1093
17,1547,-5801,3533,1436,1024,1150
18,6332,-7002,4863,-1893,1392,-479
19,-687,-3720,-772,-1705,520,415
20,-5739,-6952,7346,29,-469,-1199
21,5204,-608,5772,-86,1289,-338
22,4881,897,4787,-1114,322,-1962
23,102,-6560,-667,595,1615,182
24,-7216,-3319,-996,1151,-1253,531
25,7977,-6878,-485,312,-564,1274
26,2947,6237,-2362,171,583,-1628
27,-4611,271,7362,-1131,-539,-926
28,-1488,-490,-2739,1574,-1387,-391
29,-4493,1170,2869,1525,-422,-496
30,-6266,3405,1865,27,1634,207
31,-4726,-1453,-7399,1232,1210,-1831
32,6358,1602,1378,-1303,-1006,-751
33,6137,-2902,787,-1720,1255,-544
34,-7339,-6860,-4499,-683,783,-965
35,1567,-3478,2910,1162,1714,651
36,-6118,-2623,1578,-604,-1153,-1692
37,-3561,-2246,-3725,388,1989,-1616
38,2655,-2949,4736,-1527,1915,-1203
39,-4778,-6548,-3471,818,1149,723
40,-3066,-7897,-6804,1608,470,-1877
41,6024,-7308,-5141,1671,1210,1371
42,1067,-7889,5682,-628,-78,-1498
43,5822,567,2214,-931,-1661,1166
44,7850,5536,6397,-1986,946,-935
45,6877,-1879,-2979,608,599,-1044
46,3956,19,-2328,-353,-1992,-433
47,2506,426,-48,-815,871,-1490
48,4250,6523,-7676,1994,1465,-1964
49,-6196,6014,-7393,-1500,-983,-1146
50,-6480,1138,5017,-957,783,-1310
51,-3717,388,4903,826,89,-608
52,-628,4283,6099,901,327,1419
53,-4895,105,6368,1010,-1280,-1262
54,3260,6320,-7142,433,-613,1673
55,5143,3398,-4696,-1711,-966,658
56,7417,-3746,6086,999,1697,1035
57,4999,-4087,6753,1714,1842,1865
58,3901,-4437,2888,-1832,325,-715
59,5368,3280,-6665,-964,448,1617
60,-1671,5247,4196,1258,-23,-1557
61,6645,2797,404,714,113,837
62,2860,4613,7773,-1567,-834,-1711
63,-6608,2576,-4988,-1260,-126,-1002
64,-6096,4043,-2586,-1320,-1172,508
65,-3535,-7225,7338,42,-10,-1069
66,-4460,6486,-7999,1499,-51,1651
67,3816,-6106,-5102,-983,1837,1030
68,7742,234,-5736,1914,1290,-157
69,-1362,6881,5639,-789,1760,644
70,7712,7138,-7070,-499,1790,1082
71,3796,6597,1887,-1488,-1532,1415
72,738,6195,2032,702,-1817,-1233
73,530,-7382,3324,389,1601,-881
74,-4990,-2439,-1354,350,983,1351
75,-4175,571,4919,-883,1711,474
76,6771,-84,6050,-841,-1915,769
77,51,882,-1649,820,-526,-1203
78,566,-3185,4565,1091,-258,-1543
79,7034,3154,2991,102,1177,513
80,4850,5670,-2976,1786,-1878,-412
81,-1026,-2505,-4467,780,1064,-1929
82,7697,-2339,940,138,-1752,1490
83,-5574,-5824,-1246,657,-1694,-1691
84,3874,-1849,-1588,-1065,1662,-1843
85,-4159,-1491,2919,1746,-1073,-563
86,-7328,-5018,-6548,328,-1982,-519
87,4846,1436,-2358,-463,1202,-580
88,-4632,-7076,7231,673,-1672,328
89,1066,-313,2106,1916,457,657
90,-588,-4599,-5255,-1890,1826,-1053
91,-5576,3077,-7886,-1591,1246,1349
92,-7778,-7855,7918,-1110,-797,-42
93,-1421,1767,6105,1552,1659,-1591
94,7391,-6502,1582,-1089,-834,1648
95,6007,-5381,5906,1136,-894,626
96,4080,2369,-1537,-848,-1406,-436
97,1652,-2404,4768,1143,-402,-600
98,4358,7648,-3012,-695,1441,1538
99,-5617,-6222,-852,1493,-357,10
100,503,-3503,6082,249,319,-1147
101,741,-5431,-2241,1610,1708,1694
102,6493,-4552,-6065,704,-881,-1175
103,2766,874,-4724,-184,852,1528
104,-1249,-788,5109,-1871,-169,1763
105,4193,6688,-2152,1239,-877,504
106,4243,3711,-7840,1481,-1665,-579
107,337,1183,-725,1748,78,-610
108,2647,6825,6824,-1699,-1204,296
109,-4302,-2853,-3780,-1618,1846,-1402
110,3316,-5757,-3479,1715,-1941,-1456
111,6445,681,-3267,-1963,1780,1647
112,6634,-6132,-4625,1256,942,1753
113,-7667,2866,-1902,-1441,1453,-1799
114,-5549,3171,151,-753,-547,-762
115,-3301,1017,-4300,-1650,1064,35
116,-3912,-4579,1313,1336,-728,-702
117,7920,331,562,-1464,1060,1280
118,3327,-328,-4837,-1506,-1874,1048
119,-3490,-3658,-3351,788,-1473,435
120,-466,6907,-1434,962,1598,-218
121,7849,-885,7663,476,1171,-1151
122,5972,-1978,-228,-261,-199,-1668
123,29,6547,7069,616,879,-1877
124,-4630,-1399,-7970,492,-672,-1577
125,7958,7919,7197,-1549,-1541,-1419
126,-955,7231,6505,442,-1587,-1116
127,4088,7684,-6967,85,-1310,1266
128,-3240,2412,-4135,795,1923,-1529
129,2516,-4113,-7380,1762,-537,-1183
130,1585,381,2595,-1717,1765,1699
131,-3764,-6784,6565,-981,1040,-1590
132,-2689,7119,-7809,-1940,759,-335
133,-936,5960,7880,-546,-1267,804
134,-6118,479,3856,-1078,-1968,-899
135,-1669,-7907,-3050,-1165,-1296,-740
136,4583,-3872,2824,1744,1550,-280
137,4772,-1825,-6860,1766,-1204,432
138,4091,-6782,-5555,-1585,-1371,1240
139,5930,3565,7606,-244,964,-623
140,-3465,7273,-3221,-1344,-1933,257
141,2298,-532,3346,556,-1109,1694
142,1470,4630,-4980,-501,1373,-415
143,3875,456,5061,-80,550,1894
144,3462,-2945,5957,999,-367,-1376
145,-7541,839,3937,-717,-496,-1412
146,5885,6136,-2852,972,-491,-232
147,-1433,2955,6028,805,-366,789
148,-7,2693,6875,-206,1315,-998
149,6384,-897,862,158,-1950,-949
150,-7531,-1872,2696,1324,1319,-1935
151,5040,3706,-2231,590,1928,1500
152,216,-243,-7603,-1427,-1451,-1214
153,-4788,7508,1616,390,-1640,1011
154,7054,730,1088,1845,-1849,-1647
155,5712,6719,2887,-519,-1579,-532
156,-5128,-3200,-7466,-1101,-445,1082
157,3232,-6339,-5280,695,-1296,-1832
158,-1724,-3004,-5823,736,298,-101
159,1396,2943,-816,961,-498,193
160,195,-1483,-4370,1365,-881,576
161,-7107,-7553,-461,1440,-1010,-1288
162,-6083,239,-5727,-1282,1789,-63
163,7357,6732,-3734,-1604,841,-867
164,-3184,4936,2974,1439,412,-636
165,-6633,5711,-6886,-277,-1723,-1444
166,-5322,6168,2076,1047,1380,-910
167,2893,-7310,-769,1320,1889,853
168,-5566,7073,6465,690,-1593,1971
169,-7364,-6099,635,1945,-1785,632
170,6252,5742,1510,-1451,-24,1905
171,7331,3696,-4103,-179,-1119,-1008
172,-6318,7186,-2062,1514,520,-1972
173,4707,6593,-4691,-346,1850,734
174,5050,-471,7958,1049,1911,-946
175,4950,7194,-3820,1483,1621,-165
176,3721,-6338,-4489,854,444,1482
177,-706,6260,5938,1123,-1836,-527
178,-2411,-6099,354,1748,279,566
179,3712,-7637,3103,364,-1631,-1832
180,-185,-2819,-5615,371,-249,-1940
181,-4374,-7544,-452,-1381,1210,1001
182,-3014,7633,2777,-1478,141,-389
183,5037,2317,4644,-1905,-435,440
184,-6254,-5004,-3463,-968,-309,1595
185,-5610,1896,-4219,-398,646,-190
186,1700,-2974,4774,-736,609,-1074
187,-828,253,6811,1976,-1662,-846
188,-6527,-1683,7405,-1710,1861,-684
189,-7511,5180,271,1318,-1391,62
190,-3836,3265,906,367,-1155,957
191,-3746,6271,1950,1519,-1679,-166
192,5997,2457,-1758,-620,1087,1590
193,-5610,-3639,-6339,-1700,1706,742
194,7848,-4848,4089,1839,11,-716
195,1636,-6259,-1680,-537,1190,-1023
196,1864,-3541,-2866,1522,-795,1609
197,5670,-2180,5290,336,-1489,1636
198,-2008,3418,-5137,-428,1440,-1082
199,-5145,-4949,-5220,-1593,-1109,-1828
200,-3148,-4724,-2071,1439,951,-1827
201,-3806,-1259,-6798,-1970,-1355,591
202,-298,3959,744,-1722,1421,1725
203,-5614,4399,-2575,1682,362,-981
204,-6899,-2177,3663,195,-1222,-541
205,-3964,6275,7402,-1284,1599,-728
206,-7389,1295,7706,-29,-1303,1197
207,3476,-1009,643,997,-355,1425
208,3440,-3302,-3258,1783,1860,-1424
209,-5703,4181,-5097,755,-16,1419
210,3791,-1554,1020,-1777,-1509,-858
211,-5450,409,1748,25,-1428,624
212,-5031,-629,3439,-938,-1657,313
213,-6479,-2381,4007,800,-1126,-576
214,-3086,5174,-6156,1923,1399,-970
215,6638,6146,5422,-1641,281,-1060
216,6652,-4170,-2935,709,-268,1283
217,3299,7062,-7724,1561,598,309
218,-3730,5150,-2580,-235,990,1167
219,-7237,-6676,2330,668,-1660,-219
220,-5858,-5556,-1676,1161,365,-1786
221,950,-1681,-3315,1559,43,-966
222,-2039,-7845,-5102,-1505,-1668,-1093
223,5970,-1586,3598,-1107,-1606,1107
224,-1900,-387,-6394,1525,-470,1783
225,-107,7905,-4496,-1757,-1133,586
226,3103,1207,-5921,628,-50,923
227,6691,7485,-2106,-437,58,511
228,1984,-7570,5777,776,287,1449
229,6317,-7806,3948,586,1048,-330
230,-2935,5121,-6702,381,345,1805
231,-7514,912,5203,1180,882,1407
232,6398,-6398,6843,316,95,-991
233,-1770,-5585,2669,1187,513,-913
234,-6264,893,-1755,-654,989,-965
235,3936,1224,3120,-1324,1799,-1106
236,2740,-1711,-6429,-608,-682,910
237,5092,920,-6766,-107,-1187,870
238,-5296,713,-6318,-1741,-829,578
239,3783,2788,-2359,-1680,-1453,-1410
240,-5460,-3554,-927,-1695,1184,-894
241,5237,5429,387,797,-1985,-1295
242,5499,-94,3415,-294,-270,1891
243,-7766,-6106,6519,-1950,1047,-1552
244,-6967,-779,-128,806,-243,-756
245,-5824,-5030,-5392,-637,-1969,-75
246,2723,7693,-824,1230,-1394,627
247,2281,5428,-3765,1509,1366,1801
248,2592,-3590,6971,1543,1361,-1207
249,7109,2274,-4075,1359,798,1964
250,459,6011,6614,-1862,1385,-1153
251,-2927,-3162,5882,345,1937,-1218
252,-7638,192,-6100,-91,-997,808
253,-2472,-1464,4426,119,-1946,1065
254,-3632,6907,5953,-780,1486,-1886
255,-2857,1696,2912,-995,190,877
256,76,-6057,1983,-1755,834,-775
257,1144,-6964,7707,-1346,-367,-1518
258,2935,-7628,-6313,-1780,288,858
259,3373,3242,-3186,1193,-577,-1380
260,4384,-4822,-169,-1183,19,-1635
261,838,-6409,-4394,-15,463,-1040
262,3900,-2230,-5052,1584,-910,838
263,5372,1472,4696,-640,1354,-214
264,6912,3703,7171,521,-811,-1096
265,6329,2808,-7109,1039,1786,1573
266,-1512,3934,-3114,1439,1733,-400
267,208,2674,-3924,-1765,-82,414
268,-7487,7378,-736,1331,-1990,-236
269,4967,2733,-4157,-326,233,636
270,-7738,2515,-7826,-100,-1695,-1898
271,517,5782,-5849,833,-646,-1235
272,1613,-1733,-5172,-1392,862,251
273,5871,680,-5187,452,-466,863
274,-2894,-3664,3414,1921,-614,-1377
275,-5779,72,6739,-1212,1954,274
276,-4667,-1448,4214,1852,-275,1384
277,6147,4468,-733,-613,1380,-1165
278,-6863,-2105,5193,1648,-1744,1962
279,-2715,4482,3697,-711,1212,289
280,-6659,-438,1845,121,384,-1427
281,417,-5327,-5373,1337,1721,-1710
282,-2797,-1317,5170,-1103,-1869,705
283,-1413,-606,1491,-19,-1205,-1939
284,6068,-4871,-3143,1560,1042,946
285,-241,5489,3198,103,1488,-1004
286,-178,3496,-135,-25,665,-1630
287,-5891,1696,2504,271,520,1048
288,-6182,6101,-3671,1190,-314,-1533
289,-3337,-4045,-4333,-1541,-234,-889
290,-5878,2524,905,1913,-1026,-178
291,-3650,4633,-6165,1579,1593,-1324
292,1329,6068,-3476,-1597,-862,-405
293,-5853,-3150,1253,-1433,-507,914
294,4473,-4282,5469,-472,-1913,1030
295,3248,-2362,6271,1803,1562,-1370
296,-418,2211,-927,13,-1149,857
297,-4483,937,7168,-440,-890,-763
298,-1689,7642,1378,380,834,-1342
299,-7435,-1414,6823,-1049,901,965
300,-5826,2682,3903,-1578,-522,-539
301,-5727,-600,-1305,-1141,-363,-453
302,-4431,-7631,1,-1808,-773,-47
303,6559,374,-2015,365,-12,-55
304,5523,1113,-5017,990,466,1595
305,-2265,4582,-1436,1316,234,34
306,7981,-5646,-7946,0,-24,-1647
307,2795,-7641,6049,-1664,-436,-820
308,6843,2994,1907,-634,-947,932
309,375,5437,3562,-193,389,1136
310,-3892,5208,2331,593,453,-1287
311,4604,5074,-4483,1352,1736,1509
312,-3975,6111,-7918,1305,-1318,-680
313,-5260,-7078,3943,-1000,1549,-384
314,7687,6566,-1783,-1531,1278,-162
315,6035,1819,5540,-879,687,1263
316,6006,6926,-4045,-1795,-1372,-333
317,5642,2194,5033,1815,-1175,-1349
318,-6747,7155,-3532,374,-131,1867
319,-3209,-590,-4718,336,1868,-399
320,-3518,-2311,3964,-149,885,-571
321,-5734,7679,-7687,-519,-1568,-1033
322,6405,-5710,2854,1294,972,423
323,-6564,7056,-2517,1112,-1270,-1099
324,7461,6264,-3580,516,1724,-1167
325,6077,4410,1161,-1790,1125,-844
326,6721,-2943,7990,1598,1315,1658
327,7568,4578,-2952,-1666,-1134,-1572
328,2300,1715,-602,889,837,-22
329,1383,-5248,-3427,826,-40,653
330,6686,-4550,-4440,-1087,1059,-1941
331,4981,7930,5370,445,1706,-1977
332,-2452,5326,-4376,1819,738,-1161
333,-5903,2378,6968,19,911,-478
334,6223,3564,7423,1509,-582,942
335,-2457,-3483,1883,1978,-1386,27
336,917,2826,5604,-1386,-148,1490
337,-4689,5950,-7580,567,1640,1364
338,-3402,-6631,-3629,756,1519,11
339,-6359,5512,4071,685,-1660,-920
340,304,598,1115,-1488,-482,-1782
341,5453,7880,-5080,21,-340,-1185
342,-4691,3454,1602,-1805,1845,-862
343,6726,-6334,3382,480,97,117
344,-6235,-1571,-4167,1058,-1154,-722
345,7232,7238,5180,1309,859,-499
346,-322,-3204,-6806,1929,1256,-517
347,-696,-7426,848,1645,-1431,-630
348,678,5672,7627,975,39,13
349,3045,-2724,-4374,-814,612,-1615
350,469,-2208,-7176,1713,1571,543
351,-7215,-635,4443,-526,-273,-431
352,-3504,-4915,-6741,287,1404,-1140
353,-3835,572,-4354,1198,-611,-219
354,809,1041,7820,1635,587,1035
355,-5604,4061,725,1883,-712,-479
356,5124,-5825,-5756,233,-963,-652
357,6512,5068,-6961,-1294,186,81
358,644,-4358,-2469,-264,-293,603
359,-6529,-7499,-5418,-1025,883,1454
360,909,-4417,-802,654,-1748,4
361,-5703,-3672,-1082,823,-434,943
362,1211,-6501,-1722,-1885,-1341,487
363,7145,997,3856,1267,0,-1183
364,-1957,4917,3336,1642,-1741,-493
365,2582,-7324,-211,-440,1099,1775
366,686,-7069,886,1944,1233,1379
367,5595,-5255,-877,1169,1740,1475
368,-6742,3128,6244,1374,37,-1524
369,-513,-5162,-7114,-61,694,1916
370,1246,1743,6391,203,-644,1805
371,-1046,938,-158,185,403,-1341
372,-6548,7387,1127,-1212,1534,628
373,517,5810,7093,-644,-669,-777
374,3697,3933,-3309,1126,-970,1017
375,2880,-1023,4288,610,-1991,-301
376,2123,-3421,5521,-1692,-1571,-1152
377,-51,1442,-5935,-1843,1610,1043
378,-545,2580,-7330,1321,1843,607
379,-260,-2902,1756,1717,-1339,-930
380,7998,-2169,-7864,-114,798,-324
381,7437,4294,-7913,1245,255,-1340
382,-2713,-376,-4729,35,216,302
383,4632,-1534,-1248,-1774,-709,649
384,-4434,-2128,6959,1128,848,-855
385,256,7196,166,885,584,-1207
386,7956,-6150,1846,1402,-1312,-1050
387,6187,-1405,-4879,1549,1320,347
388,-7011,-777,4982,-1438,833,1324
389,-6366,5873,6314,433,1321,-1631
390,395,-829,-7814,-886,-548,-1375
391,3347,7820,-3087,429,-56,-1754
392,3870,-1433,7819,1243,1885,-1880
393,7087,6305,-1284,-99,-757,-369
394,-1142,7056,-3461,1831,-233,-1153
395,-692,6127,-6816,-1461,-837,-602
396,5602,-3426,4559,-543,1846,1702
397,1170,-6198,5972,1965,1230,974
398,290,6841,-2449,-843,721,1593
399,-3989,3097,-2304,-609,-982,1048
400,5145,838,4454,-772,820,22
401,-670,-853,2383,-1370,-1863,-1697
402,5473,-7484,6442,1463,-1302,-1055
403,7652,-6944,-7858,-1114,1362,-221
404,-388,-510,-7828,-1031,702,1365
405,7717,-5092,-4984,328,-561,1440
406,346,6890,985,-275,156,995
407,-4985,-1145,4127,1707,1485,-1504
408,6963,-4198,7804,-697,-1981,-1318
409,-2206,1688,-1026,1505,1403,1535
410,-2874,2406,5699,453,-513,-331
411,-2515,6554,5162,-189,1552,-1099
412,-4323,6688,-6939,1731,1167,-1943
413,4125,967,5407,-1256,-129,-1296
414,-4735,-6269,3980,1940,-938,862
415,7085,7790,-3941,-1341,-69,1961
416,-6819,-3464,-4439,-274,838,-1751
417,2903,-7635,-1787,-1933,-1603,-809
418,-3520,5785,1995,1369,-1415,-1362
419,-4926,5363,7425,1545,-821,1293
420,3550,-7437,-3195,-638,-994,-29
421,5877,2743,-3193,-1753,-301,-33
422,-7737,1027,-4088,1874,-593,-786
423,-4686,4733,-6678,-1428,-913,-627
424,-3908,-5796,2763,1938,-994,103
425,-5629,5499,6596,-1416,-1426,-412
426,2265,-4641,2286,1609,-1500,1998
427,7929,-7578,1668,-1249,-696,955
428,-4118,-424,4046,573,-999,1979
429,-6303,4793,4919,-1588,937,1631
430,6936,4084,6183,1811,-549,-848
431,7075,6537,3814,-1580,886,8
432,7908,-1960,3524,-1467,-505,590
433,-3257,-1216,-4173,-1415,-423,-1067
434,-7262,1150,7528,548,1062,-1744
435,7403,5809,-4061,-1535,255,-1218
436,460,-6852,2195,409,-611,-20
437,-2170,-2943,4443,820,-96,940
438,-1563,4164,-6103,-1178,-1345,890
439,7349,-4737,4357,802,-743,1622
440,5060,-1091,-325,-1520,430,-314
441,-6712,-2608,-4632,-541,-1319,1089
442,-1663,-2298,4734,-1107,-313,278
443,-5349,7119,7897,1194,-410,1846
444,4112,-5985,6704,545,-1581,-973
445,-4771,2807,5041,1622,-962,1698
446,-509,5406,-7632,1866,-794,-1748
447,-7005,80,819,1731,-762,1077
448,-3483,7985,3501,220,-139,-1390
449,1425,-2643,-3643,-328,136,-170
450,2185,-4922,7324,-107,502,1354
451,-2623,5517,1332,-1103,-816,-80
452,-7172,1358,-6337,-1950,-1063,1254
453,-5434,-7314,-880,716,730,1280
454,1016,3413,-1935,170,-1927,-1834
455,-1407,-479,-3983,-756,-1591,1555
456,369,5207,4163,152,-1154,1967
457,3271,-40,-2662,-521,1328,-480
458,4441,-4501,-7420,-232,1782,-121
459,-6955,-7086,-4695,-514,-671,739
460,-590,3416,-7549,-1494,1770,-1058
461,1536,5764,1220,1647,-1067,98
462,-5349,4109,-77,378,1755,-1307
463,-3245,-5886,-137,-558,763,1183
464,5189,1846,1655,-355,1841,1820
465,2046,7508,-7699,-1164,204,21
466,-7131,-1061,-2245,64,884,1985
467,-2135,723,1126,1975,1315,493
468,1993,-2681,4431,-453,-17,-1715
469,-1218,6776,-3088,-1989,1115,698
470,6619,1070,1848,1581,-1756,1543
471,-7698,2592,-6701,1205,1278,-1467
472,-2275,3922,-290,-1784,-1496,1159
473,-5727,3286,-2392,55,1826,-1285
474,-233,1682,6775,1878,-972,1561
475,-6059,5110,890,748,-667,-1913
476,1676,-7384,1350,1895,636,-850
477,4,-6500,41,888,-1020,101
478,6347,6052,-6464,-1451,1095,-719
479,-4109,7299,-2189,720,-881,-544
480,7103,689,7254,1048,231,-1761
481,-3548,-6178,4569,-302,918,1773
482,4021,6862,6514,1622,-235,186
483,4879,3095,-3548,-1086,-1782,738
484,4885,-5761,7,1953,1684,1067
485,-4199,1696,-697,-1858,-1856,48
486,-5927,2782,5838,-431,-1823,1661
487,-4732,-1688,-4594,1115,-812,553
488,-6813,-3355,-4624,791,1900,-1662
489,7853,-848,-1410,-279,550,-1035
490,-5392,-4922,-6889,-276,-1336,407
491,7307,-81,3795,895,-1172,-1207
492,-2490,7881,-1402,-611,1437,0
493,6229,5629,5455,-663,1139,-979
494,-4071,7509,7242,-1090,-573,1587
495,4330,6254,-6182,1580,1986,1422
496,6517,7572,-3622,306,1573,-943
497,-1327,-6949,1279,1520,-535,1028
498,-2716,5696,-7468,-1289,-195,1992
499,-6553,-993,-1590,228,78,1998
500,-7144,2591,-3211,-1861,342,1093
501,-4810,-3852,-1913,-1487,671,-1043
502,-4306,3763,-6066,-681,-117,-1621
503,599,33,-3146,-450,447,1987
504,-844,312,-1087,-1620,94,1221
505,-7588,-7487,6190,-243,-1768,-267
506,-3616,6143,-4086,778,1633,1414
507,-7472,704,-5536,804,-641,-1668
508,-5600,-6602,-3908,376,-1011,740
509,-2246,7038,3825,-1164,-798,626
510,-3112,-4086,-183,518,-1455,1376
511,7757,-6102,1472,402,651,1388
512,-7498,4523,766,1000,894,-971
513,-4547,3753,-3674,1172,-567,-1787
514,-4612,-2058,-4170,-1466,1401,-683
515,-7105,-3668,2577,-1855,-995,1109
516,6894,2216,-3596,-559,-1263,-1669
517,-3716,-6355,4893,-589,-892,-757
518,-5435,-415,6170,-732,1485,-1879
519,-176,868,-2285,698,1201,-1824
520,7581,7238,60,-471,-1836,-171
521,-5640,-2592,-6030,629,756,15
522,3600,7689,4755,99,-984,-1846
523,-5787,-2612,774,-804,-1614,-846
524,3227,-5717,-7188,-878,-1646,1917
525,7678,5348,7061,681,839,-1092
526,2172,2754,4975,-993,1326,119
527,2895,7100,-506,-1130,-117,1528
528,3511,2671,-5085,811,1142,1605
529,6683,-2998,-77,1832,1488,1529
530,-6664,-6137,7786,796,-1463,602
531,-7372,-2579,7813,-247,-451,128
532,634,-4026,-1559,-853,834,-134
533,5505,3359,-5263,1860,69,-1796
534,6226,-5104,886,974,-1084,-169
535,-2366,4617,2379,719,564,428
536,-6832,6805,3915,-1753,-1694,1943
537,6985,-642,5528,-668,-400,592
538,-2606,290,-3694,-813,463,-1847
539,5769,-6984,1256,1095,1876,951
540,2689,4592,-944,984,-854,-1699
541,5043,7103,-2235,-370,-981,-1770
542,-7190,987,-2652,580,1956,185
543,-7486,-5875,3401,5,-1503,-1307
544,-3327,3020,-4191,-575,-838,203
545,-1043,6079,5124,678,-1477,-333
546,-4970,-5947,5411,-1236,1199,-1745
547,-2122,-5916,-2304,-768,409,-1500
548,-7020,5927,5578,-753,385,910
549,3904,3929,1401,-201,687,1699
550,2248,-1007,2251,-1478,-824,-1065
551,-5918,-853,-683,-699,703,-975
552,513,-4397,-2288,962,-24,770
553,-2480,-1035,-265,-1885,-1851,606
554,7750,2176,5553,-1533,978,1556
555,-6378,3759,7683,-1355,-1744,-1118
556,3627,-4466,3867,518,-665,-231
557,-7320,-3725,1442,-602,-1362,-1311
558,-3245,5889,-1524,1867,-1557,-846
559,-7425,4081,-838,1291,-74,607
560,-2220,-3597,1191,-121,-583,595
561,186,1910,-1981,289,1749,1429
562,4479,-417,5929,1963,815,1797
563,829,-4158,741,-112,-1171,-1943
564,4155,-1909,-3450,-1266,-266,-210
565,5066,-24,5892,-12,1999,-1326
566,6080,183,578,1336,1268,1674
567,-2040,5455,-368,-1648,-398,183
568,-2219,1995,-624,1513,-707,1033
569,2892,-2319,1582,-1009,649,1447
570,5623,-1574,-659,-439,687,-380
571,2251,6391,3907,1641,-1027,-160
572,-2254,5839,-1784,-1215,-1667,333
573,-5470,6584,1755,1836,1562,-1498
574,3272,-4660,4963,-1182,1750,114
575,-6095,5367,5365,-879,-333,877
576,-6254,7824,175,415,-1451,-1849
577,-3638,3611,-6568,76,483,-1148
578,265,-2118,-4994,624,793,628
579,-7816,2080,-7477,51,1455,123
580,3020,-7944,-4737,82,1432,-1830
581,750,-7804,-7523,-738,180,1432
582,4766,2844,656,1466,-534,-1564
583,7594,-5282,-304,-278,-222,1397
584,3691,3389,7941,795,-879,179
585,5117,-583,-5508,-1798,-601,1175
586,-2943,-571,-4029,-1570,933,1495
587,-4490,-3758,4580,-1718,-203,-1582
588,4502,-27,2963,666,-1390,-1267
589,-473,-39,5154,-1409,-963,-835
590,1454,-7176,-4701,-1599,1330,-352
591,-6835,7777,2258,989,1726,10
592,198,-4787,-2853,-1,-1673,-1847
593,6375,2414,1509,-988,463,-1609
594,-528,7341,-4585,-591,-1792,1243
595,6494,711,5048,-504,-1219,-1576
596,7978,-5584,1872,-1967,1424,729
597,7140,3120,-1460,176,-828,125
598,-4662,-561,-5160,-337,1048,1548
599,-113,7857,4165,-1665,398,-1450
600,-1438,515,7000,-915,-1597,1709
601,1719,-2312,5237,188,-811,1563
602,2748,-2260,-1032,623,41,-942
603,-6595,156,-355,949,-29,1334
604,-1390,-1384,7867,1170,98,795
605,7377,6786,4522,-247,1151,-357
606,-361,5872,1420,-334,-361,-1308
607,-1693,4674,-4975,-539,-315,-1249
608,-1252,6343,-2678,-1067,-173,406
609,5882,3963,1172,946,-656,-861
610,-2000,-467,-2420,-853,130,-655
611,2308,5339,4996,324,970,-1252
612,3439,-950,3299,-233,1935,-214
613,-2199,-3361,-7844,-373,-1704,1092
614,3202,-2610,953,-1790,-596,1816
615,2083,2662,-3992,-1896,235,1552
616,-574,-4438,-2522,-1216,1841,1834
617,187,3971,-7414,140,-1220,-1628
618,3294,-7178,-4302,389,1914,1072
619,5215,-3150,376,-1627,-1030,1651
620,-1507,-6806,1570,-1573,69,-943
621,947,-320,-2015,-366,-101,566
622,4217,-1960,2034,1430,1266,910
623,4067,-2144,4867,1443,-1389,-981
624,5612,-7578,-491,1498,627,1543
625,-6662,-3074,-1453,557,-435,1264
626,-7322,-1673,2857,-1086,-1968,-590
627,5454,2134,6719,1012,1667,205
628,1482,7192,157,333,-1148,222
629,4309,1514,-3814,1321,1834,1597
630,-5735,1031,4561,919,1915,-1757
631,3468,-1415,3372,803,-1369,-1857
632,1370,-805,-1864,-1199,-622,-183
633,-4966,-6889,-3290,375,713,363
634,-3767,-4023,-564,1024,409,1594
635,7771,7181,-3535,199,-979,-1768
636,-6202,-535,-3589,1020,1255,-1311
637,-2447,6564,-5368,1197,1017,-901
638,2923,6189,-5918,667,1171,-1322
639,3134,-2516,-7395,-1005,-177,1986
640,6879,-7308,-7689,-710,1225,851
641,408,2594,-4302,-1101,417,102
642,5101,1628,-6251,-1496,593,-1142
643,-2911,2460,-4247,820,-328,-1856
644,6554,7225,7544,1960,1507,636
645,-4465,-552,-2842,-652,1180,-1673
646,-4214,3050,-2793,-55,-640,-1736
647,525,319,-490,-1382,-142,-1728
648,3623,-5568,-3536,1551,1770,1983
649,5489,-5545,-4748,-113,1785,-1645
650,-5108,3567,3466,517,-261,-612
651,-1989,690,-2124,1741,791,-210
652,868,4391,-4878,1948,330,162
653,6583,-6299,-3764,264,323,623
654,-6256,6788,5936,-1297,-342,-1739
655,3120,1419,-7393,-930,1678,940
656,-4942,6072,6552,-91,-283,1151
657,-2666,-4346,7807,-649,639,-1220
658,5779,199,5065,-1498,1040,1214
659,4745,-3238,-6584,-998,956,-759
660,-5805,1579,2739,-99,740,1342
661,1161,-4760,3935,906,1464,-1363
662,3083,-7625,2615,330,1367,-1205
663,3831,-4674,1788,-1333,-1349,1312
664,2862,7376,-5331,-431,-128,106
665,-890,6904,203,1716,353,805
666,-2083,7929,426,-165,-1565,-916
667,1312,3680,4817,-780,308,663
668,2071,-1512,-2168,275,1343,-202
669,-1508,-1567,-7749,-1712,1295,1425
670,-7011,5810,6563,25,-345,1924
671,364,-7171,5178,1148,606,-915
672,-3476,-7502,-6348,-106,-701,-1972
673,-194,-303,3213,-211,1032,917
674,-187,-6707,-2897,-636,-334,-1954
675,-3047,-6780,-7477,-620,-1841,1251
676,1466,1106,-3780,-444,-643,-807
677,5216,2751,1189,-1926,1664,1342
678,1690,-782,-1375,347,-1139,1539
679,585,965,211,1797,-1554,-915
680,4582,2412,2812,-1497,1583,209
681,-1128,-2758,-3134,1155,-196,-1679
682,3289,-3217,-5561,415,374,750
683,3591,1742,-1235,-371,350,622
684,1069,-1977,-2825,-185,-1207,18
685,5532,-5181,-2023,1391,-355,752
686,-1810,-5454,5978,1408,294,-951
687,5376,224,1315,1136,-1624,1850
688,4123,6282,4553,790,1444,-1760
689,7462,-2348,-2114,1899,1655,-1129
690,1664,1611,-1012,1596,-1578,-469
691,6656,-1289,-2598,1437,776,-1498
692,7311,3207,5004,1308,122,-1487
693,2787,1532,-2929,-1272,-1262,1788
694,-6192,4556,-6946,84,-150,711
695,3926,2288,-274,275,-128,-1281
696,-334,4612,7867,1602,-180,-1247
697,7396,-2922,5329,-1851,-1002,-1597
698,-4221,2479,4885,-1411,1238,506
699,7002,-7633,-4745,1825,443,-926
700,6978,-6634,-792,269,-420,1107
701,3219,-5046,-616,-394,-1925,1083
702,-7491,2991,5385,1187,-509,427
703,-6564,7065,6814,-1029,432,-1130
704,-7674,-3266,326,-1091,-1597,-1709
705,6424,-6959,6422,254,1083,1828
706,6619,-2865,-1278,987,264,-1074
707,-3652,5851,6793,-16,147,-1608
708,-4518,-6497,-6058,-1744,-1101,1348
709,7637,3050,1265,732,953,230
710,-320,-6165,-2605,-535,344,-558
711,-6711,-6212,5511,-798,1516,-1095
712,2362,6371,3243,-851,1256,1967
713,3299,5410,-7135,587,-1027,-562
714,4465,-278,-3622,492,-121,-1609
715,7793,-1042,-6288,734,-592,1641
716,366,-258,2946,-173,540,-1167
717,2804,-4056,-7572,-1502,-889,1654
718,3851,-6040,-3502,-1275,1905,-1258
719,-4471,-4907,-7446,-1190,1921,975
720,-3965,-3355,-4516,-635,1248,-536
721,-4451,2478,1879,-959,1143,226
722,4927,-5222,-2837,-1213,692,908
723,-532,1622,5104,-1238,355,483
724,-5241,-793,7889,1811,1477,-1623
725,-1998,-5365,-5201,-601,-1929,-669
726,7609,7209,6808,-1092,-474,287
727,-4640,6391,-776,430,-913,-1814
728,3227,3993,-7071,-777,-625,-1247
729,4691,6281,-89,-593,-1421,-474
730,2142,-3924,-782,-1397,812,1241
731,2201,-6885,5875,749,-1907,-1051
732,-3178,3202,-3428,-397,547,1567
733,-646,-5400,-2040,753,1956,-1079
734,3130,5894,-7132,-951,-44,-474
735,-1977,-1675,7238,1690,-1879,-1428
736,-4356,2652,-3613,1010,-850,1544
737,4789,-6004,7759,287,-1545,-745
738,2305,7290,3006,728,163,-1146
739,294,-7311,-181,-665,1738,48
740,-5585,-5546,-3443,-329,-1962,-1604
741,7558,-5672,6097,-1916,-215,-257
742,-435,870,7879,-655,26,-897
743,-6040,1174,-5133,-1649,1364,-562
744,6950,7477,-2660,1293,962,-584
745,-2159,-126,1032,-1441,228,-1397
746,5622,-1992,2611,1579,1944,1068
747,7087,-447,-1360,260,-595,-1984
748,-4267,-537,5091,1259,-1375,-264
749,-5885,5597,-2009,385,3,418
750,969,5417,106,552,1337,1692
751,372,-7596,4074,-1510,438,-628
752,1277,-3786,6841,1725,1361,-1026
753,6338,3902,6350,-840,-1379,460
754,-3399,6762,969,-1051,-71,1387
755,2888,-6022,1949,-433,1901,492
756,-3160,6129,-4056,1361,-498,237
757,479,3578,2912,1740,-599,1662
758,-3075,1151,880,1154,-801,1992
759,-965,1869,-2974,-1456,-1580,664
760,-4674,3655,-6387,-627,353,1600
761,-3501,-1353,6221,1469,1435,5
762,-1797,-3625,4777,1375,-872,-1107
763,-662,-7142,-225,769,-1331,1692
764,-7556,-216,4423,106,455,-1034
765,-7603,-7320,-554,-1831,-963,-1512
766,6858,2827,-3329,1786,-307,1828
767,6690,-3995,-533,1931,-1331,855
768,3726,2412,2737,-1351,1125,403
769,2973,-7361,-1515,-1203,648,-123
770,-6725,-4386,3853,632,1413,-483
771,1012,-2447,7208,-480,-774,1261
772,57,6417,7572,970,1809,1240
773,5705,5526,-1994,-1149,1384,-628
774,607,207,6087,-1994,260,60
775,7631,6582,-2118,-114,1885,72
776,-3713,3384,-7734,1808,1767,1560
777,333,2309,2250,85,-1890,-1477
778,-7828,-7309,-3618,152,-1499,24
779,-2763,3091,7590,1640,482,-818
780,512,-1284,-2990,-1113,-1164,-1845
781,-1126,-5341,-5445,-1565,-814,69
782,-5182,2518,-7621,-732,1464,-68
783,7967,-3364,-5797,-1681,-1431,-1628
784,249,5150,-6459,-1587,1837,-362
785,-4660,822,2708,1824,-1089,-407
786,3959,5083,4153,1580,-1897,666
787,-4161,3076,-3241,865,-1510,-1565
788,7216,2632,5777,1544,829,875
789,3143,-6295,-3421,-439,1140,-564
790,-6241,435,369,-397,-1405,-1860
791,-7378,4704,3506,-942,949,-1656
792,456,-190,3289,1551,-1099,1752
793,-4816,-3298,5348,-16,1897,-1058
794,-6250,5873,2557,-1308,-1475,-1374
795,-1933,-4948,2398,1939,945,1261
796,3059,-4127,6003,847,-819,1688
797,4882,-6074,-5585,1448,1456,-73
798,-2365,4653,-4356,-346,622,148
799,-4625,-3971,-5121,-957,697,162
800,1095,1115,-2963,-327,767,1589
801,160,7612,564,130,-1559,-1243
802,3286,5446,3049,-1928,-1446,622
803,-1551,-2024,-7480,877,811,-1288
804,6336,628,-210,-755,344,1104
805,1472,-1321,-7263,1567,-1526,229
806,-2318,-2298,5343,-789,815,-1996
807,-2172,-539,2708,-1260,-34,-1664
808,-4289,2245,3931,-1223,-472,250
809,-419,6316,-6646,306,-1023,311
810,-6984,-3838,1911,-1137,1736,-1966
811,6367,6639,-5312,1726,85,50
812,4361,-7256,878,182,-289,-1638
813,-98,-3440,-2912,1797,-1773,-683
814,-3303,-4153,-1654,-156,461,590
815,-2266,-2934,-4582,1328,-870,-1530
816,-4376,5749,4742,-418,591,1562
817,-603,-5883,-2588,907,-1700,-1856
818,2198,5887,-7068,1281,1378,-776
819,522,5409,-6218,1182,-648,-1792
820,7689,-790,4851,542,-205,1338
821,-4456,1393,6871,-1799,-1722,-640
822,-1606,6470,-3181,47,492,1056
823,1321,-3576,-6120,-1459,-1759,-473
824,2398,5966,-1740,-677,-1424,1762
825,371,-203,-4965,-1331,1840,1873
826,5644,-6697,435,-722,910,-987
827,4167,-609,2412,-1504,-1495,1319
828,6879,167,7421,388,1624,1702
829,2619,1389,2742,-1367,-202,-1227
830,-6295,4642,-2598,-502,1490,211
831,3784,-7656,3287,1683,1202,-1777
832,7000,2084,2426,-86,978,350
833,2234,-6999,-705,1249,-755,-1786
834,3593,1624,7457,-1217,-12,-986
835,-2723,7058,3881,964,-472,-1820
836,-6802,-2520,-4606,-712,1672,-1001
837,5799,1242,-6914,-1563,-1713,1410
838,1877,695,7513,671,-1765,-1746
839,5526,2957,4323,-1464,1620,1776
840,1675,-3811,-6899,307,1903,1134
841,-6041,2567,324,1960,-1113,63
842,-7865,-6423,7183,-885,1018,1555
843,-5697,3921,2174,-1903,1216,765
844,6083,7794,4947,820,1710,-483
845,4858,-2935,-199,-159,1482,329
846,-1539,7014,-4549,-300,-77,1626
847,4899,7839,3301,-805,715,102
848,5979,6069,7971,-24,-1258,1030
849,4616,-1540,-73,1336,1988,753
850,7012,-2870,3325,-1932,-446,766
851,1781,-6134,3751,-1749,1617,-179
852,5756,-5749,7910,-530,1128,1938
853,4104,5357,-7212,-909,-840,1689
854,2081,-2245,560,-1879,1182,-75
855,3741,4885,-5475,-285,-1848,-737
856,5874,2583,7734,772,791,-405
857,7506,532,-4363,-1176,686,405
858,467,786,-5260,-612,-1202,-1264
859,2606,4114,869,14,-1352,-1887
860,1336,-3569,5135,-1895,152,223
861,-7858,-4610,-6887,1271,1161,-1162
862,-7921,3286,5293,-1903,-1835,-152
863,-4763,-5628,4738,-315,-467,1936
864,-6898,-1267,205,898,28,265
865,3052,-1232,1605,1010,1307,-636
866,3681,5459,1757,1707,-1320,-393
867,4670,-3778,-4800,1098,-598,1751
868,-1486,-5616,3883,1628,1471,166
869,3256,-6058,-1500,356,937,-821
870,-6611,-1439,-2320,-537,-991,-661
871,7734,7872,7240,-739,-1532,-794
872,-4369,1681,-4625,-301,1730,864
873,6175,-6844,-7455,-211,1471,-1469
874,-7824,-6174,-6856,-1690,-364,-824
875,7168,-7343,-5101,789,1688,1914
876,1109,807,-6524,866,-1100,-108
877,6636,-6251,5412,-1591,54,1523
878,-6508,-3335,5978,-130,-1738,467
879,4911,-4529,-5007,-1335,15,-1060
880,687,-6803,686,-944,-1227,-1612
881,-3593,319,-2534,-788,1099,1204
882,3989,-1927,4014,-614,1566,1494
883,6021,-7238,20,-1966,-507,-150
884,3653,-6951,-6787,884,1404,-237
885,-5184,-4362,2440,-582,1663,-1877
886,4048,-1885,-1896,403,-1808,-95
887,-5372,2382,772,-942,-1270,491
888,6033,-50,4072,-1679,1352,-580
889,3716,4666,4524,778,-1484,-1945
890,7296,6516,2144,179,708,16
891,-1723,-5574,4078,-539,1254,1841
892,2553,-2080,-7442,616,-763,888
893,3956,7101,5607,-954,-1011,615
894,-6432,3676,5647,441,-860,305
895,-4784,7536,-76,699,572,-762
896,7235,-7897,-1466,-1825,-146,-552
897,-984,96,-3613,-658,342,644
898,7133,-1248,1798,-750,1584,1380
899,-2873,-549,2169,150,303,514
900,4229,-632,-1074,722,-1055,-1400
901,523,3225,-6738,-223,37,-1138
902,-532,-6399,-2128,961,1744,-1282
903,2917,5048,2311,918,-439,-1051
904,3116,3469,-1918,-366,591,-1846
905,465,-4703,-7008,-1747,-105,-506
906,7993,632,-5989,-1422,-793,-680
907,4053,3071,-6434,1565,373,-1676
908,-4338,193,-6502,-1181,348,-1328
909,-4017,1426,-10,812,712,-1538
910,-4304,259,-4907,1738,-702,1565
911,-262,753,-6246,-1502,-571,970
912,3311,6036,-4396,473,-898,-202
913,1823,4974,-7582,18,-968,257
914,555,-4097,-327,-257,165,1323
915,-2384,4358,-5086,399,360,763
916,-5048,-355,20,414,13,1654
917,2903,262,-5671,1375,-1333,774
918,-5928,-3866,7070,1864,23,1876
919,-4936,-6377,2508,-849,675,570
920,470,1190,-7100,-1684,758,-1888
921,6294,4803,1237,-1329,-522,-1141
922,-3845,1440,7131,1213,1464,908
923,6602,-6938,-1595,1791,-1611,1928
924,3469,2384,1111,-1145,-1361,-1334
925,-3923,-3083,-2259,-749,-1018,-1332
926,-521,-3202,2225,-1855,-1700,765
927,-7331,3951,5674,-1794,-743,-722
928,1237,3471,-2467,1406,152,-841
929,5220,-5255,-6133,-851,-1648,-329
930,-4450,7269,4919,1737,-988,1642
931,1145,7304,-3056,-1621,1541,-322
932,-575,-4267,1702,-189,1093,-1540
933,-3062,3651,-6708,397,-1613,-837
934,2495,3754,-6307,-423,-556,501
935,5429,4283,-994,498,-1266,830
936,7042,-2324,5385,-1038,-1283,1927
937,2100,721,-4035,-960,-1464,1159
938,-3411,-890,-558,-1052,693,-247
939,-1533,-737,5081,1160,1352,1139
940,857,-7186,2031,-571,274,280
941,3431,-3189,7172,-1840,-597,154
942,-7159,5758,-6660,149,-1028,1685
943,-3807,4657,-2641,1665,-1160,440
944,-4752,5527,2356,-398,-980,1773
945,7302,4019,-5009,174,1102,-1107
946,-4245,-1179,-5329,1945,283,1419
947,4725,6506,-4721,1933,1739,1734
948,-6744,-2715,-1091,-106,1535,65
949,1937,-5633,-4288,901,-1842,-1009
950,6352,-2514,7259,-1056,1048,-592
951,5775,-5235,-7858,-1361,-1894,465
952,-3206,3750,-6928,780,-1731,-1742
953,6453,5309,6358,-1790,-1076,-306
954,3887,-7446,61,-568,-1041,1555
955,656,-6986,-4230,1502,626,-1552
956,7270,5789,5870,-1627,612,450
957,-7038,223,5177,-1017,-1977,-1475
958,-3486,-5889,5713,-700,976,-553
959,4819,1139,-4652,-1367,1935,1155
960,6622,-1744,-5018,-1026,-1471,1269
961,3677,4451,-4127,-156,-85,-1239
962,-3714,3486,-3288,-1837,-1058,-1348
963,-5607,-349,-2256,-1398,565,1829
964,-4913,-6594,6748,-182,953,-1558
965,4577,-3917,4442,-887,-1569,1594
966,-6992,-3205,-5551,1078,-1520,-981
967,5506,171,-6404,-1060,-1831,1884
968,6679,-1521,-2263,360,941,-526
969,3461,5922,-5484,46,-1598,1783
970,205,268,-1576,100,-1861,927
971,-4811,-7823,-1244,-1668,-1488,1275
972,1296,-3382,-7670,-931,-1631,86
973,-1421,-4521,7627,-550,-460,-1030
974,1473,-807,592,1783,1423,660
975,-1030,-5616,-3615,279,-1764,1935
976,-7522,5739,-3030,474,1252,1792
977,6111,-363,3389,-1876,1689,-351
978,7000,3072,3003,1450,76,1209
979,4169,-7560,6581,-1325,1603,-848
980,-7065,-4169,5315,-1420,-1646,420
981,5706,-7963,7122,241,-649,-281
982,-2859,-1428,-724,1574,1042,-406
983,5858,7407,-346,-430,-1500,-743
984,-6474,2834,-5842,1910,898,-1498
985,3506,4519,-4022,-30,1751,1979
986,-1463,786,4991,-863,-1,1289
987,-5820,7725,-2639,-1145,-1945,392
988,-1459,-7427,4149,1092,1383,1501
989,7758,4648,-3763,-1271,1843,-724
990,6843,6290,7131,-1498,1578,522
991,-7972,-2216,3694,98,-541,-1754
992,4285,390,-1271,-548,1357,-701
993,-2317,2411,-5103,1760,1020,1968
994,-3451,7362,-7104,-1564,-1625,706
995,4936,-6823,-955,-1807,-1591,-180
996,1457,-4350,-7915,1591,1606,-855
997,2099,4783,6010,-252,797,-684
998,-901,3735,-2883,922,-842,-1345
999,-2382,6195,1968,1780,581,1011
1000,-5292,3081,-3277,-1123,-968,1880
1001,7125,-534,-2906,369,-1491,1961
1002,7,-2410,-388,-1746,960,-1952
1003,7890,4086,-5192,196,-1812,-1691
1004,5669,1703,5070,1058,-1954,1668
1005,3486,1122,-7581,222,-1460,-1972
1006,7545,2257,4303,1976,374,-567
1007,-5115,6333,844,1559,548,267
1008,-5344,-3946,-2069,1535,-1512,331
1009,-3943,7707,-7901,837,-1526,897
1010,116,-1243,-3361,-603,-1941,-1411
1011,-7598,-3361,-7359,-999,1899,-1417
1012,-6846,7651,-6710,-1626,923,-219
1013,-5300,1447,-5623,-1855,-1699,356
1014,4817,-5267,-5313,-328,-691,121
1015,3487,-1376,-509,-1489,336,-498
1016,6067,5263,-377,-1603,-975,612
1017,1603,-7232,-6450,333,-1892,-627
1018,6636,1355,5469,-887,95,1135
1019,-5254,3170,-395,1568,1887,-307
1020,2713,-211,-1110,1723,-1122,1062
1021,6832,7022,-2700,-1182,-1474,-1859
1022,-5551,-3734,5476,-77,-310,-1341
1023,4752,-1512,900,-1601,-290,-501
1024,-5715,6661,-46,1730,-1485,-849
1025,1382,-6367,-1425,-768,1235,-1985
1026,-6316,-4712,-69,276,792,1054
1027,7681,889,-7190,-1642,495,-533
1028,814,-4348,6302,1610,-1363,-1672
1029,4470,1231,-7305,-979,-1650,1736
1030,422,6503,7510,1146,-244,-111
1031,-4026,-3164,5226,580,-402,1579
1032,-6526,3693,-2318,1269,-672,-1689
1033,-6007,-1912,5332,1601,421,-1011
1034,-3405,4759,3158,-1025,-1550,-1369
1035,-6393,-4416,2835,-460,641,1454
1036,-5171,-5564,-6491,459,1216,-745
1037,4009,6627,6717,1259,1467,1380
1038,4093,-1083,-7525,-1669,1200,-1526
1039,-2325,-4648,-56,2,-794,745
1040,-2479,-4114,1339,-1404,-1805,280
1041,760,-5941,7970,1970,-1191,-1136
1042,-7167,-3755,-7737,-778,1339,259
1043,-6859,2737,4060,-998,1291,-231
1044,-3221,4193,6947,1032,-1285,779
1045,-4692,-1941,-5600,-683,-1999,-1536
1046,-5651,4031,-5025,1259,1121,557
1047,5736,5541,-1285,875,-258,1887
1048,-7769,882,-2311,-776,-354,55
1049,-5782,-2084,-6461,1475,1696,-739
1050,-864,-3362,-7642,-1040,-280,975
1051,7015,-5374,-5202,1885,-1985,-167
1052,6543,4928,-1814,-1192,298,416
1053,7203,-5490,-5399,1605,-258,-162
1054,-2948,-846,3471,-127,-1186,-1269
1055,-4701,1332,4340,952,983,-1470
1056,-6020,6269,-2304,196,-1964,-833
1057,-7006,5862,7586,-731,-330,-1528
1058,2732,144,7515,1069,1635,1312
1059,-711,-4439,-124,-1933,1452,1214
1060,-6860,-3894,-318,-498,1427,1304
1061,7115,-6427,5366,-998,1575,274
1062,1038,-989,30,1582,1772,-996
1063,-670,6938,1771,-1398,1406,68
1064,6355,4321,6816,-704,-979,-1264
1065,2779,4570,-7626,1967,-1179,-1372
1066,1761,7489,2437,-355,-43,-1423
1067,7741,-3157,7713,-1547,-1508,643
1068,4986,-6226,4077,1146,552,-546
1069,7948,-588,-7279,-1064,221,1017
1070,4308,-6081,-380,-377,709,1664
1071,-1367,4957,7589,1410,1661,-1750
1072,-6552,2904,-3107,189,787,825
1073,2299,-1795,2353,-93,-114,-1201
1074,559,6542,508,-1832,1711,-570
1075,240,4473,2324,-1710,-1197,1814
1076,6621,-1996,-7751,701,1395,1250
1077,2437,-1232,-4964,-1670,-1277,1410
1078,-110,6648,2187,1847,1400,346
1079,6389,-6929,-7951,-1314,54,-1010
1080,1076,4786,2235,618,-202,866
1081,1291,4208,-6434,-80,-1483,-1715
1082,-5318,-5037,3915,327,1593,581
1083,3259,6274,1830,-254,-292,1075
1084,-5076,-5026,-2935,483,-1649,-1504
1085,2056,4664,2956,1795,427,-1254
1086,-521,-1765,4647,1024,882,676
1087,-2527,7627,-7362,1711,1285,-283
1088,5708,-3427,7549,-1572,1108,585
1089,2817,3039,-1968,-427,907,-1618
1090,-7005,-2509,4802,-919,52,1527
1091,4103,-7015,3985,-1231,123,-492
1092,2169,-3719,-3464,-1549,550,-289
1093,-1670,-6678,-5076,118,1208,1932
1094,6394,1657,7986,132,-316,-831
1095,-2952,-133,5078,-1619,642,702
1096,-3831,-5250,6041,1223,400,302
1097,7138,-6466,4668,1543,-1463,1878
1098,446,-5154,-7860,-641,681,1887
1099,-7272,6341,7847,1627,-1480,1963
1100,3364,1885,-3687,-1480,-508,1549
1101,1440,-7125,-6227,698,830,-900
1102,900,-7431,1243,320,1687,272
1103,4637,7908,-4173,1593,-187,-737
1104,-4873,7046,-2615,1301,-826,1033
1105,6755,-5195,1269,1817,1219,532
1106,2200,2033,-4791,1361,-629,1139
1107,7065,3978,-5293,-12,-1572,-1823
1108,-1075,-7281,-6137,-1458,248,195
1109,-7187,-5615,-4919,1498,407,1364
1110,7634,-3620,-6515,1939,1226,-1071
1111,-2926,-6710,6862,619,381,-490
1112,-868,1007,-7208,1163,-641,-74
1113,-7017,-2684,-6702,-1285,1520,1694
1114,-1843,-4858,-4260,-1153,-866,-528
1115,2964,-3647,1638,-1691,1291,-347
1116,-3915,-5673,724,1029,-87,1497
1117,6695,895,4419,286,-254,118
1118,1612,-3438,-1995,1626,-922,207
1119,3700,7937,2820,-215,1243,956
1120,-1055,200,-246,-1143,1215,434
1121,-3491,396,-425,-1330,735,185
1122,-4727,1102,4655,-540,-1018,-974
1123,-7884,6162,7717,1560,-35,1638
1124,-5905,-1544,-6630,-1274,1521,-147
1125,-5290,-3570,7583,1336,-1189,1711
1126,271,-7766,-743,329,-1609,-1646
1127,-5622,552,-5734,-1739,-1871,723
1128,2871,3360,6648,1438,1521,1081
1129,5653,-6912,4603,-919,-788,-1974
1130,-293,-3100,-3213,-1843,-1584,-226
1131,-166,2715,-2482,-763,667,-101
1132,6010,-4057,-4994,1354,337,1802
1133,7864,-4765,-4852,1654,902,-1523
1134,-2319,-2145,560,-938,1729,-32
1135,1834,722,-3748,-1254,-1079,-1287
1136,-5754,-2500,4834,564,-1694,1443
1137,-5403,5851,-1373,1726,-1619,-1959
1138,-5687,3742,-3940,-477,-344,-1817
1139,-1839,-1830,4476,-100,940,1083
1140,4023,-1534,-7200,-1136,-1175,1736
1141,6573,-1919,4254,52,1825,-750
1142,3053,4412,3052,-753,-1647,-694
1143,5230,7845,-992,-87,1737,1763
1144,-4809,-933,7164,-346,11,632
1145,-1056,-310,-2412,-951,652,-1685
1146,-6961,1225,3246,850,658,-959
1147,-4156,2662,-5283,972,-1028,-273
1148,458,-617,-3493,-80,440,-1023
1149,3583,4572,455,-191,-1469,-595
1150,845,-4395,-3900,1547,1398,-868
1151,408,-4085,7000,1935,860,644
1152,-73,6990,-2629,-650,1532,-196
1153,-4571,1592,-6198,-687,1226,1476
1154,760,7199,-3923,-253,710,842
1155,-6734,610,2573,-319,799,-24
1156,1635,-5998,5211,737,-1540,-65
1157,1723,-4080,4551,-616,1958,-951
1158,2092,-6300,187,1287,979,1067
1159,-138,-2443,-5251,204,805,1730
1160,-1129,-1766,5603,833,77,1123
1161,7528,4388,237,-1341,-632,1636
1162,1333,-7018,-388,1517,-226,-783
1163,5455,-5306,-5560,1770,976,-1004
1164,6256,3325,2189,-366,1932,-1227
1165,-5000,6000,312,1299,-1985,1398
1166,-1588,-7552,1177,1044,1610,-863
1167,-4565,-6893,-4943,1639,1118,-728
1168,4240,-5205,4923,-585,-685,1702
1169,2803,-3392,4792,825,606,-1593
1170,-5123,1621,-4659,-700,653,-175
1171,7347,246,7393,900,-488,-9
1172,-2490,3920,-6271,639,492,913
1173,2989,-7771,-7411,1076,-1521,131
1174,4090,-2157,-5055,-347,1616,319
1175,370,-6611,-7292,1207,6,-190
1176,7232,-1180,-6771,-1402,-1691,864
1177,-5006,1344,3873,-809,-60,-971
1178,2889,794,6866,508,-1404,1993
1179,1230,1917,-4548,-1459,857,722
1180,-1134,-146,-4873,1569,453,-334
1181,-7731,-3075,3624,1247,-1961,386
1182,-6654,3287,-5804,-1913,1031,-897
1183,-4419,3033,-4362,-1517,961,-1356
1184,-7339,-6338,6081,593,1686,793
1185,7933,-1143,6499,-1562,-520,1297
1186,-3199,-1610,-7397,966,-1862,28
1187,-3929,-1834,-4477,-1024,1573,110
1188,-1511,7896,2177,-3,-580,-678
1189,-182,2555,-3550,-1476,-1269,186
1190,6203,-2432,7147,1122,-1934,529
1191,5645,6536,4007,-1661,624,1761
1192,7700,-3656,4350,-226,840,1289
1193,-1677,2269,-5781,-926,74,-1229
1194,-881,-1272,-909,94,-133,-179
1195,1356,6763,7471,-635,-1237,1177
1196,-7839,4443,7485,541,1490,-229
1197,3864,-4257,779,-1250,1284,-1791
1198,-3126,-4112,-48,470,-1150,1251
1199,-1259,2459,-7284,-1813,-677,103
1200,3384,1590,-6874,1324,-1206,675
1201,5846,4633,-6712,1994,-1846,1845
1202,2733,1769,4491,539,464,684
1203,3620,-3125,-4839,590,1722,1862
1204,2400,-1461,-2566,-1962,-510,-755
1205,-366,7714,-1318,-1098,-1673,647
1206,420,6736,6301,-1132,-354,1245
1207,5386,4055,-2979,464,143,-1149
1208,-4781,-5697,-6321,-1590,-429,-1645
1209,4019,-3305,4673,1888,1925,959
1210,6591,-7112,4349,1270,-1117,229
1211,-7440,-1668,-1504,724,1540,1374
1212,-7584,-2450,1008,1874,1948,-1853
1213,612,-2241,4700,-1228,-1684,-1446
1214,-5491,-2011,5666,-1420,-1253,555
1215,-802,953,-5500,-664,143,-1303
1216,-758,6197,1021,-1603,-569,1661
1217,-4346,1463,-3587,784,-1788,-1829
1218,-188,4683,342,228,-1193,-679
1219,-7566,-1143,-116,190,300,-516
1220,6358,530,-3631,1378,-1265,1959
1221,-7298,7063,4720,1079,282,1335
1222,4215,5080,-3307,-609,19,531
1223,-5965,6851,7193,186,741,1678
1224,1217,-7406,5344,176,-1703,-1309
1225,761,6774,5079,277,1590,1098
1226,-4909,6863,-6148,-1754,1212,582
1227,-4787,-7554,5245,855,-277,-1864
1228,6596,-2624,3571,1377,-899,-188
1229,5588,-612,6142,-325,-26,-1645
1230,-4888,-3889,181,201,22,1079
1231,-220,-4396,-2786,4,1450,-101
1232,5769,1019,3502,1202,-1555,689
1233,-5709,5099,5949,-475,-1772,1823
1234,-4735,-7452,-3347,1072,1110,423
1235,6530,1602,2569,1066,523,1930
1236,-1936,-4572,6004,-1547,-55,788
1237,6730,-7446,4486,-1448,1053,-1402
1238,2443,-1449,-2567,-1514,1367,-91
1239,2299,3091,3252,-1976,-976,1605
1240,-2182,-4279,-6253,-942,-1931,1256
1241,7188,4653,709,-406,659,664
1242,-4386,-4876,-4368,-1680,1545,1923
1243,6951,7876,629,585,636,1436
1244,4477,-174,4641,-1118,1338,622
1245,-7384,713,5415,-1443,1018,-652
1246,-3528,4933,3541,816,1033,-643
1247,3934,7445,-7221,253,-78,-532
1248,-2497,-2149,5962,1765,-1691,980
1249,-2844,-7845,3682,-1435,169,849
1250,-1557,2946,2694,-55,-115,1195
1251,4206,4331,7756,-1121,862,-1670
1252,7624,4126,7848,1259,-925,240
1253,2437,2927,-2585,1633,897,-791
1254,-5944,-935,7778,334,-292,-1128
1255,-5676,5422,4229,-471,-166,1643
1256,-2361,-6641,7815,249,429,955
1257,3823,-5000,4472,-179,1814,444
1258,-5255,-1005,69,-1360,779,166
1259,553,1753,812,1788,1510,851
1260,-958,891,-2250,-890,-60,-521
1261,1047,6774,-4236,-1615,-1525,1176
1262,-4551,-1266,4063,-365,121,1516
1263,655,-2663,-1613,472,-1080,-541
1264,-2691,2092,3448,-1628,-145,-1317
1265,-5197,-2325,-4061,441,970,60
1266,3520,-3528,-5116,-1965,-484,1460
1267,-1565,6880,6829,-531,-219,-177
1268,3034,5116,4173,-227,84,-1868
1269,575,-7845,4153,1617,244,44
1270,-5466,-5687,-7390,574,-1159,-134
1271,1925,1733,1782,457,-1110,925
1272,4768,3805,-570,-590,1387,-602
1273,1072,7266,-5264,-1649,470,-796
1274,1587,2370,5500,1176,-1761,-112
1275,-4574,-2186,4062,1482,-370,38
1276,-1596,-6586,-2687,1070,-1685,1794
1277,416,-6200,2357,1016,-773,1200
1278,6190,-1193,-7011,-1032,-1929,-1007
1279,-3132,-3120,-3276,-795,438,1031
1280,-6690,5217,5221,1811,1088,663
1281,461,-5616,4689,-190,1999,852
1282,-6725,-7010,-3876,1053,1160,924
1283,1437,-1103,5498,-519,-381,-48
1284,-5129,7362,-2007,-750,-1510,-1549
1285,-1749,-4516,7977,1650,-177,1730
1286,-1232,-684,4009,-1831,89,-362
1287,-3987,-6572,6305,-486,-450,-705
1288,7501,-4189,-7142,168,229,878
1289,-3109,-6832,-1160,-827,-1121,471
1290,234,4635,876,1846,1304,-314
1291,-7510,4886,3258,-1420,1074,1341
1292,4494,-3068,-4534,520,1251,-918
1293,1370,-1876,1814,-1885,461,1343
1294,-3792,-81,-2563,-1200,85,-1235
1295,-5613,44,4589,-493,148,324
1296,-4592,217,-2875,-1045,-965,1958
1297,2150,3898,-2226,-390,-1395,928
1298,6263,-4601,2968,183,1982,-95
1299,-5731,-3259,3737,1558,-1955,197
1300,-1385,1815,-7664,513,1314,-1429
1301,5938,-1316,-5939,-250,655,-1193
1302,3126,4200,5205,-625,203,-1351
1303,7985,6175,4621,3,-179,-254
1304,-3379,-4017,1042,-1781,495,-806
1305,5514,-1767,7249,99,453,1143
1306,-3208,-7396,917,48,-254,1149
1307,1118,531,373,-785,-996,-1576
1308,5338,7887,5105,1340,-738,1660
1309,6118,5629,-3533,-614,591,-725
1310,5283,7852,4449,-717,-1910,95
1311,1646,-1404,-3838,-1700,1475,524
1312,5704,5388,4262,968,1476,-1592
1313,5481,-410,2059,1540,476,1483
1314,-534,7850,3735,-701,-1815,-1502
1315,-2350,4246,4851,1728,518,1789
1316,-6909,6828,-3120,1378,1319,966
1317,-498,3464,2726,1409,972,-419
1318,-3931,1935,-5220,1395,-839,-1001
1319,3818,-3729,1148,-1527,-487,-1732
1320,1120,4993,7709,630,163,885
1321,-3880,-6848,1117,-1485,-1510,-378
1322,-7629,6613,-4119,-1584,848,-350
1323,-7034,128,5581,-657,-1444,-995
1324,6435,1052,-4538,-1927,-1587,-1315
1325,3374,-6585,1650,-1191,-1045,-209
1326,3284,-5743,4546,-1381,596,1114
1327,3134,-770,1915,1094,-385,-691
1328,-3416,290,-1637,1706,1770,-1578
1329,-1639,-1207,674,593,1121,-1545
1330,-3403,5868,-2885,-710,-1319,-435
1331,-7625,379,-3406,1965,538,-430
1332,-6789,-7271,6723,112,1229,-1661
1333,7987,-2208,-4729,-1752,730,552
1334,-7907,-4390,-3280,-1318,1245,-484
1335,-2964,3913,6330,-1029,1536,-1341
1336,2670,5430,5794,1755,-29,-954
1337,6510,-7586,-6505,-1641,-373,1477
1338,-1627,4757,-2443,359,-456,-343
1339,-6726,-3890,-5518,-1386,-1161,1132
1340,4024,-1240,-2528,-1091,-290,-1422
1341,7921,3569,-7367,1336,-1330,1945
1342,1263,1277,2504,-1210,-1472,911
1343,-6867,-2571,-1167,731,647,-1298
1344,3540,5588,6330,1706,767,1214
1345,1125,-3792,-5828,562,-769,464
1346,3027,-2915,-4027,1589,1309,-1869
1347,1302,-5294,858,-768,-1534,927
1348,-7814,6665,-6877,-1980,-738,537
1349,2750,2009,7518,1302,1204,1873
1350,-5315,-5904,-2624,-190,606,-1773
1351,-7727,-1121,6737,478,1667,-258
1352,6028,4728,-3882,1866,1931,-469
1353,-7260,-7651,-5577,344,832,-762
1354,2789,-2392,1004,475,-804,1557
1355,-7105,2670,-7312,57,1548,-234
1356,4811,-4120,-4937,1774,73,-1145
1357,-7546,-6438,-2761,-777,-620,-909
1358,-5366,5530,-2449,1621,527,-1570
1359,-1167,-1511,7563,783,16,-1359
1360,-744,-5278,-2519,1348,795,1055
1361,6456,4451,5775,-307,-1808,755
1362,486,7853,-1176,1866,-1906,1941
1363,-6292,-6087,2722,1494,1957,-233
1364,1210,177,6475,-1284,-258,-1883
1365,5914,-7268,4998,949,-633,1252
1366,-1239,3578,-7400,-1804,-618,1712
1367,-727,-589,2831,-1925,1575,-1261
1368,5558,-3890,2277,114,-1324,-1582
1369,5090,-6037,5122,930,215,-241
1370,4702,7897,-5677,-775,1611,-450
1371,-7132,-2322,3600,-1423,1842,1620
1372,-7400,-7274,6100,-1938,-923,1382
1373,2545,-4074,-5295,-26,1749,-1223
1374,-3697,-1067,876,-428,-141,832
1375,-5121,5558,-6797,-1735,1278,379
1376,-653,2147,-6700,-176,-1238,-1599
1377,-7119,-2433,-2977,-413,1229,632
1378,7760,-3567,-6715,1551,-184,1105
1379,-5044,5751,-5509,-948,-425,-1934
1380,311,-965,-4512,963,397,1292
1381,-57,6085,4424,1384,-527,133
1382,5560,-2327,-4696,-1287,1031,-37
1383,458,1965,-1826,1737,-1649,1816
1384,-5129,-2888,3032,-1020,-448,-1804
1385,1123,1681,-3877,593,-1276,684
1386,-5184,-3712,-5602,-994,-881,-1976
1387,331,-3015,-2818,501,-1952,-976
1388,-2971,1951,-1862,1871,526,-1508
1389,6615,-2913,-7248,1520,1538,1123
1390,-7999,-2202,-4043,211,-188,-923
1391,2666,5940,2482,-1913,106,-128
1392,3875,-2438,-4276,-1600,-1611,207
1393,-1072,-5422,-2887,1859,1677,-245
1394,5999,-6602,-7374,1979,-160,1309
1395,-3352,4096,-823,1920,-1691,-605
1396,-5030,3809,5523,-375,-1194,-1159
1397,2125,-3566,4349,1970,-462,-1738
1398,2736,-6972,-5230,-693,545,920
1399,5121,1881,1452,440,-1979,603
1400,2030,-519,-1042,-481,-39,-1719
1401,4744,6912,-5424,41,-1336,690
1402,6207,-108,3012,1261,-1910,-858
1403,5285,-1088,-6043,1078,571,-962
1404,451,7751,741,-1498,1915,-1838
1405,364,5916,7301,-43,-955,1436
1406,4840,-1114,1148,-140,-1156,-885
1407,-2963,-3814,1242,783,1632,869
1408,-4070,7276,-5866,-1624,662,61
1409,-6788,7664,73,-1549,-1828,1344
1410,-6833,-6665,7631,1024,-414,-815
1411,-5705,-5106,963,498,-728,-156
1412,4367,589,-5934,1649,-293,-1512
1413,5065,557,7781,-1573,1757,-886
1414,-3304,4511,-3691,-580,593,-65
1415,-4332,518,-3398,872,-1714,-1070
1416,-1362,2955,5503,1583,774,-1053
1417,3307,-7155,2540,613,-38,-1747
1418,-5899,-2209,-2453,390,-1602,-1779
1419,6511,3045,6072,-1838,-1659,1831
1420,-380,-6108,-5639,284,896,-23
1421,-799,-1724,-4521,1129,1504,-893
1422,-945,7650,7460,-1333,-1523,-428
1423,-207,-1414,2351,1130,1617,-704
1424,2460,-1403,5252,-1861,1594,1482
1425,7895,-7888,3964,1828,-960,185
1426,-5886,7458,-1224,758,-426,-1609
1427,6044,-7499,5602,930,-1431,850
1428,7087,92,6123,1841,-1912,-932
1429,-865,7527,-6055,798,1351,-804
1430,4629,105,-1066,929,65,-828
1431,907,-3311,710,-1525,-1574,-1142
1432,5242,2124,-3229,1822,-735,-691
1433,5978,6797,4197,631,763,671
1434,-5052,-7005,3504,165,-882,146
1435,-6424,7696,-5448,-1077,13,830
1436,-6398,3451,3681,-1680,244,-1913
1437,-1751,-4531,700,-888,366,1819
1438,149,6250,7775,-1904,-68,262
1439,-6437,-3844,-2823,178,1806,-72
1440,394,91,4750,-1865,1142,-1695
1441,4430,3010,2912,-999,582,1716
1442,4540,6927,-6411,-182,-422,-330
1443,3566,6419,-5974,-1091,-1447,-85
1444,1747,-830,-7435,1371,806,-948
1445,-3122,2006,1459,541,-1575,1937
1446,7307,5770,-2832,-1667,1884,221
1447,1393,4329,2147,26,-1832,879
1448,4583,-6174,-2763,1247,906,1996
1449,-531,-3567,-4549,1283,-577,42
1450,-6557,-6092,5218,809,-777,1880
1451,-6011,-564,-6138,132,-1187,604
1452,-4854,-2742,-2201,-1640,-875,-429
1453,-4471,-2411,3253,-400,-1970,1813
1454,6797,-351,-1428,1937,-478,1732
1455,2257,-2415,3145,-938,1063,-840
1456,-2352,-4697,747,-411,-924,503
1457,3333,2097,-3848,319,-1567,366
1458,-2982,3065,7354,-724,160,217
1459,-2167,1554,4408,-672,397,816
1460,-4996,-5178,7850,-1469,429,-1424
1461,-3777,-4868,-1815,644,1440,980
1462,-4574,-3774,-6386,-1423,1163,9
1463,-6906,-2772,1480,-956,756,1206
1464,-6422,-3844,-4581,837,1582,-1169
1465,-1635,-3198,-6677,-1845,-719,706
1466,-354,20,-6782,1884,1159,-1750
1467,-5770,5466,-3149,185,1446,-177
1468,-4727,-2065,-5953,284,1855,-1443
1469,6244,-5015,2906,642,813,-335
1470,-4152,4754,6057,1503,1677,1039
1471,-827,-987,1956,-770,-1843,-1287
1472,-1603,-4982,-4530,-874,195,966
1473,-3132,6707,68,1240,709,-1161
1474,7819,-2599,-4034,-564,-970,-878
1475,-3607,1526,6444,947,-1136,-738
1476,-6046,6769,2789,1876,1178,-58
1477,648,-4510,-601,-470,-963,329
1478,6091,5502,-2285,-1945,-1793,979
1479,6116,1689,-1727,-1944,-1336,-1190
1480,-4350,-3801,3770,1887,1400,-493
1481,-4918,-4135,7238,-732,-580,712
1482,-7135,2760,-4724,-838,1554,1039
1483,675,3036,1330,1906,1160,1434
1484,7039,2582,3962,-493,-1463,1196
1485,-667,-7739,2538,912,-1786,143
1486,-4756,-764,4079,364,-1570,-828
1487,5054,229,-6378,1479,-1916,1733
1488,6826,7348,-6541,-559,193,-500
1489,6482,7145,1323,613,-1190,210
1490,-6667,-3403,-2831,-931,858,1404
1491,2901,3768,-6840,1038,182,-274
1492,1247,-6382,5339,-1612,1413,1440
1493,277,7994,-886,1292,1235,882
1494,-6644,-1001,6933,1366,-1687,1058
1495,-4951,-4535,-62,1432,1638,-151
1496,2751,4226,-2309,1530,-210,1713
1497,609,-2779,-7492,1894,1466,-679
1498,-3513,4938,-1797,-852,403,-84
1499,-5333,-1128,-3435,1028,1970,1817
1500,3067,210,-1987,-143,-1990,1835
1501,86,41,-3276,-663,1243,-1426
1502,-3090,-5766,-1868,1277,-290,941
1503,3930,5511,-6593,1354,-27,1062
1504,-7981,-7126,-7414,-45,1549,-27
1505,6894,-1974,-1069,1387,-657,1993
1506,3450,-3844,-1159,841,-140,-1695
1507,2965,375,-6992,-1869,203,354
1508,-3062,-3555,-2786,627,675,762
1509,-5582,3745,1867,-1558,-535,394
1510,2629,5241,-3920,-17,-1459,1967
1511,3759,-3403,-1671,7,803,-327
1512,-6960,-3804,1094,-1215,630,-1527
1513,1724,7226,1258,-1786,-1634,-618
1514,913,3161,-624,-1017,-1417,484
1515,6977,-2285,2733,-837,-625,-548
1516,7386,-1613,5585,859,-1090,-1043
1517,1581,7614,782,413,-262,-750
1518,2602,1673,702,-1674,-504,-103
1519,-2201,-4980,-6977,110,470,-1380
1520,-1357,7794,-1236,-768,922,-1434
1521,6775,360,-5945,809,-755,-1022
1522,-2121,-6060,-1758,1492,1319,-51
1523,519,-842,4873,-172,-502,1018
1524,2598,-1436,5131,1281,-1361,25
1525,-7795,-1602,-777,170,1420,-138
1526,3088,-111,-5597,1538,1293,1810
1527,4565,-7981,-6633,-1035,-245,48
1528,4059,-1874,3771,1055,450,747
1529,-2783,-6773,6489,1981,1029,-1426
1530,5337,-4364,6600,-300,-588,1533
1531,-1517,-585,-2114,-1898,-710,1334
1532,1061,732,700,1439,-347,1187
1533,2748,-1507,4272,-29,1107,-1603
1534,2860,4763,-5457,-1528,1908,-1331
1535,6752,2792,-7349,-341,1303,-1274
1536,-6347,1533,1873,1660,-1932,529
1537,-3129,2683,2995,-946,-1255,-1137
1538,-4833,2111,-1165,-464,-274,-1270
1539,7001,3281,6638,-671,1003,317
1540,-2439,1811,-1820,-178,-1158,1028
1541,6316,-6852,4115,563,1825,1847
1542,-7019,-7560,1734,-1618,-203,-1053
1543,-4635,-447,1568,-1125,-1733,399
1544,6307,-1836,-2496,1082,-428,-844
1545,-1922,4059,3707,-141,1247,-703
1546,2375,-3542,504,-1516,-1280,1175
1547,2012,-3856,-123,1041,1734,-1439
1548,-26,-7898,-5342,909,-1822,-216
1549,7152,5139,2159,-1397,233,1886
1550,-4213,2748,6835,1762,1971,-1659
1551,-4362,7279,-768,1586,9,-35
1552,-1508,7255,-802,26,1008,1635
1553,4569,3406,6384,-382,1901,-1606
1554,4936,-2661,1876,1572,1085,1989
1555,7874,2775,-480,446,67,781
1556,-94,4972,-5286,1062,1457,-407
1557,-4562,2284,5374,670,439,1032
1558,5768,1151,-5002,663,-765,1606
1559,1081,4393,882,-1204,-918,-1236
1560,-2026,2874,-2889,701,-1678,262
1561,439,-3537,5700,-1451,-367,-75
1562,-2914,6393,-7108,-137,1322,457
1563,2279,-3437,7770,-202,603,1220
1564,3339,-7788,4619,-71,144,-1706
1565,4201,308,-5174,1107,539,298
1566,7811,-1061,-6631,13,889,-1853
1567,3384,-5228,4304,-1346,-1072,-1125
1568,5736,-1562,6079,-1742,-1457,451
1569,-3768,-3296,-5940,693,-957,223
1570,-118,1075,-5118,-1675,-1111,1971
1571,3614,6681,3463,1205,1281,-1500
1572,6232,4742,-7259,1067,-1787,1627
1573,-6709,7240,-2176,-1006,1981,254
1574,-3447,-2170,5463,-186,1487,326
1575,-1691,-1269,2104,1849,285,-1555
1576,4948,2547,-1917,214,129,-1151
1577,4788,-1641,2035,1448,-1397,898
1578,650,-4406,-4564,0,467,343
1579,-5510,1244,279,1375,-1690,-1700
1580,6932,-776,7451,1391,491,-1316
1581,-2508,5082,-5264,-1510,-715,524
1582,-2031,-3323,-3900,-1876,-1067,-202
1583,-4721,683,2250,-602,-381,291
1584,-7053,3406,-5052,1737,905,119
1585,1951,7260,7416,1941,-138,-590
1586,-3691,-6901,-4876,-1426,-1719,1364
1587,-347,-1009,-901,1891,-1285,545
1588,7814,-7808,-2706,457,-1502,-1725
1589,4523,-5665,1842,-1843,1066,327
1590,-5661,-1173,4021,684,1335,-176
1591,-4774,2313,6491,1565,-1568,486
1592,4393,-3653,-4399,-486,-805,158
1593,-2450,-6422,-5060,-469,-1195,-263
1594,-1506,2200,-4284,-1306,-687,-1947
1595,-2265,823,-6753,1831,994,-1664
1596,3721,2861,4031,606,-96,1483
1597,4014,-6557,-1571,1242,1975,1826
1598,5045,4211,2897,1281,-150,-860
1599,5926,2201,-1869,1083,-1299,175
1600,6809,-7767,1521,-323,1875,-288
1601,-2239,2689,-2906,-516,-1523,1191
1602,3277,7662,1537,-1873,251,-726
1603,3643,-4888,7233,791,-1302,-239
1604,7834,3120,-5551,-1224,-1395,-1769
1605,554,6174,2287,459,-1036,1489
1606,3197,4834,-1970,-443,347,-1865
1607,2932,5612,1287,912,830,-1539
1608,480,-4096,5993,33,-552,-585
1609,-214,-6834,-6964,496,1119,-807
1610,2827,-3695,7459,-910,931,-738
1611,-2092,4377,-2682,1828,1166,-1427
1612,-3172,7886,5869,-503,-719,-1821
1613,509,-3049,-38,1775,1990,1481
1614,-2196,98,3353,1786,-1697,722
1615,3512,1028,5471,1055,1501,-1626
1616,1309,-3435,-4193,564,-12,-503
1617,4056,5174,4561,-1310,1331,-43
1618,7500,-3957,5401,1373,-1432,-1570
1619,5735,4817,-4063,345,-1558,1237
1620,-6306,-1462,1043,-1532,-569,1054
1621,1021,-5155,6410,257,-1129,54
1622,2778,4066,-2179,-720,952,-1948
1623,-6529,-17,4636,-759,-629,-1858
1624,-1013,3896,1066,-1430,761,-54
1625,4592,-4871,-2681,110,-584,-1556
1626,-1291,-3995,-501,1896,-619,878
1627,432,7428,-1105,591,1666,1625
1628,-1676,5365,-2630,1667,1310,-1965
1629,3792,3957,2976,-609,730,849
1630,-7406,7822,3836,-940,557,-1256
1631,2460,-4227,-3190,-1284,268,-292
1632,-4841,-4098,7458,-1047,-1377,-1231
1633,1866,1653,1104,736,780,1084
1634,-5742,-7572,-3093,808,267,-1002
1635,-2475,-750,-4328,-1576,-589,-71
1636,531,-6160,6090,1525,-792,724
1637,607,4948,811,-55,-1625,912
1638,6985,7583,-59,881,-1636,415
1639,6430,5060,1085,-531,-1535,-1904
1640,3244,1060,-4782,-1692,255,-240
1641,-5803,-721,6376,733,-1600,434
1642,7690,6975,2409,-661,-1061,-221
1643,2685,6549,7837,-1237,800,-440
1644,-4215,-5982,-2516,-330,125,-1924
1645,7776,4394,-2597,545,-515,-1569
1646,5718,-6261,-6292,1522,-1298,1360
1647,7745,-1355,1158,-1641,-289,-730
1648,3402,-5032,2409,1648,-316,-1981
1649,-6019,5580,1460,1266,-9,364
1650,5721,-5825,-1812,27,-1889,1175
1651,-4343,-7379,3592,391,883,1627
1652,-6679,-1294,-7511,-838,-376,-529
1653,-1007,6473,6789,1165,490,419
1654,-5317,80,3844,-1341,-1488,-211
1655,-548,3354,6154,1819,1402,-62
1656,-498,711,-2803,-193,-1850,-214
1657,-326,-5354,-6727,-20,-1290,70
1658,4301,6323,-4630,1225,651,-438
1659,1104,4992,4634,885,-438,-1048
1660,61,6053,351,249,676,966
1661,5289,-3760,4491,-347,-1387,1415
1662,-2346,6206,-6061,101,799,1818
1663,-5877,4900,-6355,948,1984,412
1664,-351,5640,3062,-511,-1172,-938
1665,-5748,-7607,3926,-587,1839,1848
1666,-6132,6866,7617,405,889,788
1667,4640,-4353,-5511,1323,1233,490
1668,-1802,-4617,-1375,59,321,-1616
1669,4234,7726,6704,13,351,-54
1670,6748,-7663,2852,875,-1867,-139
1671,-4118,607,-4646,-1694,-876,-1048
1672,-1698,2832,6855,-186,-1942,-460
1673,2669,-7635,522,-82,-1694,-561
1674,3137,4003,-1087,-1083,1908,-960
1675,3361,7317,2939,-1026,-1597,-763
1676,-3519,-2855,-6131,-63,-143,366
1677,7377,7606,-28,-1824,1449,-989
1678,7800,62,4773,-1472,-277,-658
1679,252,-7373,-1459,771,808,-42
1680,-7196,6270,4650,-637,1434,-399
1681,-693,-67,-6111,-1138,-1202,1695
1682,4330,-5661,-4285,547,1090,1526
1683,-3559,-5088,-4144,-1415,-1262,-1777
1684,-7000,4227,3638,-1873,-1024,871
1685,-4631,6895,-6298,-86,-1391,102
1686,-3174,1212,6278,-128,214,1180
1687,4401,3038,-7622,1772,346,306
1688,7538,4058,3569,1458,317,-1370
1689,880,760,-5876,-1592,541,850
1690,-3795,-517,722,89,-1025,877
1691,-6650,7288,4334,-311,-298,-727
1692,6049,-1314,-2825,499,-1982,996
1693,-688,6007,-3104,1485,1275,1780
1694,6077,-7402,-6171,-1490,-1637,-1847
1695,-2955,-2641,3629,33,-1645,895
1696,-1218,7123,-736,-774,63,-451
1697,-6756,4912,-654,599,-1806,-1694
1698,-5823,-63,-2543,-1072,-1155,1793
1699,-4668,4019,-2970,346,1942,-1096
1700,3390,-6630,-1632,1037,-1612,-1125
1701,7145,3412,-4934,-1618,-757,-1568
1702,7884,-5846,4454,-1267,302,-1573
1703,150,-3447,5739,-720,-805,-857
1704,-1037,-2480,7810,-500,1549,195
1705,-6256,3207,547,1995,118,1773
1706,3053,-2378,387,904,1583,568
1707,7508,286,-7235,374,-1087,1475
1708,7978,-1795,3011,1113,777,54
1709,6795,2231,6247,1172,-1856,388
1710,4259,-4384,3911,947,-92,664
1711,-1033,2508,-798,370,1887,784
1712,-4683,5584,-4667,-1138,-92,-1773
1713,-2268,960,1513,-1046,-436,1396
1714,-2065,-2029,-4028,-1115,-965,-591
1715,555,-5762,2999,1761,800,1302
1716,5587,1169,-246,1999,1636,922
1717,-931,-1482,-1760,1000,-772,-783
1718,-3032,7815,-1027,1796,-1430,1732
1719,5848,5817,756,-1908,1386,-1467
1720,613,-7300,-7881,324,1925,-351
1721,5262,2301,-1673,-993,1383,-1866
1722,-5648,-3505,-1966,1199,1989,692
1723,2448,7740,2540,1854,-1328,-547
1724,-7049,-3105,4696,-1590,-200,502
1725,5619,1410,7669,-1849,-783,-1276
1726,3229,6098,809,-612,-10,1025
1727,1565,-5216,259,1822,-1236,977
1728,5190,-7560,-5539,-1321,-820,969
1729,835,1731,4205,-768,632,1191
1730,7117,-1494,-4701,512,1922,-226
1731,-5611,3895,-7161,-1671,1475,1153
1732,156,4342,727,1096,1419,-1428
1733,6166,-1764,-3955,-1559,-977,-957
1734,-4767,-169,6010,-1025,-1653,-385
1735,4201,-3793,3164,-1141,1160,-1368
1736,4784,968,-3941,-755,-511,1140
1737,6308,659,-6305,-919,449,1168
1738,5633,-1616,1065,-1743,-112,1245
1739,4743,-3062,6048,1552,421,-1605
1740,5751,886,3031,54,-685,1400
1741,-1233,6954,3385,-801,681,-228
1742,933,3648,3910,582,-1165,978
1743,-7040,-1670,-2683,1348,-1137,-834
1744,-5695,-2485,-7682,831,-616,-1543
1745,-6465,-3554,7969,-886,-1651,1139
1746,-7782,-45,-7981,-1431,-1516,284
1747,5408,-6056,-626,1262,-1950,-1242
1748,7500,7047,-6105,-892,1049,1001
1749,6649,-6744,7544,-1513,-1949,1980
1750,-7227,-523,7786,447,-1594,1904
1751,2102,6390,-793,-691,-1175,424
1752,-5428,-5471,4436,-59,-1906,354
1753,7030,-1681,548,-435,287,-1342
1754,6736,-2362,-4310,-1606,-577,-712
1755,-1951,-5219,-3732,1272,-1836,273
1756,-6553,-4953,4008,1513,119,-1100
1757,-5312,-3590,4096,579,-453,1122
1758,4518,-5432,7115,1648,39,774
1759,6604,2346,7384,-1676,-830,263
1760,1946,-3033,-6144,-380,1031,-577
1761,586,-4100,-1942,-274,-1632,391
1762,3214,-7953,7295,-277,820,206
1763,-3657,5083,-3262,-724,-1256,1548
1764,6073,-5954,3987,1226,-1429,-1737
1765,5729,6342,1935,-1338,-1947,1518
1766,4929,-2196,2978,-1511,692,-1929
1767,-5749,-5838,6014,-1987,-1071,259
1768,-7003,-3377,-766,-241,-229,-669
1769,4645,5586,6027,934,-1633,-807
1770,5001,4339,-7977,-405,795,1844
1771,-5016,-5278,-331,806,-108,1933
1772,3077,-3083,-2779,439,-1633,806
1773,-6122,4417,-5791,1658,-871,566
1774,-3626,5132,-3128,-1194,-1583,-382
1775,3133,-6468,5408,-623,-1279,-1917
1776,-481,-2667,4499,-1714,522,784
1777,149,-4217,-1514,1724,565,1939
1778,87,736,1645,-567,510,-1524
1779,7,3169,6996,1316,857,-1176
1780,-6956,5832,-2696,-1892,797,-1676
1781,6687,4619,-4853,-398,1213,-1093
1782,-111,5331,-2767,373,-1325,478
1783,-6777,6318,6685,-1531,296,236
1784,-1089,6327,-4331,-581,256,-565
1785,5895,7386,4061,362,-1365,544
1786,-6302,-4197,6574,-206,-769,-136
1787,-3914,-245,5594,-1081,586,33
1788,4212,-6503,7853,247,1364,-1076
1789,2260,537,1806,-853,-1437,-17
1790,-1284,-2974,-2633,95,1854,-1529
1791,1377,-4403,5517,-551,167,-1888
1792,-4379,5910,-3883,1325,-1229,-1181
1793,-2527,1850,-6772,1467,1267,-730
1794,2192,-7806,147,-1969,83,1034
1795,1828,6939,-6225,-1836,1065,-261
1796,-2535,-1008,-7591,1430,648,1601
1797,79,1877,-4109,429,-752,1028
1798,3778,6757,1924,-893,122,-1991
1799,1111,-5543,3270,-827,-245,-405
1800,5106,-7933,2801,1166,-468,-867
1801,-2891,-4755,4936,811,-1803,861
1802,351,-6367,6597,-1043,-1366,1059
1803,6433,139,-2883,83,40,210
1804,126,-3028,5973,-80,-821,-113
1805,-2113,5549,-6877,-1663,1178,-645
1806,-2202,-5960,-1840,-659,1015,278
1807,2313,-37,-2090,1114,1662,909
1808,6737,-902,-1882,1293,356,1684
1809,6777,-6106,-5499,-1823,1395,1100
1810,-6220,3377,-3263,505,1514,870
1811,329,7278,862,-1030,-155,-85
1812,2633,-6443,-1152,209,-1481,712
1813,5470,4694,5310,-1048,-1877,-331
1814,664,1022,-3629,-112,1258,526
1815,-4409,-1092,6150,-1619,1060,-113
1816,-895,-7930,2294,258,-493,1898
1817,5153,-1852,-1625,447,8,-916
1818,-7337,-5886,3073,660,-1195,-1129
1819,313,6209,361,1193,-152,-1916
1820,-6639,-3223,4781,209,-1156,750
1821,-5190,-1970,5699,288,-583,-557
1822,-4532,-464,3605,821,146,-539
1823,5067,-735,2893,-1401,243,1844
1824,4526,3474,-3489,-270,-16,-1632
1825,-5643,4636,-2255,1657,1281,-94
1826,1644,-1774,6896,-778,-910,1724
1827,-1375,3628,-2664,1935,631,-1595
1828,857,-2210,-3753,-132,-1266,490
1829,-6746,-1139,-4214,1467,303,854
1830,3679,824,-6301,-662,-1301,-1271
1831,-3027,-1172,-1368,806,-1322,-958
1832,3654,-5244,1007,1566,139,-1545
1833,-2582,2553,-4726,1430,1738,31
1834,3990,1779,1984,1627,457,-1998
1835,-5835,-578,-4882,-1434,-381,146
1836,-5273,-3788,165,-890,-1703,-299
1837,-1603,-3773,-2776,-566,-254,-1563
1838,952,-524,5166,-1413,-1557,1482
1839,-2379,-3765,-4380,-1479,478,1032
1840,4684,6507,3086,1644,-967,-1860
1841,-1027,-7012,4215,219,-1055,-1383
1842,-7928,6839,-7653,-1270,172,-794
1843,-3976,7146,-4021,4,-1156,1203
1844,-3492,2900,-2673,690,-433,-1104
1845,-1834,-4167,-677,-894,-1584,240
1846,-5261,4667,1203,-1441,1856,-1253
1847,-1018,-5361,-4002,-294,220,-355
1848,-6353,-821,3426,-1066,-744,-1892
1849,1471,-1883,4945,208,-802,1803
1850,-7291,6313,4139,685,-1085,-1536
1851,1693,3461,-3221,-1902,1023,-1805
1852,4656,709,-4624,-1080,-1610,1908
1853,7824,-3497,-4497,1384,843,1996
1854,7392,-7604,3562,-731,133,640
1855,-4098,-1378,2196,-1237,-1698,-1157
1856,-5929,-555,-5039,783,1136,-1587
1857,-2659,5901,-5503,1832,721,322
1858,-7106,7266,1720,-856,-1856,-1405
1859,7882,6510,5453,1413,-1129,-960
1860,6984,-2802,6730,-372,-437,-935
1861,-5018,-4527,5847,1975,1453,-947
1862,-2314,-5183,-3261,1772,-301,1664
1863,2990,1,-3251,1311,833,1188
1864,-7203,-3536,1798,-1641,-162,1834
1865,-2691,6084,5761,-186,956,-1651
1866,3960,5317,4228,-610,-1804,451
1867,338,7985,5074,1261,349,1760
1868,5206,-2742,738,1679,1976,-1052
1869,1365,4412,-325,-1813,-1980,1280
1870,7520,-2714,5520,-908,-219,1229
1871,2320,-2787,-4180,-23,-1122,726
1872,-2565,3892,-4402,202,-1910,-2000
1873,4228,3383,1218,376,-1728,-907
1874,-6590,-4673,-6026,349,1977,-451
1875,-2897,-7867,-922,956,-1958,250
1876,-3910,-974,-2697,1764,1015,362
1877,6757,955,-5824,-1074,1435,1871
1878,5792,-7822,-4188,386,1288,-78
1879,7903,6706,6136,-1548,-1100,1327
1880,3068,-6377,6020,-297,1632,289
1881,6729,-7555,-6364,381,-1970,-510
1882,-7051,4755,-6619,-1024,1399,1023
1883,-5763,4655,7104,605,630,-1296
1884,-4920,-1191,2875,233,-1197,-1058
1885,-2780,4882,1409,-1597,-1113,827
1886,-6698,-7600,7591,-1148,-1314,-1905
1887,-2057,748,-3638,-1027,-1048,1534
1888,-3162,3069,-5845,-1327,-787,-1043
1889,4591,-7903,5622,-1397,922,623
1890,2687,5638,-5386,-1861,-157,1461
1891,6547,7342,-2650,-1453,522,-918
1892,7937,-6512,-3066,-1814,743,1437
1893,-3290,7869,-5747,1448,-1593,-1048
1894,3457,5236,4112,-475,-1537,178
1895,-6928,2185,6329,374,1682,-364
1896,602,3405,-2405,1657,622,527
1897,-6658,4031,-7639,1226,-94,898
1898,1224,7725,-1048,-466,134,-431
1899,-7795,3389,4496,-1344,-728,1062
1900,-5100,-1254,-7680,-203,-1233,-1697
1901,3258,1654,2650,848,1816,-1556
1902,3808,-2866,-2961,1561,1885,-190
1903,1913,-3174,-1516,1248,1182,671
1904,-7451,2963,-5873,1361,99,-639
1905,-2278,7567,6119,416,-208,-1052
1906,-1120,-6872,5034,1639,-316,494
1907,856,5015,7711,689,217,110
1908,-6261,-7802,-1062,1689,1052,423
1909,761,-4420,-7706,-937,1116,-104
1910,-7149,-7058,2960,-101,1349,559
1911,1075,4285,2176,-1289,1510,1178
1912,2962,4301,-468,22,-347,720
1913,7584,2629,-3249,-1174,-1933,526
1914,-723,-5035,4871,326,-1417,-495
1915,-4795,3746,4239,-1775,-1883,-1858
1916,7648,-4910,-7230,-1340,1474,-1235
1917,-6012,7252,3715,-977,668,505
1918,-7184,-2255,95,1331,-544,-1202
1919,-7219,-7855,5881,109,1892,1499
1920,-7295,-2443,-7147,571,600,1628
1921,6881,-1375,124,20,-1791,1082
1922,2771,-6056,-1468,-1161,1942,-27
1923,4204,7853,-6136,1494,-1015,958
1924,-7437,-688,-4392,-907,372,-634
1925,-2693,-7488,7146,-279,1984,1246
1926,6947,-6090,-7720,-1743,-417,-1298
1927,-129,-5821,3696,-1653,206,1041
1928,4084,6903,6306,249,1054,-208
1929,-4561,-5733,-2256,541,285,1192
1930,2599,3865,-2293,-348,-300,1113
1931,-6330,2277,-4400,709,1187,-759
1932,-6650,-3360,-2216,444,1657,-1509
1933,6020,-7987,-3539,-1107,-1660,-1948
1934,7091,-3542,245,-1096,1973,868
1935,1665,-4608,5638,-1143,-853,-1931
1936,-5854,-1834,-3181,911,-1962,-1060
1937,3584,-7962,5971,1776,1351,-1608
1938,-4511,4457,-3713,719,-480,387
1939,-4474,-3137,3266,1314,831,-391
1940,-5407,1031,2141,-973,-1725,1314
1941,-6382,3945,2697,397,940,1958
1942,-2810,-6231,-5239,-1437,1234,1991
1943,-2241,3697,669,-758,-700,1332
1944,-6999,-7133,-5285,-1166,-154,170
1945,3142,5793,-5306,987,1984,1457
1946,-5448,1711,959,-884,342,-744
1947,-6626,-1221,6943,-311,146,1792
1948,-5255,835,759,796,-691,-318
1949,5663,7334,-264,-1706,-1949,1193
1950,7737,865,4277,1429,-1607,-489
1951,-4471,4312,-60,1903,1135,-765
1952,-1281,-4217,-4805,-1526,714,-1182
1953,7868,-541,-2309,1260,-1200,829
1954,-7019,-895,4881,-75,-1887,372
1955,-5691,5704,3978,-1144,-315,-1911
1956,3733,-6695,-4404,281,-1486,956
1957,640,-699,-7928,649,732,1190
1958,6772,-2910,464,1580,-359,1502
1959,-5608,-3988,-7437,-479,1022,-1729
1960,-3965,4234,-2247,291,1520,-157
1961,-6389,5103,2508,-872,-438,538
1962,5623,-1845,2982,-878,590,1383
1963,6898,1180,-6256,1144,375,772
1964,-3956,-2534,3379,1954,-1334,-103
1965,-2306,6420,-5552,1120,-94,-321
1966,3329,-7681,1637,791,544,-414
1967,3924,70,3006,-403,-1754,602
1968,4376,-4804,4997,-895,565,1452
1969,676,6115,-122,315,-123,-1028
1970,4872,-2960,-7157,-1200,804,1716
1971,619,-4448,-4675,-739,1761,1779
1972,4423,2805,-2858,697,676,-856
1973,-4791,643,-934,1526,1608,100
1974,-3485,3825,6279,1158,-58,1738
1975,3910,-7938,5625,-1320,612,1
1976,-2613,-2999,-3719,-791,386,-977
1977,-1231,3355,7517,-1664,482,890
1978,-6063,5005,3510,-916,1993,1835
1979,-1020,-6312,7982,1443,508,-1578
1980,4252,-1824,-5903,1108,1143,-23
1981,-4883,6560,-7971,1334,1693,-1490
1982,-6202,-5252,392,-1525,-209,959
1983,-3886,5054,-2692,317,1413,-423
1984,1021,6718,-1190,-1321,-570,1799
1985,-3845,-7878,622,1157,559,48
1986,-279,5109,3490,-510,800,1786
1987,-7017,-4316,-5191,-216,816,858
1988,5936,6010,2249,186,-1770,-707
1989,293,-2387,-6700,-1085,-1469,-31
1990,2690,-6639,41,528,1353,818
1991,7519,-2631,4306,210,-1875,837
1992,4261,1234,2743,1368,490,-1201
1993,6644,3847,2843,1772,-890,-1653
1994,3159,-6537,-1427,-1774,748,1385
1995,2486,-3404,6396,1567,514,-1446
1996,-6060,-3420,-6461,750,1253,651
1997,-7078,-3051,3496,-211,922,1398
1998,-2809,-3212,4645,-1079,-1224,-1882
1999,7829,1990,6824,-1484,-1717,700
2000,7320,-3047,5955,-1108,-1158,164
2001,7803,6615,-2568,74,366,-928
2002,-4264,-1655,2036,-154,-1227,258
2003,316,4818,2587,-1981,-1727,779
2004,3783,-1345,7274,-1868,985,-1340
2005,-6620,912,7965,1981,-1320,1748
2006,-3943,-7549,-6749,253,269,454
2007,-5257,-7720,457,1836,-808,1089
2008,-902,-3698,-3185,-1979,1187,509
2009,-3733,3808,124,683,-174,503
2010,-3,7392,6283,-38,1207,-468
2011,6436,6794,-5876,-760,1799,341
2012,7430,-3431,4117,1661,1730,770
2013,1084,4365,-1618,-995,-1429,1566
2014,-2553,7946,5842,-669,1395,0
2015,-3952,4875,5053,121,-355,1048
2016,4018,4385,3399,379,1241,1099
2017,121,824,6839,234,-478,1730
2018,-6112,942,4771,-1845,-1468,923
2019,-2406,4279,-3176,-925,-664,325
2020,4088,-5417,2502,272,-838,13
2021,-6700,-4383,396,-120,-1319,-501
2022,2241,2040,-7723,1423,-202,-935
2023,-4756,-6115,-1370,-576,-1635,-661
2024,1322,-4627,-76,1231,-1394,-1505
2025,4556,7320,680,-402,462,-908
2026,-2964,5921,-4305,1316,1137,583
2027,563,-4436,7737,539,1061,1076
2028,5608,124,-7322,-1625,-67,1541
2029,4647,-3833,4156,-319,796,-1641
2030,-2751,-7149,1981,1494,-1632,729
2031,-6684,3690,3573,1217,1671,1969
2032,5537,4973,6784,1445,-1261,-1792
2033,-7464,7935,-2864,1112,-205,-1580
2034,-5626,1748,4736,-1020,-960,-1892
2035,2241,6835,-2264,1246,-1008,-17
2036,-4234,1693,5507,227,-1373,-1926
2037,-6633,5429,-5081,-1470,-346,-1442
2038,-7556,5321,6543,1541,-152,-502
2039,-7438,4710,7028,622,108,-1240
2040,1113,-6100,-6713,-1399,115,-317
2041,5426,6544,5105,1908,646,1877
2042,-3424,-1533,-6370,-752,936,918
2043,-2307,1386,3293,985,-765,1818
2044,-2368,4106,2010,773,1997,455
2045,275,1353,-3154,-778,-910,-292
2046,-1445,-2683,2773,1151,-1791,1083
2047,7008,-5280,-7626,-1726,-614,27
2048,4143,7685,5002,1476,1537,-1612
2049,-2130,-7808,7027,-1738,13,1314
2050,7960,-1058,-5023,748,-614,-1912
2051,3910,-4958,-1284,1371,783,710
2052,-5514,2750,-6766,1793,-289,1880
2053,-2487,6064,-2873,594,1820,509
2054,6398,-6674,6502,-881,-1202,1183
2055,6488,2922,-7898,497,-1529,-370
2056,-5730,7430,4153,863,-420,761
2057,2817,5997,-7624,-1204,-984,-733
2058,3909,-6960,1761,1793,-114,746
2059,-2361,-1628,3458,1690,1402,1300
2060,3318,-3573,7910,-388,488,31
2061,-4,-5953,-2394,-1542,865,-577
2062,1253,1310,-505,100,-460,611
2063,128,4740,-2961,-1778,-1340,1193
2064,3366,84,4666,-783,-1469,-911
2065,-6314,7282,2944,287,788,431
2066,-5005,-1995,602,806,213,-1057
2067,7410,-3232,6752,1658,-145,795
2068,451,-6192,-1826,-801,1411,-1621
2069,2338,-2919,197,1771,-1066,313
2070,5977,-4085,-7872,1845,935,-1905
2071,-4593,-5128,3932,1970,1542,-1126
2072,497,7676,-7671,-1738,193,-1938
2073,141,6540,-2398,-731,1814,1436
2074,-7770,-7326,-7135,-209,1394,-1316
2075,-1658,-924,-155,16,-1493,1389
2076,-5314,2180,-5930,-744,-1182,735
2077,-6671,6122,4460,1631,-541,-1169
2078,5574,3011,-1381,1622,1483,-1921
2079,2054,923,-2542,941,-688,1543
2080,7789,-22,1735,1870,-99,-13
2081,-7082,4160,4688,1684,-1963,-170
2082,-722,7918,7426,-95,-1443,371
2083,-4881,-2270,-1864,-1011,-87,1821
2084,-192,1312,-3356,1071,-1002,228
2085,5604,-5610,6262,294,699,-18
2086,-701,7297,-5653,-331,-472,648
2087,-1028,-4372,3711,-962,545,-445
2088,-5809,7286,6050,1069,288,-1350
2089,-1411,-1843,845,330,1937,-674
2090,2956,7116,-2899,-357,-1371,-929
2091,3635,-251,3043,1037,-1003,-303
2092,6587,4343,-4995,-1156,-1585,-1241
2093,-3530,5296,6470,-1201,-1641,627
2094,-4383,-7690,-6465,397,427,458
2095,-3295,-4249,-710,1668,1924,-917
2096,163,-6894,-3512,368,1731,1722
2097,5286,-6758,1411,1671,-1813,1850
2098,-1607,3027,-1849,-191,724,1792
2099,3396,-7048,-5255,-1161,1779,-20
2100,5868,2247,-3407,-611,408,709
2101,-3605,3190,3946,710,1848,-1295
2102,3998,704,-732,-1802,616,34
2103,555,3595,-5644,-1794,1631,-1165
2104,849,2467,3545,191,1730,-1309
2105,-5773,5412,4735,-1214,1819,1508
2106,-2760,-7088,-3197,-127,1360,72
2107,-1772,5715,1531,-1052,-1790,414
2108,-4055,230,-463,83,-789,323
2109,-5144,7910,-172,1232,423,1802
2110,-1923,2219,3321,990,-1847,-1019
2111,7041,-265,-6423,-123,538,1599
2112,-5279,-3080,-7054,-914,-667,930
2113,2226,-2446,4551,-1000,-894,-1698
2114,2076,4371,-6029,-248,872,1203
2115,-293,3318,-768,-1136,-1555,-568
2116,6756,-3693,6460,428,-568,-1308
2117,2548,2763,-6602,1425,-932,-412
2118,4950,7614,3323,44,322,1870
2119,7689,1712,4032,1021,-536,382
2120,7263,101,939,-923,-1677,-1546
2121,-387,4118,-2488,-421,-68,-1967
2122,6922,-2807,-1713,-533,983,1618
2123,-860,648,754,-178,1811,383
2124,-1760,5567,-2697,611,-559,148
2125,1664,-5284,-7107,924,1507,-663
2126,1320,-860,2044,-26,1180,-1243
2127,-5559,-7744,1063,460,834,-42
2128,4793,2660,-173,900,35,1082
2129,4754,1054,-3312,-7,-5,1114
2130,5797,6752,38,-1535,1300,-781
2131,-1955,-3077,-79,192,-1525,-710
2132,5121,-945,-4783,151,809,-1902
2133,-191,5221,-365,-1168,-1199,-278
2134,563,3588,-2291,112,-1487,651
2135,5156,-334,4394,714,1917,-1611
2136,6774,-6185,-5920,-1985,-1849,-987
2137,6924,-3650,-6661,115,1037,-1619
2138,5076,-1873,-4932,1306,-318,1317
2139,1115,-745,-4856,485,-1557,-748
2140,-796,-4923,1196,-1256,843,-965
2141,-6462,-595,7628,1832,1845,-955
2142,-5469,1965,2731,1118,844,1197
2143,2115,-2042,5599,967,-463,555
2144,2855,-3121,-7011,-1260,1196,-408
2145,7457,7867,2419,-224,119,-1462
2146,6846,2213,-1862,51,1701,-1708
2147,-1978,-5001,3009,-762,66,-279
2148,-1439,5227,6656,532,1505,1455
2149,-581,-7708,-80,-891,280,1488
2150,2518,7726,-1701,254,1229,1535
2151,-3972,-3177,5379,1320,435,-1222
2152,4725,7145,5165,1867,156,1579
2153,-7879,6081,3747,-238,-1061,105
2154,2764,-522,1736,1113,1073,1685
2155,-3839,7562,170,529,790,908
2156,5191,-4362,5166,-1921,413,1844
2157,-4820,-5569,-7032,1242,248,285
2158,-7275,-5935,507,596,987,1819
2159,4253,-3909,230,494,1736,-655
2160,3575,3992,2921,-285,582,-282
2161,-706,6979,5188,1858,-450,-254
2162,-2315,3985,3373,-1206,1564,1079
2163,817,-2095,3493,-1112,-27,276
2164,-3376,-1189,6884,-1876,1234,-7
2165,458,5042,-5923,-186,875,-1369
2166,-6430,1358,6433,-730,1973,1640
2167,-1639,-5219,3216,1633,459,1310
2168,-1798,5047,-5193,-1608,891,905
2169,-1237,358,6735,1358,588,-1641
2170,3640,1464,6832,-1235,-1533,308
2171,5519,309,-598,908,1841,342
2172,-6149,-6372,-5975,452,-959,-163
2173,-2389,-6843,3422,-134,-131,154
2174,1753,1020,-145,-1254,1937,-280
2175,3559,-100,-3561,1360,-1807,-404
2176,367,7064,4464,-1987,-548,1858
2177,5523,5838,-4829,889,-1664,545
2178,-4550,-1102,3718,495,-1603,-1437
2179,1845,5786,-5496,220,-1305,1212
2180,-3218,3910,3072,-416,1607,-1632
2181,-1603,119,-4671,804,1022,542
2182,4538,7348,-4259,-1057,1235,-1717
2183,-4449,-2931,6695,-1133,-54,500
2184,5043,7564,-1778,-1625,-1559,1657
2185,6130,-1522,-7921,-7,1735,-791
2186,-107,5758,7200,-1769,-404,387
2187,-3345,4481,-1347,352,573,-821
2188,7733,-4438,2433,-1390,-305,806
2189,-7853,4331,7278,-1836,793,-1094
2190,-7281,1442,-6614,1398,-1941,-569
2191,7137,-3452,-1043,85,-179,-1656
2192,4315,6801,2287,-41,744,1004
2193,-7475,2004,-444,-1076,1752,1601
2194,4395,-854,-1107,196,-1997,1132
2195,6814,2152,-989,184,1292,-1939
2196,-3516,-5304,-6928,1176,39,717
2197,-7021,-1131,6043,-337,-1310,-885
2198,-3892,-3338,-3480,123,265,1602
2199,-2272,6095,-339,-260,130,-1525
2200,-3753,-6567,-5460,-1280,-431,-1394
2201,7246,7523,-5875,1236,-738,1847
2202,2908,1003,-1224,1024,476,-1891
2203,-2074,-879,-5305,-1041,660,-1590
2204,6651,-3454,4561,752,-1342,-1172
2205,3722,-6339,1698,677,1975,-1479
2206,-5202,7476,-317,-385,819,1476
2207,-6588,-3825,-7804,890,-453,-1569
2208,7183,4343,6059,183,288,91
2209,-2393,-1163,-5427,861,-74,909
2210,-2762,-1662,-917,-1163,1208,-370
2211,5854,474,1567,374,-1972,1582
2212,-2605,-663,-4825,-1621,-1198,-422
2213,4324,-4583,3792,668,1597,1601
2214,5965,7605,7754,-296,-1378,1168
2215,3583,5678,5012,791,-920,-500
2216,6471,6820,-5357,-905,-339,-1857
2217,6187,5673,1916,102,933,938
2218,-592,4213,4568,1481,315,-1892
2219,5198,-5396,-7124,-1481,-139,147
2220,-2113,7765,-7317,964,317,-297
2221,237,5989,-5228,-1390,936,292
2222,-2670,5069,-4218,204,-1106,-741
2223,-2679,-2228,-112,722,515,-610
2224,-7819,-6353,141,-722,617,1373
2225,-4776,-2212,-4927,1203,1998,-751
2226,-5115,7370,4104,-976,1442,-217
2227,6634,5226,-5414,-439,918,-156
2228,3737,-1565,7425,705,1471,-767
2229,3853,-7068,-2390,798,515,-1221
2230,-7498,-2941,-6061,-430,-1254,1077
2231,3268,1725,-5643,308,-989,488
2232,2057,-7554,-6807,-1109,-762,91
2233,4616,-1513,343,-1519,-1203,-463
2234,4570,7340,1199,282,408,-841
2235,973,7918,7268,-858,-1124,-342
2236,7474,-7393,3195,-1626,46,1245
2237,523,-2253,-7748,1529,1362,1819
2238,-3801,209,-5284,-1606,247,-594
2239,6361,-6031,4008,-1158,-323,1245
2240,-6948,-1164,2480,-1553,568,-465
2241,-2981,5574,217,-1917,527,-1664
2242,7762,384,-3075,1081,1403,-1718
2243,827,6224,2809,-1874,1383,-1120
2244,-3896,1917,6316,-9,-572,-1423
2245,7539,-147,-74,-1713,-1733,670
2246,4523,-4476,6246,-1054,61,1922
2247,6133,-2568,-6584,65,-177,-273
2248,-3801,1070,768,1263,1409,-1988
2249,7784,7818,4550,-119,832,1687
2250,2246,-5361,-408,-1327,1128,-888
2251,-561,1931,-1502,-84,-1753,-1958
2252,3191,-4970,-195,1296,1999,-1680
2253,3010,7486,-1224,-667,-1428,1636
2254,-7338,-4187,3520,1949,1175,22
2255,-2541,1711,4577,-246,-674,-1525
2256,7926,-2183,-4229,1629,-77,776
2257,232,-2171,-778,1659,-1027,1475
2258,4406,-6684,-4715,-608,953,-1839
2259,-2571,-60,-4021,1795,900,1334
2260,6828,-4057,6997,1015,-915,-1564
2261,4100,6912,5559,525,980,1965
2262,-5121,649,1753,-481,1144,162
2263,-3647,-6153,3572,-1458,462,-746
2264,5827,7944,-5978,715,-1390,1792
2265,-4432,4550,3534,684,-1505,79
2266,5091,-444,-7705,-1797,1656,-1589
2267,-1500,-7464,4056,-199,1311,270
2268,-2719,1903,7419,90,1158,958
2269,-82,-6171,-6627,-1078,1725,1442
2270,7489,5938,3960,1626,943,-1134
2271,-5170,1426,-962,451,1114,-143
2272,-6115,-1786,-5185,1009,-1063,1216
2273,-1911,1588,4473,316,1773,1660
2274,7547,4059,-1791,-477,-274,-1025
2275,-2120,-3989,-2492,984,1711,-1709
2276,2910,-6032,621,932,110,1006
2277,1318,-1863,-3058,-1738,1346,1761
2278,-2143,-5941,6408,913,-314,1578
2279,-3893,5301,-4822,-1789,1424,875
2280,450,6452,-4904,290,1226,1426
2281,-6242,5018,413,-445,-1665,-1921
2282,829,-7470,1557,1677,-790,-1771
2283,7796,6113,3553,71,1924,1236
2284,-2625,-1306,-5981,14,-1886,-564
2285,2502,806,3764,-1308,-661,-328
2286,-7637,6213,2236,-618,1272,1020
2287,-1967,6307,6767,-250,-259,1238
2288,-2825,-7079,-4779,8,1110,-1075
2289,-6982,-89,-3988,1158,1442,-1302
2290,-5188,-3151,-1099,-21,-452,1891
2291,104,-7106,-7447,450,-1492,100
2292,-520,2386,-4072,-1638,-1123,-1618
2293,-7693,-7334,5001,1292,-935,180
2294,-4884,-817,-2541,-232,-1338,-890
2295,-6606,5655,5162,-225,-1967,-1463
2296,3631,-3743,7401,1600,-1688,-1426
2297,-807,-6640,1129,-1926,-778,1327
2298,789,5856,-6904,-1513,800,-521
2299,-2190,-157,5950,784,282,-799
2300,1758,-7852,-1774,1033,1116,1631
2301,-6554,-7408,5552,1421,1898,-959
2302,1625,-7504,-5248,-729,634,-239
2303,-7049,-386,-6473,1325,1932,345
2304,-2604,-2130,6786,-1166,1731,-872
2305,-1288,3026,1982,-1628,1994,-386
2306,-7964,7185,7769,587,-877,-571
2307,-5709,-178,-3901,-336,-1707,1299
2308,-4552,-2540,3418,130,-1665,-1662
2309,7919,6517,-4231,-1499,-2,1992
2310,-7079,-1201,-7191,-1826,-565,364
2311,5902,4410,4739,143,-476,-248
2312,-4106,395,4510,-1383,-1514,-1199
2313,-435,491,1397,-1465,409,1131
2314,4985,-4033,7584,315,1627,-219
2315,-897,5083,6660,1314,-1233,-605
2316,-1459,133,956,791,1218,1777
2317,543,3928,503,1524,1049,-393
2318,-3667,-5658,4872,848,-286,82
2319,-1767,-2426,-6150,118,1267,1403
2320,2776,-6222,-3585,-476,-617,1404
2321,-3888,-1577,-5533,1807,1248,1905
2322,-6089,-2981,5113,-356,474,-1359
2323,4641,-1540,4406,-165,181,441
2324,-1869,-1481,-338,-1498,65,-122
2325,5498,2535,-2614,-49,934,-1629
2326,11,-5685,2701,-1835,-1927,186
2327,1763,7012,4067,1031,252,121
2328,-7353,5217,-4176,-159,114,1169
2329,1785,5429,-5063,1471,1183,-1173
2330,-875,-893,7838,1759,1500,196
2331,-351,-1300,6961,-717,-1692,-1820
2332,1732,-7359,-1991,683,-46,-1421
2333,-6760,1572,-3581,-1461,-534,-737
2334,-6695,-3823,-550,1048,1641,1934
2335,-4138,-4058,2833,-1835,-1869,596
2336,-4626,109,4021,-726,6,-91
2337,1669,6321,-1274,-1896,193,1789
2338,-5928,-4963,3732,1566,-68,585
2339,527,1232,5990,-823,1693,139
2340,-6068,-618,742,21,-1971,1303
2341,1064,1321,-6443,286,154,1460
2342,7754,-4018,-3468,-1880,-1349,437
2343,6633,-6154,-6928,337,-1038,1272
2344,4288,-1542,6059,1547,-1486,-955
2345,7204,2274,6412,1866,1339,965
2346,7090,5064,7958,-965,1334,-1106
2347,-4174,219,3504,-794,-1030,-579
2348,-1834,627,2230,-1652,129,483
2349,3809,2109,7223,1916,-1567,-635
2350,4552,404,-7000,41,-1117,-350
2351,2235,26,-6086,-502,-968,-1584
2352,6520,7522,6389,-1061,-282,396
2353,2885,-3353,5632,235,618,481
2354,654,-6492,-7209,1710,1663,-1102
2355,-980,-414,-1130,-1095,-1907,-901
2356,-3694,-6540,1451,-1569,174,-1492
2357,-4458,-1661,6308,1425,1112,-421
2358,637,-7148,5131,692,-1447,1400
2359,1225,-4197,7202,-540,1723,-768
2360,-7954,-2331,-116,-1714,1701,-683
2361,-685,-6525,-3583,10,1474,1548
2362,4136,2274,6235,1932,-1588,574
2363,-6431,-1045,2084,-584,-1126,1634
2364,6471,238,4329,-1136,1319,-1321
2365,-5045,-3265,-5062,-1237,-946,582
2366,-1749,453,1487,-807,993,1737
2367,1343,6205,-7217,445,-1595,318
2368,123,-1842,-723,9,300,-1297
2369,6862,-2810,498,-1760,-312,1926
2370,7484,-4429,-1693,-675,-525,-38
2371,6859,-5401,-5885,-39,1114,-305
2372,5738,-323,-3473,399,-1485,1347
2373,-2091,-1430,-406,1428,-1674,296
2374,-4072,-187,1005,-364,-507,130
2375,-4379,7286,-6711,90,1656,427
2376,5488,-2744,4052,-1672,-275,1717
2377,-6358,-3775,1734,342,1781,-1386
2378,-5321,-6101,-4140,1078,-484,-1581
2379,-1020,2033,-3893,1275,365,-551
2380,5879,4798,-5659,399,-897,-622
2381,1245,-2250,1730,-271,1998,384
2382,-7448,-6534,3271,-1637,-1663,1484
2383,-3330,-4113,-5238,-1484,1543,-1472
2384,-7853,-5521,-7058,1399,1657,-567
2385,503,-3332,-6721,1587,-529,-539
2386,132,-7382,6823,-1813,-499,1718
2387,3950,-6618,6346,1365,-1621,-1123
2388,7507,2863,3518,-1064,1570,242
2389,7003,-6056,5169,-1953,-502,-250
2390,-2827,5555,596,111,1134,-398
2391,-534,4272,155,1209,-393,-970
2392,-6202,-3607,-1908,92,17,620
2393,4639,-1181,-2195,948,-1220,-1924
2394,-3029,-4961,7405,-1198,760,1130
2395,3715,-155,-3535,-1829,-647,1303
2396,-4730,-7286,2354,58,-1530,-1285
2397,-4780,-3786,-2511,-1310,-852,-1367
2398,2941,-1138,598,1354,260,-741
2399,-4840,-5988,-4442,826,-1495,1320
2400,-898,-2005,-288,1737,789,1241
2401,-6485,-4851,-4597,-1386,1043,-1064
2402,4872,-4769,-218,-1008,-823,65
2403,-1782,-3744,-1320,1341,-1320,-980
2404,-4583,5362,6591,-1570,47,-215
2405,-6327,-5555,7473,1214,-1498,-1154
2406,5873,-4165,2311,-338,-862,-1769
2407,4046,-4808,-7968,282,-779,559
2408,-1841,2870,3062,295,130,1753
2409,6988,1551,-3402,-761,-39,-1471
2410,-4086,-7867,4871,-1230,-520,-596
2411,-7337,2661,-5279,1178,1683,179
2412,-7514,7373,-6180,1430,1511,1487
2413,-2498,-6823,-838,1628,1505,1289
2414,-6088,1576,6416,1591,-558,1165
2415,-6508,5992,925,-1510,307,-1047
2416,-4741,2776,7689,-348,1330,-1326
2417,1237,296,-2085,-6,47,1210
2418,2811,6399,-1882,-731,1288,-107
2419,-2487,3462,-7317,-1573,-1157,70
2420,-2849,7646,2842,-1169,-670,-1064
2421,817,1781,-3351,328,-1750,-44
2422,-3826,-5691,-5937,677,-531,-297
2423,5999,-707,-6138,287,1132,-682
2424,-7869,-834,-4207,-1637,1476,1627
2425,-5626,4744,3639,670,-124,807
2426,-1661,3184,-5281,1620,-200,-1764
2427,3921,-6256,3942,-1913,1525,187
2428,876,7174,3760,950,-1995,1218
2429,1719,2651,4401,-449,-260,1883
2430,5757,-772,5158,941,308,-526
2431,-413,5752,-5541,183,954,1787
2432,-3030,-777,6233,94,1161,-443
2433,-5448,-2637,244,-256,426,-154
2434,-1759,-4632,-1234,1419,1180,51
2435,2004,-2463,601,-476,-16,-1664
2436,-3497,3421,6550,467,-1585,-30
2437,-1132,-4626,2603,174,1386,-746
2438,1793,-3961,677,1274,-1529,385
2439,-7111,4233,-4381,1361,87,1854
2440,7862,2820,-3359,-707,1247,891
2441,6118,6127,-6281,30,-254,906
2442,-7815,203,-948,509,151,1964
2443,-1367,-4254,4710,1972,-1907,187
2444,5793,6639,-2380,-1961,1964,239
2445,4800,6733,-7760,-1307,-1256,-1134
2446,-2772,4302,7398,677,-1865,684
2447,2722,3053,4530,1883,-835,-198
2448,-163,-3804,799,-1339,-1187,805
2449,-4869,-5702,-5484,621,-1826,1450
2450,6154,-857,3108,1247,-988,104
2451,4767,3020,-3851,581,469,-485
2452,4100,-2900,-3093,1877,-1587,1590
2453,-6540,-2364,828,-1758,304,1112
2454,566,-3123,-1743,614,-1154,1807
2455,-930,7747,2183,-291,662,-1773
2456,-1081,6441,5003,1391,-1880,-1957
2457,4620,-734,7697,-413,1097,1816
2458,5704,-7222,6282,1583,1305,-1585
2459,7660,-6278,6347,545,-53,487
2460,-5429,7296,-7666,702,-403,140
2461,-1938,4908,152,1154,1843,611
2462,2248,3564,2316,-257,1256,571
2463,-1141,-2125,-7877,-1193,-417,-267
2464,-6298,6436,7610,1059,138,-135
2465,736,-3502,5063,1708,1245,-535
2466,3973,2165,-304,1594,-1381,601
2467,4048,6941,-5594,-1021,-736,953
2468,4392,2404,2204,-1948,-1074,682
2469,3488,-5260,-6286,1301,-1855,-606
2470,-4525,-162,3597,-1593,-1956,-855
2471,7401,-820,6084,-392,257,-1628
2472,3354,3003,3298,1341,1429,428
2473,2301,6527,6512,-1309,1805,-412
2474,-809,5428,-3674,-915,966,-1245
2475,1584,7499,-2918,1026,1306,-1988
2476,6073,-7563,644,-1913,-1398,-1675
2477,7083,-7360,-360,-196,209,454
2478,1671,5353,965,-1676,1224,-745
2479,-2512,5909,3258,1120,504,1439
2480,2398,-286,950,-1191,1988,1339
2481,6197,5644,5953,-1753,1362,-1507
2482,-58,3329,-3955,-602,-294,927
2483,6822,-5939,-2139,631,1765,-673
2484,5882,4809,996,-350,323,222
2485,7718,-5701,-6360,675,-1362,-343
2486,5236,-5309,6330,380,-1916,-1022
2487,-728,2207,-4574,-1968,-1185,1711
2488,-588,-6166,1925,-925,696,-1785
2489,5571,-4688,412,1094,-571,-413
2490,315,-960,2288,-1094,1963,325
2491,1975,7482,2348,-1497,1061,-192
2492,-2193,-4015,-126,679,-1207,673
2493,5973,5006,6490,-1609,-1039,342
2494,2016,-4099,6906,116,240,1893
2495,1649,-5652,123,-408,553,-1696
2496,280,1205,-5893,586,1630,907
2497,2128,2697,7255,-1883,-1231,110
2498,1331,1234,6578,160,106,1770
2499,7731,-5361,-7774,1878,-510,1923
2500,-5093,-6209,1188,554,1739,386
2501,-4907,-6880,-1925,711,837,-455
2502,-5722,7946,5046,1010,-1002,197
2503,-319,-5526,-6,1393,327,-846
2504,-80,2534,-4744,835,16,-60
2505,-1807,6864,-6675,974,-659,468
2506,5758,-4240,2438,1836,854,-1612
2507,1296,3387,6825,825,-1946,1780
2508,6686,6220,-6242,1314,925,710
2509,-5449,-6726,-7713,-1402,-193,1184
2510,-2653,6087,-7209,-400,301,1806
2511,1193,-2039,4412,-141,1645,28
2512,7840,1653,4184,72,-1803,940
2513,-7193,-1266,-4948,848,-405,-37
2514,7175,-7691,-2344,-676,-1618,-450
2515,-677,-2771,-1492,1840,-1623,1652
2516,4591,7632,1399,254,1514,-107
2517,-4259,7699,667,-1362,-339,1878
2518,-4427,541,4352,-1404,1591,845
2519,-1873,3968,2015,-727,1265,293
2520,1511,1513,1950,1659,-1387,-741
2521,2199,-6209,-6903,-994,-674,222
2522,136,-7236,1318,-1172,1415,744
2523,-2692,-4218,7445,958,-720,-524
2524,1785,-376,-3608,-69,1755,1190
2525,3518,6627,-1249,-804,-1952,393
2526,-451,-327,644,-1618,1658,-1580
2527,6730,97,-6545,498,1028,53
2528,-1230,2685,1885,1385,-1365,-1553
2529,7982,-7550,3175,-612,171,357
2530,6913,4041,6149,-1603,-291,-938
2531,6900,-6601,4791,1296,574,-1853
2532,3478,-4624,-4235,-461,576,939
2533,7352,3544,2832,-1898,887,1989
2534,-2200,-2062,-1619,-360,1480,-398
2535,5592,-2543,-3584,-1818,-566,479
2536,-3345,-3925,-5220,-201,1644,1599
2537,-381,-2514,-7579,1332,256,-682
2538,-1877,3572,6805,1131,-896,1477
2539,-2460,-7671,-4313,1800,-1835,-1112
2540,5281,-4264,-3401,-1244,818,1188
2541,-7174,7443,4392,1217,1112,1181
2542,597,-829,3211,1622,-1140,1869
2543,2411,-3312,-6007,950,-1466,566
2544,-7938,-243,-5640,-963,1099,-1545
2545,-7818,-3717,-1933,-1929,-1943,837
2546,7828,-6310,7154,-1796,674,373
2547,-7717,-7383,-5960,-1321,-1604,661
2548,-7534,326,-360,759,135,-1029
2549,-1455,3517,2405,-1027,-460,784
2550,-7019,7157,-1682,-425,964,-31
2551,-5595,-4205,7213,1746,494,-1261
2552,4265,2992,74,1130,26,-21
2553,4702,-3684,-7604,874,-1954,-997
2554,-1957,-5748,4007,-559,429,-1932
2555,-4471,-1789,-7510,-570,1565,204
2556,908,1574,3808,1925,-826,1947
2557,-6390,-6961,2884,-314,1348,-1095
2558,4007,-7519,3481,44,-253,138
2559,-4800,2951,-5648,1965,-1532,1196
2560,1760,1607,2158,-1513,-722,355
2561,6606,6888,-7827,-1664,1489,-1102
2562,-4477,-425,3583,-1908,-270,-509
2563,-7775,7420,-72,-1297,-1859,1398
2564,-7359,5350,-4158,-1124,-668,1483
2565,2241,554,4626,-1637,1515,525
2566,6793,-929,-2416,1264,-217,-493
2567,-3579,6273,921,-488,1761,-1670
2568,458,4271,-7946,1655,1547,784
2569,-7291,7598,6806,-1305,-893,663
2570,-5039,7365,2644,-1066,1460,1122
2571,7988,-3212,2906,-432,977,-4
2572,-5762,3312,-1345,-1513,-8,971
2573,4356,-3996,-698,-1715,-408,-987
2574,-3545,4450,-7722,-1059,-340,1305
2575,-162,4751,3835,-1119,1311,1518
2576,-7932,3480,-3749,14,-97,44
2577,7079,-5327,-7169,1517,1170,-284
2578,5780,-4679,3316,149,315,-1475
2579,-2392,-6666,-2130,-149,166,-1392
2580,5532,25,2845,-761,247,789
2581,-6977,-3450,-999,-1828,-62,-485
2582,4060,-6378,5042,-974,-1645,686
2583,4872,7268,-6149,1421,-580,-1129
2584,-7915,6924,-5124,15,-1874,555
2585,4927,-156,2649,159,-327,1080
2586,6909,7193,-4083,-1436,1027,578
2587,7019,-5470,-7783,1318,-650,-338
2588,208,3257,4428,1932,1359,-1638
2589,-4329,-2742,3585,-1189,111,396
2590,4609,4407,-5929,1216,-1825,-1526
2591,7807,7045,-4513,-1068,291,575
2592,6872,7565,-6917,-1601,1933,-1455
2593,4360,-769,7358,-1958,-791,-771
2594,3539,-240,-7962,176,-1303,-1947
2595,1885,1734,7212,326,-454,-1580
2596,7016,-3235,4148,524,1275,581
2597,6322,-5708,7231,-889,1800,656
2598,-7138,-5636,-855,1373,1797,-1331
2599,-3964,2820,2824,585,1019,661
2600,-6945,-3410,6897,-1205,-1881,1654
2601,5461,-4807,6883,-160,-719,-1886
2602,6517,7929,4179,809,1573,455
2603,5956,-6262,283,-999,1009,752
2604,1339,-2791,3318,380,-1488,-16
2605,4968,7869,-3511,-649,-439,941
2606,439,7005,6204,1957,-1819,-1313
2607,-7507,-2836,-2335,-1539,743,-1008
2608,5845,336,-4318,1107,-1595,1159
2609,147,-6980,3526,1416,1080,-1394
2610,-7737,3864,3927,-531,730,-24
2611,-2534,388,-525,1919,-951,-1608
2612,-5915,-4647,4235,-68,-1445,981
2613,2078,4007,-692,226,-1689,908
2614,5578,-4767,-3346,1772,-338,-651
2615,3723,1606,660,149,-387,1393
2616,-2732,-3738,4952,619,1193,726
2617,-79,2636,3741,-624,-250,1920
2618,-269,-1097,4415,-794,-274,-1751
2619,-5587,-7829,683,-1107,1846,817
2620,-5214,5174,4242,716,-1635,1959
2621,-2848,6941,4395,-47,-164,-1853
2622,6504,-3151,7418,1878,285,-780
2623,-3723,4028,2630,716,-814,1296
2624,4665,-5907,125,1055,1045,1261
2625,335,1036,-6869,-964,-492,-174
2626,2120,-4805,1362,-1545,343,88
2627,3546,-75,-1530,-1070,663,293
2628,3029,6784,7531,1940,-1806,-1964
2629,1193,-1692,-6336,145,872,897
2630,4319,-2320,-3763,-1051,806,-645
2631,4171,5814,2131,915,-169,1143
2632,-4450,4537,7856,401,1361,685
2633,5080,-7938,6047,219,-1255,83
2634,2782,-5861,-1937,1738,1912,57
2635,-5164,-3608,-173,-151,1907,-959
2636,6044,19,-3626,-360,-1670,120
2637,923,7122,-6357,1516,168,252
2638,-5531,-1973,-7504,1971,-1769,1756
2639,-5131,1994,-1593,432,142,-73
2640,-2131,-1862,7396,1982,-1247,-1303
2641,-5287,-2097,5033,1428,386,1071
2642,-386,3617,6320,52,977,119
2643,1389,-4039,-7583,-586,-624,249
2644,-5601,-2612,-3805,604,554,-980
2645,1200,-3932,2940,376,-1247,233
2646,3699,-3997,-5094,888,1587,-203
2647,6782,-99,-242,123,1783,1471
2648,-6112,6845,1729,1025,-739,1910
2649,6234,-5832,-7837,-898,-1250,1742
2650,65,-196,-5150,1841,-584,283
2651,-6197,972,-7424,1059,-1203,1200
2652,-1416,-1182,526,-772,213,1183
2653,2869,2224,575,540,-183,590
2654,2913,3186,6769,796,-425,-1943
2655,-4432,-2323,-4054,-503,-1042,-1721
2656,-2394,2858,-7370,1342,-477,-54
2657,6315,-6983,1541,-1970,-1950,-1319
2658,7489,5656,6416,1555,-702,268
2659,-2436,-5843,4866,903,1111,-492
2660,1255,2309,4676,-1703,260,-860
2661,4547,3416,7761,940,756,-1685
2662,-4832,7294,-3818,-856,978,1830
2663,-224,-54,-935,1283,-1268,-362
2664,-4440,-4280,536,408,-1893,1699
2665,-1646,-4963,6905,1139,181,791
2666,7784,-2144,2838,-199,256,-1491
2667,-4157,1879,-1878,734,-346,-491
2668,-7550,384,-3044,-585,899,1939
2669,-1800,-4065,161,264,730,689
2670,726,-5290,-7387,-1335,-1520,-1242
2671,4257,-4887,-6971,-1611,-1018,1340
2672,5896,386,-4109,-1746,-1919,-1769
2673,2039,-4942,-2386,-1683,-1161,-1808
2674,-7802,6923,-2908,-995,-1715,1893
2675,967,-806,2875,1239,-1621,635
2676,-4688,44,4483,326,93,-1050
2677,6382,871,-2688,-1720,393,542
2678,3633,2650,7240,-484,1437,937
2679,-27,5070,4290,203,-1226,803
2680,3228,528,4254,920,777,1447
2681,476,7434,-6791,-439,-481,-1365
2682,-2900,-207,-7466,-1276,-1120,701
2683,1390,-4164,2973,1512,1445,563
2684,5327,5272,3412,-1060,83,-94
2685,5077,-6493,478,-1825,1508,126
2686,5043,3554,-7752,1899,93,1736
2687,1650,-3349,6862,1893,-1459,1920
2688,4093,801,-4644,-212,-626,774
2689,-7041,-7317,6555,-1423,-1312,1488
2690,6453,863,7326,-86,1290,-1634
2691,-3561,-1092,3030,-1109,819,144
2692,-1176,5106,-2469,352,1239,-1127
2693,-3884,2666,-544,-1051,259,-95
2694,2919,-1442,-3741,-1477,547,10
2695,6304,-7600,-7089,-855,1602,1214
2696,-7943,7957,3575,662,199,-1290
2697,-25,-1534,7869,-172,694,-1602
2698,-981,60,-611,-1704,-371,1341
2699,4596,221,-5697,-1415,343,-1455
2700,-5074,-5884,4432,1589,385,-1491
2701,-770,3663,-6332,196,-492,-188
2702,-4734,-604,-7721,991,248,756
2703,-5620,-2713,1882,-1173,903,-1748
2704,-3650,3902,2373,-434,-551,812
2705,2641,-1949,634,180,1730,1512
2706,6493,-7017,-4885,-294,632,-592
2707,5954,2937,-4755,-476,1290,-1542
2708,265,3232,-7060,-1134,492,705
2709,-7277,1214,7158,-79,-1236,-1788
2710,-5566,3708,-2220,-46,247,1989
2711,7123,1390,4222,1195,-1789,1164
2712,-5829,-1713,-1928,-126,1965,530
2713,4056,-5977,1634,1319,-1300,-1531
2714,-1279,1761,-7789,-1329,1819,-1978
2715,4305,-5642,4359,-277,-1460,-790
2716,-3761,-221,3328,1795,591,1477
2717,-6060,-6848,5867,-945,1865,1695
2718,4751,-6659,2568,-784,-1846,-197
2719,4571,-4366,-5626,750,1106,-325
2720,2151,-130,-2109,905,-136,1923
2721,4379,2462,3564,1613,1878,-209
2722,-2854,5884,-5014,-1509,-165,31
2723,-4282,2463,418,-1480,-1892,-1709
2724,7231,3915,-2536,1508,-1271,-1445
2725,7447,-1250,-961,753,-934,391
2726,-2303,-4832,-4191,626,892,501
2727,-7719,-4274,4877,-1907,-1629,700
2728,4608,-3786,-5961,144,-1004,-1583
2729,7653,-1655,5951,884,-883,-137
2730,-6126,210,7047,76,160,-1898
2731,-6009,7426,-2717,739,480,-396
2732,7586,4922,-2975,-557,-1106,-1672
2733,4072,-2194,2273,71,346,1880
2734,-5813,-7091,-6389,-1999,764,1562
2735,-2822,420,7736,1633,568,1203
2736,309,-7392,3517,915,-1440,-1710
2737,2565,-2630,4992,-788,1970,-1136
2738,-3805,-1031,1479,1026,-626,-138
2739,-1782,-7219,-1330,-1214,489,653
2740,-1587,1474,-1022,-1208,1156,-223
2741,-173,-4089,3238,-172,933,1414
2742,5973,-5262,2827,711,1726,244
2743,-1768,5404,-1053,-775,-245,930
2744,4742,7045,-47,-896,-1424,394
2745,-1413,118,-4763,235,1942,1036
2746,-3800,-4862,7719,1638,-1043,-206
2747,-5271,426,7179,-1366,-1189,663
2748,2243,4627,2963,568,92,-207
2749,-5955,1181,6696,1920,-1705,-441
2750,3839,-5575,-6779,783,-575,-63
2751,2897,-3038,-1579,558,-1618,516
2752,-2566,-1611,7708,-293,-742,1711
2753,4949,2939,-7150,1480,1861,-628
2754,-6024,777,3482,1069,-391,1917
2755,2042,-7530,-839,1526,112,603
2756,5776,-1437,-4129,913,783,-1963
2757,569,5987,5048,1712,-1914,-119
2758,2473,4984,1813,1788,-1110,-1964
2759,6989,-7244,7632,-866,1405,-1893
2760,4969,-2974,-5457,-1600,-27,-1835
2761,4030,2155,5472,-1008,-944,-1442
2762,-372,-4441,7223,-1087,1140,212
2763,7969,6962,6550,1307,1636,1500
2764,144,-7645,-3008,1048,79,15
2765,-5826,7736,4860,-362,-1896,-1113
2766,-6667,5396,1900,-1451,-1529,11
2767,6728,-5204,1001,-286,-1339,-384
2768,-3683,4169,-3138,583,1676,984
2769,-7282,2122,-3080,-1449,-1785,1063
2770,4861,-2300,4382,-1813,446,-1868
2771,-2485,-283,5305,-223,-276,-1094
2772,127,-4021,-4364,-283,-646,1015
2773,6483,4738,5859,-18,-1677,-931
2774,-2786,-6102,116,-1331,603,413
2775,4737,-4274,4252,709,-613,392
2776,-4028,-7553,2894,-1088,1251,-1141
2777,-5380,-2467,-7437,1841,852,1672
2778,-3962,-5403,-4265,-1648,1519,1029
2779,-5752,2248,4166,-1197,1810,-18
2780,1781,4462,729,-634,-1225,-1337
2781,-2552,653,-2275,-637,-495,360
2782,-3041,-363,6146,1534,939,1409
2783,1291,3377,3015,-679,1696,725
2784,6628,7942,-4907,-1314,1018,-582
2785,-3162,-5022,4052,453,-1417,-1937
2786,4915,-3673,-5688,976,-727,-1996
2787,-6667,-3085,6843,-468,338,1771
2788,-5179,-1195,-4907,1460,-1348,-561
2789,-158,-3939,7469,-1691,-1468,-1172
2790,6946,-883,5493,-1908,-1423,-1648
2791,6520,-1469,-6599,-83,1394,-1991
2792,2219,3799,-404,-216,1374,-1000
2793,-3997,-4636,5421,317,-348,1516
2794,-6658,-1851,-6157,-1655,-1488,-697
2795,4473,5009,2715,1053,736,-1991
2796,5227,833,-6270,-241,-341,-395
2797,3708,-930,-3548,1569,756,403
2798,-5901,-7140,6176,-1945,-294,1727
2799,2308,-4710,7859,759,1760,1460
2800,-2100,-3741,1637,-162,1921,-134
2801,1102,-7200,-4574,-195,-1004,1504
2802,-2417,5440,7427,1390,-1674,-1541
2803,-3919,5192,2126,1405,1271,-1924
2804,-2676,-5522,-4693,424,-378,-1107
2805,-7831,-5907,-6232,-665,-377,223
2806,1761,-5385,-250,683,794,-1761
2807,-183,1491,-1497,-695,-1978,618
2808,1297,-820,-3400,-47,43,1117
2809,-6895,-6060,1084,-14,-538,-1074
2810,6474,-7377,-2187,600,-863,-923
2811,4712,1561,3596,1505,524,-1912
2812,-7102,-3144,-2167,1027,1407,-779
2813,-3653,6675,-825,-1775,85,798
2814,-2610,-5382,291,1364,-197,1919
2815,-4833,4355,-7159,-1996,1630,1247
2816,-5353,-3441,-1103,-1465,-629,1519
2817,-1667,3372,-1703,-1018,41,1279
2818,7426,-134,-5510,1019,1988,1561
2819,6849,4969,7061,-953,-399,-166
2820,960,4314,6507,-1193,-927,-1088
2821,-1007,6038,494,1047,331,-582
2822,-6230,-2332,6418,-1748,976,1292
2823,2615,-2850,-4808,1383,96,-1748
2824,-7440,-6325,-1497,-1381,-1102,-1874
2825,-2638,4334,-5561,-438,397,1527
2826,-7147,3808,-3670,-615,1147,749
2827,-5710,7850,236,1353,428,-991
2828,-437,4106,6914,-1864,-697,-175
2829,-2667,1291,-480,1964,-1711,1857
2830,5132,-5918,-1027,-462,878,316
2831,1959,-6588,2413,1221,-1772,-993
2832,-5364,3857,-3347,1087,-1968,-1383
2833,-5187,-5779,4596,863,-255,1159
2834,-2178,6074,-2541,1741,550,-1281
2835,5307,2027,-506,408,-1279,-1134
2836,4402,-900,2767,329,41,-1299
2837,-1915,7936,-6299,-1677,-593,-9
2838,-977,2194,-2160,-274,175,-1874
2839,334,5069,4007,-1552,-1,1900
2840,3968,-2390,-6709,460,-890,-783
2841,3807,-4088,-4047,1318,209,-1077
2842,-1802,3318,-4287,865,568,-1258
2843,-2551,-859,5598,1768,-910,-961
2844,4050,-5970,2296,-578,415,-774
2845,5541,2944,6484,1505,1128,300
2846,5098,7864,-3767,1579,-322,-707
2847,-4266,1753,4926,-524,1871,1930
2848,-136,3789,-5676,559,-1044,-1301
2849,5259,-3649,5304,572,1642,211
2850,3383,-5074,5093,43,1883,100
2851,2910,-6324,-5336,-1069,-1389,551
2852,373,-4074,-1492,-458,-1427,-1495
2853,2327,-2277,5276,1243,-1581,276
2854,-5366,7283,2067,-425,219,300
2855,-2776,5075,-6025,-1738,1328,-1576
2856,7768,-1755,4528,-784,340,502
2857,-4950,-2104,-1320,1030,-530,-1634
2858,2941,1595,-1676,-204,590,-1543
2859,5964,6338,465,-512,1662,1207
2860,7161,-7676,6799,-561,-526,-1624
2861,468,4647,2819,1263,-1627,-474
2862,340,-6570,573,-1227,-635,1833
2863,-2139,-5227,-5620,720,-801,-1358
2864,-3248,-1008,3035,-45,-1639,-153
2865,-2081,1880,88,-1843,1379,1672
2866,5397,1443,-1725,-1754,1768,-1729
2867,1612,-7294,5648,633,1231,-1473
2868,601,-5362,-1475,-1683,-245,1551
2869,3923,-782,4717,-1892,1022,1665
2870,-5690,-5675,-5118,-1448,1509,-771
2871,-5040,-7323,7653,-1458,-1693,-636
2872,5501,-3273,113,232,197,-935
2873,-830,-807,-7478,-428,-465,-595
2874,-7073,216,-2945,245,231,-890
2875,6793,6961,4051,-767,1770,-873
2876,-3350,3028,-7277,-1714,1822,-1532
2877,-3272,-7678,7548,-1830,1363,1458
2878,-1209,7509,-6694,598,1305,47
2879,3268,6769,-1833,-335,45,1947
2880,-7697,-6888,-6212,1880,-896,-488
2881,-291,-2401,3071,-1243,-1653,-451
2882,-1758,-33,-285,804,-1815,-1880
2883,-5329,4528,3879,389,-515,1922
2884,-6438,-1913,1962,-335,-1641,-1617
2885,4853,7130,5410,-540,1584,32
2886,2687,6570,4816,-1008,-713,-262
2887,-6067,-5863,1816,-1863,1923,-1206
2888,5629,-3524,1620,-608,862,-854
2889,-3689,1003,-1831,1469,-113,781
2890,7100,-3410,5210,210,-202,-1566
2891,7914,1033,-4308,-257,-1567,-350
2892,-5273,1750,-5366,1684,1948,1630
2893,2825,-230,-3788,324,-909,1216
2894,5594,2693,-7287,-1227,1891,1757
2895,1266,1092,5438,925,-1040,-20
2896,-5724,-5213,6964,-1756,1829,145
2897,-2514,1203,2476,-1530,-415,1188
2898,407,2900,2993,1245,867,1819
2899,-6749,-97,-7364,1402,-840,1497
2900,-2678,7688,-3314,-1309,810,1155
2901,5069,1102,4550,1454,922,1059
2902,1637,-663,-6410,1171,650,1894
2903,-2771,-4041,6286,-1005,29,38
2904,-7688,886,-3750,-31,1048,1721
2905,5484,1359,2483,1673,96,-1437
2906,731,2334,-5307,-1072,-936,-1806
2907,-6278,-1639,-27,1924,-157,-1598
2908,-1430,-7117,-657,710,1421,-1482
2909,7521,-3710,-6495,-494,-1025,729
2910,-2956,6421,-7207,-1020,1339,-318
2911,7964,5753,3485,1279,-339,186
2912,-7313,-4542,-3675,352,-669,-1779
2913,-7062,-1474,2316,-973,-216,548
2914,-2736,-2835,-2625,350,1432,-1480
2915,4395,-7045,-3611,459,-433,-186
2916,6035,1900,-6274,-1861,-785,937
2917,-5820,-1203,831,-1464,187,-748
2918,-7686,-6486,-5719,668,-1082,-137
2919,-3763,-6186,7143,-1440,1217,-350
2920,6843,5482,653,1533,-1424,950
2921,-5023,-3970,6546,-1772,1678,-784
2922,6557,7399,7217,-690,1579,1783
2923,-2496,1952,5370,-114,398,1312
2924,-2619,6680,2456,131,-1981,-1800
2925,-3562,3605,1726,-289,-1720,-331
2926,-1791,4294,5579,1407,-1216,-521
2927,5522,7474,-7595,-577,1129,-1704
2928,-5041,5048,-3769,-716,1461,-286
2929,-766,3570,-1263,-1820,1642,-764
2930,-2340,5455,2889,761,-268,-185
2931,5923,6542,-5417,1380,-711,-1631
2932,-1179,-6980,-125,687,1097,623
2933,-1891,-6648,-3446,596,98,-122
2934,2497,-3583,-5768,200,932,216
2935,-5976,2455,-3326,490,381,-484
2936,3485,-5867,2000,-1355,1066,-1218
2937,-5263,-6397,3110,-511,-1938,-982
2938,3155,7964,4410,362,-1041,-251
2939,-2146,1877,4454,-703,-351,1689
2940,7749,-3154,5766,-111,-896,-600
2941,-3461,-2168,-6924,65,428,1659
2942,1635,-4091,1105,350,-1057,1246
2943,-7507,-2529,4420,-598,-1441,596
2944,3472,-1886,4317,-939,1364,-86
2945,-629,7758,-521,1336,693,-114
2946,1889,-2702,7618,1215,886,-1661
2947,5177,-4446,-6123,-1726,-1832,-544
2948,-4851,70,7203,-1450,213,-95
2949,7746,7734,5902,1024,-944,1829
2950,2931,2373,-3886,1540,125,1590
2951,3226,1702,-4997,63,-207,-392
2952,-3666,-7197,-5435,-1725,282,-412
2953,-4230,4710,3914,714,933,801
2954,-6020,511,7539,1184,1801,768
2955,7713,3273,-6577,-70,663,982
2956,4979,7381,1449,1210,-1356,-1826
2957,-6615,3985,756,-1528,849,34
2958,-6504,-5077,-5021,-1354,1254,866
2959,954,-1536,1009,-1359,770,611
2960,4885,3285,-6391,-259,1171,470
2961,-315,-1398,7473,1552,-1990,468
2962,-6183,7925,-543,1067,1415,-1184
2963,1663,1624,1076,-833,460,-1890
2964,-5640,-4000,5879,-384,-1619,-1969
2965,-5214,929,-299,610,1259,-955
2966,-602,-4051,3688,1186,-1293,1211
2967,-4791,5585,4291,-1310,726,-1973
2968,6854,3593,2606,1229,1766,-1286
2969,-5307,-5642,4799,1291,-269,1764
2970,2467,-6894,879,1624,1093,806
2971,3347,-1697,607,-928,-1989,1979
2972,-6139,4804,-4261,-1746,-1207,1054
2973,-5656,-2187,-3180,-1390,661,1179
2974,1099,3845,-7381,-216,-1679,-482
2975,-5183,6694,-3825,-1900,-1818,-1605
2976,-6496,7516,-2396,-1376,32,-1819
2977,816,-3537,4801,672,709,-1813
2978,-924,2881,-7135,-11,-1357,1447
2979,6290,4057,-1739,1943,-1153,-440
2980,-428,-192,5228,-734,-580,1672
2981,6348,3404,2142,-728,-1821,292
2982,-5113,7165,4445,-1740,1149,870
2983,2794,4991,5488,954,1156,-1453
2984,7424,254,-4763,1534,1131,-943
2985,733,4668,5061,1160,1294,979
2986,-4532,-1796,-3745,1571,-636,-1387
2987,3843,6615,-2245,942,-1569,-1639
2988,-2557,-4410,6326,1260,-1289,-1221
2989,-3915,-5503,3629,277,-203,-730
2990,4425,-7425,7143,-944,-310,-1322
2991,2720,-5767,5984,-1365,1094,-1031
2992,-6530,-3899,4167,-1426,287,1707
2993,3741,6581,741,1494,1662,1599
2994,5494,-2475,-5026,1332,924,-279
2995,-7167,4873,3661,-563,1196,-1621
2996,-5874,7226,2567,-929,-262,1445
2997,-2625,5768,4964,608,-1106,-1127
2998,-4159,-7976,7489,-1781,-1744,885
2999,3671,6783,884,576,-42,-462
3000,292,6965,-204,-1095,675,1347
3001,7539,-77,3796,-1291,1805,-1028
3002,3287,7081,-4239,154,-1359,-1200
3003,4463,3193,2956,-269,-820,-1827
3004,-6025,-1015,-363,1425,-219,405
3005,5920,6754,2359,-1245,1627,1810
3006,-2445,-2744,-570,382,717,382
3007,-631,-3562,7203,795,415,-868
3008,7867,-6666,3654,1899,1929,-174
3009,-5179,668,-5067,-387,-1767,465
3010,-7303,6635,7771,-962,666,1672
3011,5840,-2825,6711,1408,-1132,1529
3012,5720,-7809,7763,-284,-1643,1760
3013,-7879,5846,1225,1126,879,-1013
3014,4363,4324,-7997,-882,-604,-1723
3015,-7484,-4638,3554,177,1578,-455
3016,-2335,4870,-7921,-231,913,-72
3017,5053,-3704,6520,1635,142,1587
3018,-4987,-2187,2556,-909,1099,1148
3019,-2768,941,-6100,89,-878,709
3020,-4357,4860,92,-1169,-286,-176
3021,-1391,2039,4447,342,581,-10
3022,-3572,1665,-630,1869,-1176,841
3023,-4228,-3335,-2841,-372,-639,830
3024,-4528,-6301,223,-1890,681,-777
3025,-1900,-2357,4354,342,-329,1654
3026,-6565,-1844,-5331,-1586,797,-1672
3027,-3207,1660,7891,-1809,-1023,1303
3028,-1507,3472,-5371,-1679,1160,-219
3029,3863,-2628,-4992,1599,1684,-788
3030,5574,3283,-856,31,-134,-443
3031,3554,-602,-7751,-1605,-1209,-877
3032,-5454,443,-4598,215,1253,-419
3033,3817,-1408,-539,603,948,-1839
3034,-2851,2294,385,-1061,-1770,1471
3035,-774,-2274,1422,1487,64,-1601
3036,-7485,2004,35,-1739,-450,-1831
3037,-3204,-3370,-6613,-883,-1741,-945
3038,3108,3530,-1714,-1139,-1394,-1895
3039,1234,-7223,5322,-176,-1351,-1607
3040,-284,-5252,-6245,-784,-454,536
3041,-3007,3906,-3446,1155,618,-902
3042,-4873,-5635,-5805,-343,107,1418
3043,-922,-6846,-6114,1967,-650,-1661
3044,5908,-3299,-7389,1754,1372,-511
3045,-6205,6987,4385,558,388,-1393
3046,892,-1870,1013,-293,339,519
3047,-4925,1035,675,-411,1958,1354
3048,-138,-2194,7261,-87,1429,702
3049,-5363,-239,-7386,1184,-529,1752
3050,-3590,-1505,6503,-538,-1453,409
3051,-3172,2773,-3341,-912,-808,1350
3052,-3983,-7687,645,1583,1941,-769
3053,3046,-3372,7961,1085,-747,676
3054,2101,-3205,1424,1411,267,335
3055,750,2571,-2876,1687,951,781
3056,4274,-1685,-149,-910,-611,756
3057,7918,-4776,6729,1578,507,880
3058,-2749,-7923,2857,1132,1152,-1615
3059,-4008,1804,-384,-1362,-1941,-373
3060,4897,4971,-1734,785,-1766,-1456
3061,-2273,2663,-5901,-663,-1507,109
3062,3391,492,-4080,-1354,-416,-1602
3063,-2814,2636,-6378,-373,-1475,-860
3064,887,6572,3074,-1331,-793,217
3065,-2258,6113,5560,803,966,-955
3066,-245,4424,4424,-1347,267,1641
3067,1494,4431,-5605,-1028,-972,1230
3068,-5099,-6135,-7059,-836,1505,-809
3069,-1605,5051,1677,734,423,-1617
3070,-2346,-814,-731,-1056,1045,1173
3071,-3856,606,-4652,45,179,1602
3072,-2135,5384,3833,1708,-1038,1732
3073,5488,-4352,-7650,1072,-1567,118
3074,-1400,3056,-4216,951,1357,180
3075,-7842,-1611,3453,-1916,952,1964
3076,5335,-1539,-5012,1251,1215,-1286
3077,-4341,3108,6468,1906,-773,739
3078,601,7666,3538,-1938,-883,-1119
3079,-1940,1213,-381,1849,1357,1747
3080,-7892,-752,-2435,-1145,-1058,-807
3081,495,-1812,6058,1718,1734,811
3082,-7798,5178,6078,675,-472,1310
3083,-7254,5536,-4971,-217,270,-1616
3084,-5593,4450,-4378,1334,555,-575
3085,-5213,1646,5254,-1853,-63,-1567
3086,-1514,-6696,-354,-879,724,1014
3087,948,5401,-6815,-990,-704,-1281
3088,-6054,-5569,-262,1055,-552,790
3089,4013,1902,2781,246,-1189,-701
3090,-2123,-6743,1122,1060,936,-366
3091,-2590,7544,-7384,1435,-511,-1669
3092,2583,7940,7986,-1536,-1715,1532
3093,5774,4775,5245,246,988,-1682
3094,-4883,5836,-3280,1110,-624,-1752
3095,-3735,2185,-373,-1841,1769,-639
3096,-6789,2090,7222,1177,675,-1011
3097,4429,-6913,4860,-1009,-1177,981
3098,7057,6831,-6897,158,1352,-755
3099,-2554,-4180,2445,261,1849,-369
3100,-1952,-6434,-3369,1359,-738,1542
3101,-4281,-2874,-2504,1544,-1889,1314
3102,-3434,5464,4419,1034,1950,-480
3103,-1189,-1308,-6564,-1372,-705,534
3104,-2317,1511,-6022,-379,1870,1939
3105,-171,5158,-4728,-613,820,232
3106,1495,7388,-94,-1488,-1840,-711
3107,3680,3905,-4339,1253,-654,1389
3108,1126,4046,-6407,-841,1933,-1168
3109,6993,-5336,226,-1779,-739,-982
3110,5968,-3654,2288,-214,-715,692
3111,-7788,1185,-1707,1375,-1635,-925
3112,-979,2350,2383,-1401,1409,1665
3113,-6745,5246,7611,-654,-120,1353
3114,-2178,6928,7800,-1451,295,1244
3115,-5223,4774,6184,-1303,-801,-1630
3116,2613,354,-1480,95,-178,-747
3117,3909,7048,3626,962,877,-1756
3118,-2858,-2379,679,32,-1433,1446
3119,3598,2450,-7054,572,-1936,1661
3120,-4896,-1869,5427,423,-1043,1493
3121,-3708,-225,4318,209,1628,1702
3122,6480,4307,1502,-727,1518,76
3123,-1034,569,30,1355,-1073,70
3124,5550,-7112,4696,-284,1266,-1428
3125,3895,3456,6798,144,479,215
3126,2906,-6082,-2736,130,-1045,1259
3127,1314,953,5648,-1540,-1024,-204
3128,6791,-5944,7280,-851,193,-1022
3129,6309,1535,2305,-335,1970,469
3130,1082,619,-7730,1109,1257,-1879
3131,7455,-3582,-3195,-394,-1578,-1982
3132,1529,1774,-5946,1881,-1839,-606
3133,-6086,1778,-4899,1452,-948,1810
3134,1492,6908,143,-220,-1200,1117
3135,-4356,-6004,7977,1125,255,-257
3136,-2871,2240,-2668,-235,-228,-1088
3137,-5340,-3709,-5049,-1935,-1338,-1357
3138,-2189,7332,1391,390,-64,-896
3139,5006,-2393,-7221,-440,-1528,-564
3140,-7678,5666,-1877,717,497,1423
3141,2049,4314,4255,-196,-282,269
3142,1921,-4573,-6249,1143,-856,-1721
3143,4093,-7074,1573,929,1534,1977
3144,2163,2125,-6872,916,-1725,1715
3145,-3436,1223,-4061,-782,1407,-690
3146,-2234,-6746,-7429,-861,733,1575
3147,1480,-5228,6195,-179,-1362,1461
3148,7847,4957,-6013,1991,646,244
3149,-1736,6940,-1849,-489,808,-450
3150,7363,-6618,3691,-1145,-715,1334
3151,-906,7871,-6655,-753,-482,-967
3152,1751,-1598,3026,206,-732,1564
3153,3503,-6936,1483,-1738,976,215
3154,-6768,-2603,-6742,-954,508,1908
3155,-6423,-5564,6593,-1987,-1269,-1079
3156,-5911,5802,5943,-1592,1937,1273
3157,5353,-5667,4082,-44,1189,766
3158,-1009,74,5649,-624,987,-1608
3159,-6660,-1210,4801,-814,937,297
3160,4791,-2322,-2831,-923,-1350,110
3161,3908,-5057,6708,1101,-1751,-1005
3162,-206,-4424,-6688,1062,1510,-786
3163,2837,4113,-2029,-1159,-648,-1234
3164,3569,6860,-7300,554,1610,-293
3165,-3130,2796,6158,-1743,226,1190
3166,-3383,7964,-5302,260,-615,1228
3167,-7015,-7991,-2572,1097,-542,-1266
3168,3018,-557,-533,636,735,861
3169,5719,1598,-1952,1369,-910,-309
3170,7208,3124,540,481,-755,1103
3171,-6350,-460,1905,-1032,-430,1919
3172,846,1203,1430,737,446,-210
3173,-6065,-3273,-2503,-1157,289,480
3174,-2535,-7109,-2628,725,557,-736
3175,-2299,6424,-3967,513,1465,1973
3176,753,-1897,-7069,-472,128,1732
3177,3696,-6153,1878,-1729,-188,546
3178,7266,-4122,-2487,31,1593,618
3179,3684,1966,-5709,-1003,316,1004
3180,266,6943,-2225,1907,1022,654
3181,1358,-6477,7153,-1226,454,1786
3182,6361,-4510,2603,-1909,1406,162
3183,2124,3397,2887,-1441,602,599
3184,7874,-3296,3199,-500,-1998,-310
3185,275,7237,1011,3,-1663,1565
3186,-1257,-3532,4696,32,1809,232
3187,632,-2349,424,-578,724,666
3188,7713,-7422,6014,1205,-406,1350
3189,1804,7415,-1792,-864,403,321
3190,3126,-3350,7816,-1278,-101,-714
3191,3831,2728,-1855,-482,17,-1220
3192,-684,4803,-636,444,-1711,-1786
3193,6678,-6742,-5831,797,850,-95
3194,1918,-6384,-1227,419,-693,627
3195,-6358,1965,4135,864,-156,-1022
3196,-1739,-6381,-2467,-1538,1045,-1427
3197,6195,2783,1828,-1870,287,1555
3198,3596,4089,-2184,1733,1581,1787
3199,-64,-1516,-3960,133,-1234,-1356
3200,3599,1240,-1085,-545,1392,1214
3201,-7892,4623,7063,-1715,440,283
3202,-2128,1522,229,-426,-51,-1998
3203,-4148,-3200,-3321,-1343,566,-84
3204,-2789,2690,6651,266,-547,-133
3205,3510,4181,-3980,-1905,-1033,-69
3206,-2074,905,3618,-176,-1334,526
3207,672,-285,7817,950,-392,-1614
3208,302,-5518,2779,-1800,-953,-1842
3209,-4988,-3157,-5818,-861,-896,834
3210,-1543,-1948,4908,1263,-34,470
3211,568,-6322,-2435,-233,1996,-1852
3212,-7832,-5462,6413,1754,1515,1469
3213,-1275,-7149,-6877,-686,580,-973
3214,-2488,-3741,5479,-673,-343,1345
3215,-1871,3365,-2204,1207,266,-388
3216,2978,5940,-3267,646,-511,-258
3217,-2883,-1739,-1677,-10,1160,465
3218,4427,-6572,-508,-504,-860,-1654
3219,-3307,-5605,-7182,1391,-196,-1846
3220,1068,3236,-2670,931,-330,418
3221,-164,4718,-3809,1037,-1144,-372
3222,-7180,2566,-6571,783,-681,372
3223,2156,6419,-35,605,-1802,-980
3224,3939,7699,4993,949,1300,-806
3225,1419,-6857,-2270,-741,-1804,661
3226,7332,4117,3435,786,-1388,1303
3227,-129,1710,6498,-1816,292,1047
3228,4792,18,-748,-347,-1100,600
3229,5386,-7291,-4271,1138,-313,-371
3230,3700,-6617,7491,697,1916,-1647
3231,-1456,-7841,-1514,775,-1960,602
3232,-7453,-1654,7800,-1466,956,-1827
3233,546,-7477,3052,1107,781,-1238
3234,-7060,4510,6545,-1977,300,-1430
3235,-5598,2332,5860,-1772,-1619,220
3236,-7282,6087,-3379,-1716,896,1635
3237,-1109,7003,5056,1770,-259,-1979
3238,-1294,80,2096,-1232,8,-1393
3239,6175,-120,5753,1013,544,38
3240,7917,-7217,-3242,-323,872,-1128
3241,4831,-5820,6393,-1060,-518,1459
3242,6984,3461,-6410,73,-826,1739
3243,4961,-6674,-1854,-292,962,849
3244,-2743,-660,2434,-938,1625,-1922
3245,-3778,1836,-7884,1083,686,701
3246,-4878,-1198,-1151,752,1797,-76
3247,-7609,-532,2344,-1569,457,-531
3248,1106,7886,-7530,615,1488,-1550
3249,514,63,-3514,1498,-94,-920
3250,-3689,-444,-4630,-1258,1900,1302
3251,910,4555,5652,-1597,1855,1348
3252,3410,4454,2746,579,1569,1785
3253,4572,-7392,3482,1723,-424,1565
3254,5984,-5190,-1548,674,1807,-599
3255,-3170,-4912,-4594,500,981,-237
3256,-5820,-2285,-7698,-294,790,-1199
3257,-1719,-1065,-6727,-1366,-1469,1770
3258,2750,7487,7052,1978,1914,239
3259,5782,-144,6868,1495,765,-690
3260,1978,-3128,5304,-1061,972,1617
3261,-1311,6034,4431,-1411,-808,-850
3262,7593,348,-705,-762,-755,-1986
3263,3165,-5968,1602,472,-743,-1683
3264,2057,1044,-134,828,-151,921
3265,-295,7088,-74,1254,-732,-1900
3266,4227,-2224,-1707,-1002,-853,1999
3267,7323,2511,-967,-71,-1362,533
3268,7248,-4221,-4661,-1956,-1294,-1377
3269,-2947,-4433,5195,-1040,1715,418
3270,5773,-7610,1932,-767,-693,-602
3271,-2650,-624,-6094,-260,952,1528
3272,7567,-4376,6752,1100,-92,-1813
3273,-2211,-490,3074,1293,-1865,-298
3274,-3500,1374,6079,-398,-1247,850
3275,2752,4896,6381,-1042,102,-566
3276,-1787,5880,-2356,1293,1397,-1808
3277,5966,-5131,-6293,-3,-1589,-272
3278,-6991,-2266,-133,364,529,-494
3279,-3753,1608,-4074,-918,264,-693
3280,4174,22,-2704,1944,-1719,-1860
3281,1793,-4294,-4398,-1865,617,404
3282,-5019,-2785,256,1272,155,1259
3283,-3219,-7647,6044,-1227,493,-1359
3284,-3776,2812,865,1791,-731,26
3285,3379,-1375,2978,1436,1324,1176
3286,5400,7485,-556,906,1233,1758
3287,-5640,3841,-4476,196,-1523,174
3288,-1350,-4268,1852,-938,832,-1258
3289,-4281,-4254,-4859,1818,918,-112
3290,4131,3305,1731,-1631,-952,1864
3291,3090,1619,-985,1479,938,339
3292,-434,7447,-1,540,-721,-963
3293,-4576,-4926,6370,-1226,913,-302
3294,-4873,4431,2417,1678,-1675,-52
3295,-6193,3928,2926,1733,1377,-1126
3296,2062,-6055,618,1529,190,425
3297,-2525,-7203,6628,1066,-1973,-1129
3298,7781,-1590,-5944,1735,-153,491
3299,-1087,4200,4135,-30,604,-1341
3300,-5315,-4350,-1613,1406,713,1850
3301,5628,-5891,2525,-1710,-1474,-171
3302,-3091,5717,4663,251,90,-163
3303,2884,-6531,-2187,1680,1977,663
3304,-6991,-1046,7609,-167,-1111,1837
3305,3170,3746,54,878,1041,-1798
3306,5976,-6235,6223,-324,971,102
3307,688,-6847,2864,-1714,-346,-1787
3308,-7387,-7499,1230,-1528,-1220,-1723
3309,-5270,-2572,1911,496,1794,1129
3310,-4154,-3867,-603,1435,1412,1217
3311,-885,-6655,-7703,1817,-1036,-1438
3312,-2337,1262,1218,-1295,-181,370
3313,6012,523,5339,1152,188,77
3314,-413,-6073,7648,-1572,1547,1928
3315,-2826,1184,5337,1477,-598,-90
3316,-7802,1980,-1727,-542,-53,1606
3317,-1701,2546,4815,-1195,10,-999
3318,5198,1047,-6817,1502,535,-941
3319,1345,4096,-3384,192,-1994,1911
3320,7457,3258,-4748,1509,729,759
3321,3743,-1200,2532,977,-1387,82
3322,2005,5531,6252,908,-1545,-1664
3323,6285,-3347,742,1579,1189,859
3324,3895,1370,-3193,-615,1249,330
3325,-978,-5326,2305,965,-595,-1303
3326,4964,-4836,-1330,-422,1568,-1962
3327,-5888,-2815,-1981,-1791,917,-1846
3328,-2291,-6866,-3109,944,277,-1464
3329,1515,-2875,2493,1526,298,-12
3330,1655,-7519,-6268,998,704,-307
3331,-6788,-1056,-1436,1027,931,707
3332,4105,208,124,-1479,-1793,-1022
3333,-1088,7754,6733,81,-1564,-849
3334,5746,3869,7648,-835,-87,1741
3335,-7459,7768,3992,1010,504,-352
3336,1160,-4325,4068,1260,1954,1740
3337,-7191,-7255,4094,712,1037,-1389
3338,-7619,5337,-7982,-1682,319,-573
3339,-153,2103,-3775,-960,865,200
3340,-3427,-1660,-3237,-1564,1289,1152
3341,7622,1866,-2375,-456,557,-1761
3342,-1010,4391,-1942,-542,-968,-667
3343,5434,-6316,2591,-1130,622,-693
3344,-3504,-3072,-7296,1466,199,571
3345,-5741,4133,6730,1611,1667,-418
3346,-2961,-4232,-6088,-1584,-25,1327
3347,-4191,-2335,4124,-986,-601,-121
3348,-2300,-4587,3213,-185,-404,144
3349,-1122,-2548,5042,-610,1542,-51
3350,1278,-7750,-5829,-336,-1547,-1923
3351,133,3994,5283,1340,-238,-843
3352,-5408,6918,-1788,-802,1840,-304
3353,2462,-3919,-2018,-875,383,933
3354,-6529,-849,6561,-730,348,-518
3355,5610,4299,-2375,-153,439,-1538
3356,3131,-2771,-5651,-1079,-1884,-749
3357,-945,4197,-7103,1946,-1817,831
3358,-7779,-6450,-316,900,1434,-927
3359,4032,-4344,7761,1702,-1700,1560
3360,761,-3380,751,1234,750,635
3361,4758,4978,2073,-622,-233,1874
3362,-161,-5503,7583,-1527,-1247,1310
3363,7740,2740,-4548,562,1260,-124
3364,-1126,2430,-1838,1872,-382,-1376
3365,1047,4786,1791,1969,-508,-1251
3366,-4932,6342,2686,1649,-850,-1536
3367,4822,-4239,6660,1157,532,-585
3368,-7824,-6160,56,545,-8,1867
3369,-2643,-5825,-3842,-1910,-715,-1496
3370,1287,-4113,-2890,-1599,-1701,-421
