Sample,Ax,Ay,Az,Gx,Gy,Gz
0,2415,-5490,-3140,1560,-1212,1056
1,4599,7649,-7767,-1255,869,-1020
2,2451,5415,1554,-1195,1022,-157
3,-5587,-2135,3828,-1924,-172,-60
4,3415,7181,3135,-1622,1973,-806
5,-1165,5948,-415,1567,-803,103
6,6679,-7198,3136,1503,-1318,1807
7,7962,1505,3498,674,1447,-490
8,7360,1533,48,836,-688,-1114
9,-1084,6406,-6087,-1373,-1721,771
10,-4514,-7153,-5514,-652,-74,-1206
11,6008,-981,3851,248,1133,-558
12,-6671,-6461,5146,785,-29,1206
13,-1411,-2106,-3744,-1337,-659,976
14,-6774,-1898,2002,-1135,-1898,918
15,-224,-1164,5904,-449,1897,245
16,-4724,-3037,-2064,-1842,1901,574
17,566,3226,1643,21,496,-753
18,-5456,6317,3036,1597,1831,1932
19,-1801,-3416,596,-1766,483,110
20,-4395,2699,-2058,1331,118,1863
21,-4713,6449,-2454,658,-1933,874
22,6623,-7800,-182,-1223,-1481,-678
23,-2737,4718,-3332,1928,498,69
24,-5549,5546,-7383,-1073,-463,1298
25,-2301,-6279,-7853,1555,-471,-645
26,2234,4230,2032,1669,29,-766
27,-4781,-2806,-3165,704,1444,816
28,-7061,4273,-684,372,139,-259
29,-1537,3587,7746,-1305,-1209,-1658
30,-1630,-7735,938,-100,801,1185
31,-1713,-3905,7282,-1071,1524,1266
32,2031,-2289,6966,-1911,-1420,1221
33,7583,1378,2693,1879,516,-585
34,6580,6606,-4196,-1015,-93,171
35,-2788,6495,931,-1548,1374,-1243
36,5284,-6103,-3284,1374,1987,-1773
37,-5752,-3506,3296,1045,1983,1824
38,-19,-6852,-547,-660,1668,124
39,675,-6145,3035,-1786,-50,-445
40,3473,-3460,-1323,-740,-92,830
41,-6757,4768,-7019,1670,-841,-1097
42,-6586,7837,1093,-1354,1803,847
43,-7797,-4620,-6180,-1081,1699,1051
44,5435,3913,-3127,95,1996,1571
45,788,-5275,-4664,-174,-870,-1347
46,-5503,-7022,1043,-827,-1425,83
47,-1266,4565,5266,1679,1295,841
48,-3582,-918,5827,-294,704,-839
49,-4844,-400,7428,-1776,502,120
50,-7738,4406,354,554,1660,1130
51,2619,6414,-6981,1217,-1572,-182
52,2745,6228,6489,-750,1421,-637
53,-1489,-5397,-5662,1579,-1365,439
54,7848,-6264,4856,1201,1172,650
55,217,4574,4593,-180,-703,-402
56,-2158,1188,2102,832,-841,-581
57,3606,-7075,4698,-717,-1648,172
58,-1889,1830,-4006,679,-528,777
59,796,-7618,572,-1563,1854,-213
60,192,7995,-1044,-373,-287,-590
61,-1564,-6219,-6408,944,-739,618
62,-2899,-4056,-6145,1211,-79,118
63,6034,-6833,-323,-1843,-1414,-1704
64,4784,7062,-2021,1643,-1589,-1702
65,864,-229,7799,1284,-1373,999
66,-179,2057,-7334,1346,177,1403
67,7175,1969,5563,1689,239,1426
68,7869,4226,5805,-711,-601,464
69,3760,1492,-1656,827,1731,1528
70,581,-4559,5543,981,-1335,1602
71,2903,-894,5484,793,-1323,-1349
72,-22,305,5688,158,-1127,1123
73,3189,-3333,-1613,-142,-947,-1673
74,3740,2968,5334,-1186,-366,1058
75,1462,678,-2296,1395,684,-1506
76,-4437,-4989,3833,1657,-272,587
77,-7313,1580,401,-675,-622,461
78,-3180,3881,-983,1930,140,220
79,5603,7721,219,1931,1233,76
80,-7712,4526,4202,-1659,1331,1474
81,7959,-2543,-7466,-1438,1567,548
82,-6164,-7021,-1949,1253,-1521,514
83,5854,1453,-5150,1669,591,135
84,4989,-66,-2428,1713,-951,162
85,-7093,-5608,7338,27,946,-1471
86,1841,4067,4362,-1518,-643,-1891
87,-5584,7959,1735,1822,-754,148
88,3701,3454,3742,797,1703,257
89,634,542,-4004,735,-328,191
90,2245,-1222,-457,1488,-1345,550
91,726,4719,-3815,785,-1865,347
92,3862,4738,-4694,-256,-905,-343
93,-3725,7562,-467,1306,-1875,98
94,4521,-7590,219,340,1868,-1960
95,3999,-6116,760,1172,-1329,1945
96,2492,6207,-6828,229,877,449
97,-2446,2592,-2231,1808,-1708,-509
98,2673,2630,5370,-1492,-294,428
99,-7951,5580,-5541,1620,-1722,-985
100,5028,1213,4636,-17,-469,-1437
101,-6251,7811,2604,600,-1974,-352
102,-1329,-6169,-164,1051,-893,-157
103,2447,570,2416,1694,-1445,-39
104,2292,-5416,-2295,1254,376,-1238
105,-1093,6240,-3761,1112,290,271
106,3035,4097,3965,1112,110,608
107,-2122,3018,5196,547,-45,-1860
108,-1981,-6116,1344,-1564,1725,332
109,-2983,-1377,-2359,-1800,-1245,765
110,-2935,-419,4550,-800,2,1102
111,-7305,-1953,115,474,1469,-499
112,-685,-4721,-507,-120,51,-366
113,6324,6553,-3577,-43,1993,-1270
114,-5879,177,78,-1900,-1017,-514
115,5369,-3815,-7718,-1923,-1617,-1994
116,-1755,2049,-3124,403,1721,657
117,5361,3293,1188,-80,1625,1571
118,-1450,7473,-712,-1392,-1958,-409
119,-7517,1528,-5496,1737,376,1338
120,4069,-1948,7971,299,-1733,565
121,-3268,-4052,3819,781,-1334,-682
122,-3725,-4247,7951,-1309,112,-1327
123,2321,-3523,1601,-24,1258,1730
124,-150,2573,-803,-28,-22,-1711
125,-3550,-3987,789,382,-935,688
126,-3121,-416,2676,-1693,0,1701
127,-2645,-2260,3559,-1507,673,1334
128,-6905,-109,3861,-1095,-662,905
129,-7168,-7559,2631,-165,1017,1619
130,6195,-3945,-1331,-303,-1246,1502
131,-2357,5960,4716,784,441,-1720
132,-4447,-777,-335,665,1580,-1096
133,-3780,-2256,1570,304,-1990,-1479
134,-6076,5124,-6001,120,1439,1474
135,-606,2437,-3511,-843,-276,1084
136,1678,2224,7971,321,-175,1995
137,6590,-5351,4116,1380,289,-1650
138,-35,2537,-1408,534,-1667,1428
139,-5661,3284,6041,458,1348,297
140,366,-2585,-2411,26,-1323,1412
141,681,-4347,2355,1841,-1362,1757
142,-2115,6857,4653,-924,-70,32
143,259,-7608,186,1517,976,-1574
144,-7547,-2681,-1564,-220,1430,-1914
145,-6688,-7447,-3663,-4,90,-1273
146,-4438,3209,3505,177,492,1012
147,-6405,4592,6766,143,799,-1512
148,942,6369,3263,-159,-816,431
149,-7951,1983,-4522,-37,452,-1063
150,-6532,4568,-183,-1815,1806,-190
151,-5849,3750,3324,-1401,-51,-1887
152,-4507,15,4642,919,1508,1552
153,-255,7361,-6978,812,1651,247
154,-4940,4062,2595,131,80,1882
155,-5499,-3154,1042,235,1848,1532
156,7860,5117,-4987,1099,-1360,-586
157,-3573,-1149,-6137,1571,-274,-1578
158,-4179,6204,4732,-157,1595,1229
159,-6212,6712,-4184,1852,1714,666
160,4879,5461,3989,-1407,-404,-819
161,2135,-6108,6154,-692,1711,634
162,5975,-6119,4946,552,1640,1118
163,3418,-1218,-6015,-589,840,1237
164,5811,-2551,-2909,1152,-748,-1551
165,3937,-182,-7945,-297,-263,-256
166,-4739,1428,2233,1874,-1501,1635
167,-4562,-2781,-1119,1650,1102,-737
168,1069,-1848,4667,288,1969,-896
169,6595,-2558,-1122,51,-1841,1795
170,-2204,-3970,-3670,-1710,-1826,-1087
171,-398,3022,-615,-372,-528,-1092
172,5391,1606,-6881,-605,-1277,828
173,4965,1507,1528,97,1731,1701
174,-7598,-3144,2674,-152,513,737
175,-4967,-6006,-5476,-1129,-422,1686
176,-7449,-5557,5221,1008,1765,-1362
177,-2946,-1007,49,1404,1359,-1401
178,6255,6759,394,1653,584,863
179,1937,5059,2359,587,1364,1454
180,727,-280,-4329,403,712,-322
181,-1724,3458,4741,222,-772,-1265
182,-5833,6337,-4814,-1204,1840,550
183,-3662,4661,-3913,-1293,1510,1962
184,-2971,-145,-191,-51,-712,-1593
185,-2293,-3814,2540,-244,-1765,806
186,-1237,2697,884,-558,5,-1997
187,3528,7296,-620,-1014,1618,549
188,-5021,6067,-4177,-1654,832,457
189,-848,-6860,4860,-1767,53,342
190,7058,5429,-676,1869,1937,-1104
191,-3392,-6428,-4778,1728,-567,-1835
192,-5567,-5957,-1724,786,-1527,437
193,3130,1750,6071,1124,403,1475
194,6769,-5497,4119,1169,108,-356
195,4036,-4409,-3429,-1769,-707,1488
196,-5292,1848,-5349,-804,1353,877
197,-2280,-2352,2126,1610,-1778,695
198,-6158,5114,-7829,-1745,821,1584
199,-6255,6156,-2913,925,471,-461
200,3311,-3260,-1967,-1943,348,1512
201,3243,2997,2948,742,-1220,1403
202,-6812,-6862,-1706,550,-899,-720
203,-1775,-3157,-6552,-208,-1731,-1300
204,-716,-6102,-4992,218,1893,1178
205,-2574,-7784,-31,-1645,1585,-462
206,2453,-15,2287,-251,1357,-1872
207,7877,-6380,-2368,780,-1789,235
208,1217,-5305,-5466,1102,208,700
209,-6324,5518,-368,573,-38,1973
210,-5049,-877,7323,-711,1844,-1291
211,6666,-3990,1730,369,-1675,1513
212,-2939,-1961,7250,1194,468,-278
213,-850,-3995,-328,1246,-609,-620
214,-7047,3559,4406,1796,-898,-1317
215,-6112,-4873,-7756,580,-1296,-146
216,-7794,2050,5299,-175,531,1628
217,6580,5496,-7076,529,-321,-151
218,3298,-4404,4442,-1645,1147,1991
219,5462,952,5684,-901,-1799,662
220,-7387,7161,328,844,683,1556
221,-4852,-759,3204,-1160,1437,1435
222,4181,5822,4290,-285,-803,-1642
223,-3621,-1674,-7889,-1881,-1055,-608
224,-4068,4327,-2997,-1043,-1160,-1066
225,-5958,-3648,6176,-1998,-1121,-293
226,-1414,4208,-4885,1573,-322,-1845
227,-508,3042,-5688,1265,-1523,431
228,7876,5916,-259,1414,1628,-1293
229,3781,-5468,6995,695,-197,-1100
230,-7950,409,2140,468,1590,1305
231,4970,4311,-7954,822,958,779
232,2149,-3554,6087,664,-1414,-1093
233,-913,5528,-2739,1158,-1850,-807
234,5444,780,-3881,-1824,1744,858
235,-3334,-7217,4599,1641,305,1768
236,2452,-6318,-2087,613,-1716,-1247
237,3291,7154,-3257,-1058,1096,1466
238,7682,844,4854,-1818,410,-1945
239,-1708,806,4036,1497,-236,-621
240,7461,-7567,-2204,-979,593,912
241,3596,-2694,4308,-1507,1299,-1557
242,3723,1968,6234,241,1336,-904
243,2072,-5539,4185,1908,-883,26
244,4074,4574,-6536,1133,-1942,-1470
245,2567,-7133,3580,1776,607,-244
246,-1674,-1456,-7944,-1048,-56,-297
247,-6706,6292,307,-982,436,1561
248,7240,-4920,-2248,-1760,1735,17
249,-6122,-3269,178,1709,-1213,1315
250,7431,5730,2388,547,294,-617
251,-7412,-5121,4857,-1625,680,1256
252,1864,-4015,-5433,-155,1789,157
253,-198,4848,-6519,-128,-511,1973
254,6761,-2430,-5945,-440,1370,611
255,-4697,5684,-6663,-675,-672,820
256,-6797,1033,-3724,-1198,563,1129
257,993,-3062,6631,372,-743,-344
258,-6208,-3322,3136,-1015,1283,105
259,3208,-3914,-1235,-224,-52,-435
260,6036,-7340,7412,938,-889,-1207
261,5671,-715,-4686,-1492,-170,552
262,6500,-1035,1570,-1867,1907,-1887
263,4853,4833,5467,505,132,-860
264,-6285,3192,-1585,-1832,1155,-1169
265,-7656,5360,4324,-604,1035,1975
266,980,5070,-6510,1926,944,-1028
267,-2731,5064,2800,-122,-1980,1617
268,6794,3212,2671,-539,100,252
269,-3179,6298,7247,-885,1349,1691
270,1851,-1735,5065,1263,1629,-1868
271,-5613,-2466,6597,-471,-1794,-186
272,-7100,5765,-309,-1000,1836,1561
273,1804,-13,3384,-661,1509,-906
274,4505,-5476,-7940,-1265,-37,-1384
275,3820,-6365,-5412,-1137,-1422,295
276,-3549,-7832,-1783,-1011,-1127,1953
277,4363,6891,2827,-1256,1346,1880
278,-653,-1910,-3201,-353,-1473,-1279
279,-2957,-6508,-7801,-1407,1021,1662
280,854,-4039,953,1305,-1777,1089
281,2604,-6283,-4400,322,1260,-1371
282,-3038,-2865,-584,-1558,-769,-94
283,7018,-608,-5713,-1965,-1469,290
284,1505,537,-2253,-1453,-105,1316
285,-2258,-327,925,1184,1242,-563
286,-4735,5096,7186,430,1569,-1026
287,3247,571,-6147,863,-371,-1627
288,4145,7185,6909,-1351,-206,1964
289,-1423,6,-2820,-268,1779,587
290,313,3948,114,783,-1512,-1775
291,405,4752,-233,1232,-1469,-991
292,-4503,-501,2858,-249,1286,1835
293,-4638,5407,45,1577,-1133,646
294,-3592,-1007,6960,-1971,-1311,-1072
295,1898,4267,-264,102,-547,1656
296,-4409,385,7768,787,-1878,1929
297,-3220,5566,5479,-1578,289,1529
298,1977,7042,2546,984,962,1257
299,-3048,1493,-6,1468,-1024,1912
300,-4837,-2772,-3585,-1064,-1738,1971
301,-2548,6634,-6198,-1265,-664,-176
302,6071,-3339,-6114,729,-675,1362
303,2517,1136,3323,-52,1327,-1948
304,-6864,3020,7075,-1511,684,1299
305,-7677,4996,-5027,1796,-1521,-1510
306,6857,3152,-3535,-1610,899,-615
307,-3036,-19,-5780,-945,-869,-166
308,3659,-1678,-2598,378,33,-1906
309,-4071,-1642,7918,-192,-1113,304
310,2519,-5761,-7511,-1608,13,-503
311,1515,-6140,-3326,-1773,-702,-1551
312,7546,-3897,-5103,-1565,-906,407
313,-1173,7156,-7347,-1119,1217,709
314,-7819,149,4291,-1501,1654,97
315,-7800,2554,-2539,-1135,-1303,-107
316,849,5177,2235,129,-1521,1190
317,3443,2802,-7837,1146,1112,-275
318,6959,-3483,-656,-602,-1693,1970
319,-7006,-5660,3510,799,-1360,-926
320,-2457,-90,-5107,-1901,814,1297
321,-2699,1793,-225,1125,-1472,1824
322,-7038,-4690,-6068,821,1047,-643
323,-4096,-3526,-2455,-617,1600,627
324,-7793,6478,2063,1560,1208,1524
325,-875,2805,5893,301,984,975
326,-2398,-4489,-4448,-1513,-1363,269
327,4661,-2534,-5813,-759,1411,1325
328,4719,-5195,-1967,1157,-1728,-1708
329,-3433,1366,2993,-102,669,768
330,-1716,-6699,-4886,1319,635,1315
331,2479,6669,2602,-1974,-1655,1218
332,4153,-2926,-1096,-327,1862,978
333,5389,1300,7849,1826,-384,1415
334,-2397,-1889,-6545,-27,1871,-536
335,7037,-2023,-6064,1006,886,-392
336,-7570,3908,910,-1725,1490,757
337,7116,6027,5104,-27,1758,1164
338,4279,-4221,7834,1888,-458,-288
339,1509,-5829,-7786,1912,-202,1342
340,75,-2393,-1390,200,-388,-360
341,-887,-6895,-7108,1139,1426,-148
342,-5053,-4338,-7986,-814,671,1567
343,-4465,719,-5351,-1152,1722,-1098
344,4492,435,5066,460,-461,535
345,1946,4144,-7193,-1594,-1628,-1773
346,-3507,-4567,-7420,324,638,-460
347,5385,4244,-3923,1875,-1148,-1738
348,3564,7525,7570,1200,-89,1084
349,4808,1257,-5161,-1011,546,1665
350,6021,52,7163,168,1341,255
351,-7633,-1295,-1580,-860,-1553,514
352,5555,5780,2958,1349,-526,-1397
353,-4005,1154,-2491,442,-17,-764
354,-2390,-3147,-3090,1344,-659,1090
355,2623,4515,2490,-636,239,-1047
356,1170,-4540,-2772,895,-1535,-58
357,-6166,7273,-1229,-205,794,362
358,5138,-1644,7332,27,171,497
359,-2475,-3808,-6122,-1049,1210,1287
360,2882,-633,4343,1785,-1988,303
361,6605,6718,-378,1457,1499,-826
362,-6769,-7089,3002,682,1050,-1867
363,-895,1459,2248,-1245,-1331,1143
364,7039,2699,7642,554,209,678
365,-4737,-7792,-1486,-707,-227,894
366,-7613,455,-564,127,914,1998
367,-5257,-2732,6956,-907,-1278,-1074
368,-4263,-4987,-6712,-1595,1570,-266
369,2444,7105,5352,1251,-527,62
370,678,7591,4501,1545,-322,1512
371,761,-703,-783,930,-38,147
372,-1545,7782,-5586,-1297,1711,1005
373,-2936,753,1868,599,862,963
374,4402,-2055,-4968,-1801,-1797,1518
375,5522,-5502,6765,-206,-1691,-1509
376,-4551,5794,6805,-797,343,-729
377,-918,-5673,-6840,-899,974,-1745
378,6298,6494,2640,1907,1976,1046
379,2214,4700,-3130,-1852,1060,-948
380,-2240,-6148,-501,870,36,1264
381,-6019,6339,2689,-569,1752,-532
382,460,3814,-1388,-1115,1029,-659
383,5863,3562,-736,-940,1050,1710
384,-5835,5180,1222,506,1565,754
385,1619,5598,-4721,-1195,-401,-290
386,7580,4257,7345,-866,1971,470
387,5441,3725,3587,198,-502,685
388,-6677,-3712,3374,-1607,-1689,1169
389,3518,-5347,-456,1016,-1618,-545
390,-5542,3109,3614,-333,-1476,-395
391,7184,6373,5845,-812,1552,543
392,-1068,-4687,6448,-1801,200,-903
393,-2323,-3147,2800,272,200,283
394,5765,2179,-7538,-1163,-1754,1495
395,2345,-1315,7809,972,1541,-1100
396,-3746,-2241,2875,1020,-1053,1999
397,3396,-4748,-6362,611,981,-534
398,-7228,-7437,1439,592,-353,206
399,4498,-3217,5580,-1697,277,631
400,3484,-1757,7157,-1643,26,1622
401,-5309,4411,-5548,-191,1052,585
402,7210,7952,-5598,1226,-739,670
403,-5597,-5665,-4386,-660,-1649,-509
404,-5677,-6264,5644,-1792,1089,30
405,2624,407,1097,956,-805,890
406,5345,-2951,3722,-1702,-1633,-1740
407,3158,2424,1651,-875,1080,-121
408,-5093,7291,4859,397,312,-1194
409,-624,5355,3218,345,-1333,-1214
410,-7626,-3196,-1228,-403,-1352,-885
411,5710,3802,-5684,-747,1186,454
412,6304,-1552,2609,45,334,1798
413,-2976,1963,7018,-1885,-906,1701
414,-6905,-4062,657,-1168,-115,-490
415,3895,5915,-745,985,-375,1788
416,-1841,-731,968,724,1368,-1259
417,-3006,5914,-5194,657,1437,612
418,1608,7710,-5563,-557,-1120,49
419,-1231,4219,-7253,-221,-866,110
420,5378,-4570,-4795,1599,-564,71
421,-273,774,2183,-1958,54,-340
422,5530,3397,-3579,-1546,511,1980
423,-2573,2777,-4588,-1805,1354,54
424,-7995,5949,-4,114,162,1333
425,-7577,-1377,-2368,-1663,1278,1324
426,-2228,82,-206,-1589,-229,940
427,-505,6655,-842,55,-1444,-1790
428,2747,4548,-3327,-1248,1530,701
429,-54,886,-498,-1149,-341,-1696
430,-4551,233,3169,-1231,1816,598
431,-3789,4440,-6789,1410,-1498,623
432,3777,2626,4779,-328,-1241,-156
433,-5449,6409,-121,1174,780,402
434,4554,-7395,-6389,647,754,-1947
435,-2775,4998,-4854,147,1889,-1276
436,-7168,5982,684,-1539,1057,583
437,-5501,-1204,3911,1071,-69,397
438,7033,-438,3783,1491,-280,-767
439,-3345,5586,-6509,-1911,-1721,654
440,7137,-7061,-683,-1264,1722,185
441,1381,4769,-175,-1060,-1770,78
442,-1205,-1404,-4004,-1718,1713,-1885
443,7690,3897,-4312,120,-1863,1855
444,6557,3062,187,419,1377,1887
445,784,-3959,5051,812,1294,230
446,-4771,1691,7931,1581,811,-210
447,501,7765,4912,1823,-1033,1946
448,-6049,20,-3746,-1093,1033,455
449,2906,5342,-3793,-139,1632,143
450,1814,-2719,-9,-686,-353,234
451,1767,6528,-6215,240,-1670,1331
452,3732,5800,2615,942,1072,-723
453,7146,-7753,-7860,-1458,1087,-1696
454,-3488,4328,-896,-1152,-1332,-829
455,1552,-3373,4649,399,1277,-417
456,-1775,544,-1113,-589,1366,634
457,1920,-6900,344,1724,-1394,802
458,-1601,-3737,-1517,1609,-545,1426
459,-2765,-5085,-790,1210,-885,1274
460,2655,7325,4904,175,486,1221
461,2093,-3567,-2771,-380,-1721,-170
462,6069,524,5186,229,-990,951
463,2826,5364,-6482,-255,-548,644
464,4998,4718,5824,-896,-1514,1595
465,-1781,-1123,4056,-1097,-214,-1803
466,-3876,7533,3454,1597,1516,942
467,-7588,6815,6655,1959,-1369,-749
468,6620,-1765,-1460,1197,-1584,1816
469,6210,-5217,-2514,-911,-1,1554
470,2314,3781,4856,252,-1436,-417
471,-6301,-2164,829,-1115,1345,430
472,3156,2015,6421,1087,-1163,914
473,2638,2836,-6717,1326,397,1070
474,-2648,-3197,-4372,396,-90,-1597
475,130,-4213,-5395,96,-1278,594
476,4644,-2342,5104,-1113,-463,631
477,-3941,2933,-5842,229,733,-936
478,3954,-4706,7731,-69,193,989
479,-6024,-7944,7397,1456,1251,1944
480,-3300,2470,2962,1277,573,415
481,-2648,-1836,-5117,152,750,-772
482,1675,-6329,6345,-935,-836,819
483,-3089,4524,1039,172,-677,1093
484,-3757,5203,-5156,1754,-388,404
485,6468,-3122,-5690,-228,908,727
486,-7437,-7442,2773,-1118,764,1073
487,3198,-2103,-5727,1506,1090,-160
488,-6516,1377,4021,1779,-1274,1441
489,1635,1840,3685,-1351,801,643
490,-6189,-6345,-5220,982,-567,483
491,-6560,-3208,-6169,-1255,-1442,247
492,37,-35,-2001,1749,158,-1250
493,2499,2752,7246,-1680,13,1930
494,2097,7957,4701,1521,-1153,1134
495,-6950,5121,4267,-1969,349,-1558
496,6529,3489,-442,-182,-1147,-1683
497,-4273,-557,6103,411,1317,1607
498,-461,-3355,1057,1139,1423,-109
499,1763,-4571,-751,-1202,-933,485
500,4425,1952,-4919,1261,-235,-378
501,-1580,3870,2839,1714,-1754,1520
502,3920,-4120,-3408,1266,697,-1294
503,2624,7447,-7875,1501,-375,-1289
504,7794,-2733,7981,-1695,-42,791
505,-5678,4784,-7943,-1929,-1787,317
506,-1087,5398,-2335,-702,-1637,114
507,-1251,-7144,-6257,-1609,-1288,449
508,5615,-58,-3864,315,413,1073
509,6058,822,-2167,-99,-1204,-1111
510,1581,-5977,7561,-1145,129,1481
511,5975,-7096,-1673,528,-1496,322
512,151,2992,1960,1111,818,1437
513,2195,-7523,3398,1269,262,1521
514,-7819,5968,5686,-1672,-1103,1389
515,-6683,1470,3755,-1155,856,-1410
516,-3817,-2465,-4130,509,-1067,-25
517,977,2623,-5904,1818,644,-1876
518,523,5931,4962,-653,141,-1604
519,-5663,6003,6103,426,979,-1540
520,7588,5799,-3225,-376,-867,40
521,7332,4275,7345,-275,-308,1520
522,-300,2869,-3008,-708,934,-132
523,-214,1149,7170,1678,-128,-317
524,7425,-7387,-4039,847,15,296
525,6888,-6922,-1253,1331,1951,1987
526,7922,-6671,5714,1809,-1156,1976
527,5959,-5631,-3544,1469,-540,1190
528,-2922,-7510,4948,-689,381,1203
529,-2391,4805,7483,1467,1309,-397
530,-5631,-352,2084,1789,578,508
531,4326,-6172,-3442,-766,-661,695
532,66,7453,3190,1737,1434,-651
533,-3922,-2571,4386,343,-977,-346
534,-2966,2592,4708,-1985,261,1824
535,-2242,2153,-6104,-707,262,-1709
536,7240,-3527,1821,1911,1560,1049
537,6925,-7477,-6440,-889,128,-707
538,6574,5996,2848,-920,-1267,-1789
539,-4602,3008,-1206,609,1600,-374
540,4825,-6097,3688,-1935,594,-1432
541,-3882,1154,-6221,1006,-855,-544
542,1722,4377,-837,1118,-676,949
543,1733,5471,4322,1600,-1867,1734
544,-3518,135,2575,249,29,963
545,6862,7135,-1603,-802,317,1662
546,792,-4075,7069,1734,1789,-1830
547,6476,6827,-7214,-1032,1445,-1025
548,3421,2721,4085,-1339,-661,777
549,-1149,3417,1039,-576,1511,-1998
550,4935,5646,5667,-1952,-535,-1799
551,-5068,5589,-4714,430,1038,718
552,-5030,3622,-225,1555,-1115,1605
553,6076,-5929,-7267,-1262,297,-1309
554,4644,-5739,-5105,-1498,-1559,1322
555,-3395,3621,7482,1024,-457,-1662
556,2829,-2946,4784,1341,1299,-512
557,-3987,71,1312,31,-1201,89
558,3375,1791,1303,711,1177,386
559,3405,1562,3925,1636,1736,-1286
560,-695,2855,828,-1397,-1921,-457
561,-721,-5816,3758,1226,-1822,-362
562,6089,2385,-7979,-914,-727,-985
563,6411,-6395,-3327,-868,-551,1557
564,-7051,-5514,6781,814,-144,1647
565,451,-6269,-5325,-554,-1139,1640
566,-1163,-1028,-4045,-998,-1530,-1623
567,418,-7010,1224,922,1502,786
568,-4550,6505,1661,262,-174,1873
569,4132,-1344,3731,-1216,-1623,-76
570,107,-3407,-6107,707,-1093,-1399
571,6030,633,6582,-1421,409,-82
572,4298,863,-7819,1126,-266,-790
573,6991,645,1252,-1890,1526,393
574,-7810,-1728,-4572,-1286,1380,-950
575,-5609,2732,856,-1554,-1311,-1640
576,-823,-2660,-3282,832,-623,-104
577,3799,7358,-2012,844,-1037,-1473
578,5018,-5910,5648,-1222,-1221,-1074
579,-7820,2481,-6481,1091,-1375,-1923
580,2856,-6940,-4450,-111,-1014,1508
581,-2907,1549,2823,-1969,-39,1457
582,4419,-7988,-7748,-72,-1073,-725
583,4833,-7718,2943,880,394,1312
584,5589,-5424,-1270,1797,-1928,-1066
585,1565,3965,-6796,-300,-145,1761
586,-4825,4702,5389,-712,936,-1127
587,6985,6971,7122,1121,-684,-1292
588,3277,-2666,-943,-748,-1731,1585
589,-4145,3690,-6833,-549,1078,-170
590,-4646,-7983,-6968,-940,-466,-1061
591,-7674,2551,2690,503,-951,1303
592,-4694,-996,-1146,-1236,-1571,1342
593,3354,6291,4577,258,827,1533
594,3320,-4725,2893,-997,-1918,1404
595,-4332,-5538,-1760,1148,-158,95
596,3164,-3375,5694,1544,-1905,-826
597,-7737,-6905,1757,-1408,953,1448
598,-7329,4372,6736,-1669,1223,735
599,-2621,3523,-3236,793,693,964
600,-2872,6561,5359,-1143,-1006,-1301
601,-6637,1045,7290,-455,-1774,1318
602,-6273,76,-2900,635,146,-1363
603,-2443,6372,-3556,-1687,1333,-500
604,6211,-5238,6058,-952,-746,-6
605,587,6983,4964,728,-1570,-439
606,-6690,4035,-4723,1232,-1490,-1541
607,3505,307,-5467,-1621,-1106,1567
608,-6378,-1689,7618,-1584,296,1559
609,3078,2128,-6102,-42,906,1675
610,-6890,-3826,2692,-1059,-806,-614
611,5127,7085,2930,-238,-416,260
612,-4175,-7450,5517,1275,-1725,70
613,5732,3736,-2686,52,1663,-311
614,-3106,7858,-6622,1657,-1475,1616
615,-7550,-2089,-1601,325,632,-857
616,6257,1791,-4296,1476,565,-635
617,-1194,-7939,2082,-1433,-1864,1803
618,4196,-5823,-7343,1689,-1210,-370
619,648,5583,174,1411,-472,177
620,1538,-4114,-5846,-1271,1025,948
621,-7686,7843,52,1661,-229,944
622,6924,-4247,741,1837,329,1652
623,-2284,-4383,-4783,-927,980,-1332
624,6941,-3816,-1772,-644,-110,686
625,1241,3176,2038,-1422,-740,49
626,-2294,-7708,-5872,-1446,-1843,-1285
627,-2879,7509,-1340,-1850,81,-1383
628,-3138,-2688,-1714,-1325,858,704
629,7045,5583,-797,-1710,-1069,1003
630,545,5698,7488,-800,-972,-1557
631,-2953,1399,7987,667,443,971
632,-5277,-1619,3035,-575,96,-1192
633,1970,-4679,-3023,111,763,-1108
634,-7676,863,-3102,-110,-25,1086
635,184,1094,-7036,-1976,1409,-1008
636,7748,-4191,5244,-898,-653,-542
637,-4667,-2267,1796,1690,1208,-288
638,-580,737,2743,1908,-1607,-1629
639,5360,-1175,4382,1451,-1414,-825
640,1679,-6351,-5107,-34,853,-586
641,-7518,-2433,-1550,294,-180,297
642,1861,-2965,-2436,673,-1712,1248
643,1531,-7913,222,-875,-71,-1031
644,-4332,1857,-984,1095,-261,-1209
645,-6005,7719,-5721,-1628,-869,-1419
646,2925,5079,-203,1271,1445,898
647,-2724,6723,-7729,-81,1910,1429
648,984,-5335,5939,1611,-1157,1641
649,1341,4563,-3797,-741,1604,-1286
650,-2766,-918,-7656,450,150,-1430
651,1072,-1305,7443,1570,360,1139
652,3400,292,-4691,1251,1173,1363
653,2554,-3825,-3751,938,-1134,-6
654,-6394,3834,2433,354,648,-151
655,1,-5929,287,-57,-1698,-1435
656,-2073,425,-3864,-1300,-234,1896
657,3920,1401,-2018,1474,-1862,-1044
658,-5026,6200,2979,1052,-1582,-1801
659,-6308,2097,-3622,200,944,1715
660,-2131,-6559,3119,-1453,1023,1993
661,-704,3445,-2705,402,499,-867
662,7320,-3138,-3149,-162,667,-226
663,-28,-5935,-2528,1289,-778,827
664,7792,-1981,2888,-1305,1143,-864
665,2413,-4963,-3541,1062,-1063,1736
666,2650,-3044,-1138,-892,-47,1128
667,628,4371,3208,221,-275,9
668,5907,-1158,-2198,1552,-864,-1866
669,7317,7936,3573,-1505,1776,-31
670,-7687,2064,6724,-404,997,730
671,-488,7702,829,1312,-1813,1160
672,7936,3082,-4678,1341,1884,-426
673,1126,-3826,-7606,1596,-454,-1651
674,1084,-2790,-3302,928,-1465,1630
675,7445,-3977,-5106,1151,-1444,234
676,-6199,-1710,3337,932,1335,510
677,-1408,5124,-2357,953,-108,1162
678,778,4007,-5837,1766,998,-285
679,-2674,6378,-5796,-690,1879,-1156
680,-5312,-4535,813,-969,-1164,-525
681,-5200,-3326,-3667,1120,1250,1723
682,-652,6019,369,-511,113,-247
683,4512,1942,-7734,-1350,-121,1898
684,6680,5225,4929,590,-832,-116
685,5313,-710,4833,940,-941,444
686,-2529,2810,724,-1731,828,41
687,5669,1557,-3603,-1567,-1976,-688
688,-1444,-5441,-5156,-1586,830,634
689,534,-1422,-2299,-965,-1421,1799
690,-7240,-5101,6181,147,-1945,959
691,7060,-666,3727,291,-572,1441
692,-6864,-4628,4896,-1835,-1652,-942
693,2493,6046,7651,674,-1280,-1215
694,-4737,4379,1666,1982,-1836,1512
695,7807,3075,2951,-1744,708,39
696,1285,-7538,1497,70,348,-229
697,4353,2803,5689,1089,1438,-1679
698,-2880,7230,-7283,1197,1980,1233
699,-2485,5287,2357,945,1902,1262
700,1476,-25,-1888,-127,-1088,806
701,1346,-735,280,-1279,-1787,-93
702,7700,-6085,7115,266,439,-1266
703,2878,6147,5389,1659,-1322,667
704,-5060,-2310,-3336,-41,-406,1460
705,6258,132,-4173,208,-852,450
706,6624,7691,-904,-412,536,1514
707,5777,-1835,526,298,784,787
708,696,6036,2563,-393,769,653
709,1786,5242,3020,236,1699,-1793
710,7249,-644,-1273,226,-671,999
711,-2182,3717,-7670,-546,1734,-567
712,-2656,5536,-4271,1702,562,1166
713,2299,7984,-7357,-1840,737,26
714,7784,1940,-4499,1932,-402,-1250
715,6528,-1580,4857,1099,-1093,518
716,3024,-5514,-5316,-1795,1914,-1935
717,-6730,-6153,-295,659,-1652,230
718,-3126,-1577,-4049,-530,325,876
719,4076,1710,-1967,1670,1254,770
720,-6835,-6168,-7203,1046,-1353,1519
721,-7120,-7514,7726,-779,-249,1868
722,-4656,5332,-5948,1952,-1486,-1426
723,-7125,7957,656,354,1175,1400
724,-6540,-3082,-6206,-323,1064,-1079
725,6099,-1573,-3161,600,-1143,-1250
726,2035,-1605,4913,-415,1466,1592
727,-1138,4370,5138,-681,-638,-1006
728,1874,6869,6739,-715,-969,-1106
729,-4356,1703,-3758,1779,-1003,-472
730,5604,4632,-1226,-1776,-206,418
731,-5135,7291,730,-1345,-620,205
732,-2729,869,-4257,-304,-921,-1249
733,-6350,-7024,3484,-917,906,1540
734,5977,442,-5839,-1266,415,-757
735,-5276,7633,7293,-1368,-384,279
736,-7037,3036,3614,-1695,1008,1001
737,4771,6055,82,1908,1639,341
738,-5782,3805,-1499,-1979,-1980,759
739,-4215,5541,3497,1306,1095,1517
740,2020,-6994,1283,-624,1852,-866
741,-5461,-1974,5854,629,1652,-62
742,3698,7843,-1094,-1078,-23,-350
743,6335,-7947,-2325,163,1778,-1763
744,7096,1690,206,-458,1844,-1418
745,-7694,-524,-4809,-1812,-1212,-1777
746,7818,2537,-7483,404,-773,-1109
747,-1242,5353,313,-68,-597,-975
748,3553,1379,2332,340,-612,-1322
749,-3794,5686,1145,-1820,-686,-1762
750,-2105,-7372,-7222,297,67,-1193
751,6995,4957,4467,-122,-50,1107
752,-1204,-768,-7638,1280,1173,-536
753,-7833,1618,-6164,-813,-1770,-1166
754,-5532,7949,4480,-391,-1613,529
755,-3168,7309,1895,-818,1723,-1968
756,-1085,-2858,5927,1432,-131,-295
757,3888,-5296,-4133,655,1020,-760
758,7772,693,-3417,357,-416,1054
759,527,-1957,-6394,818,918,-1659
760,-6828,-5101,-2684,1728,660,1372
761,-7712,1588,5638,1458,-706,460
762,-2720,6409,-5744,381,-739,-215
763,5916,-6001,6329,845,1805,-54
764,711,5182,-1945,826,1953,-33
765,7453,-4920,5963,1010,-1799,-783
766,6309,-7538,-2214,-787,-939,434
767,-6269,-5778,-7675,-156,-1236,158
768,-2089,1267,475,-959,74,488
769,5659,-1599,3227,-21,-1524,6
770,7824,-4855,-4736,211,1932,971
771,6195,-4063,-1857,-888,826,-417
772,-615,-2861,407,-274,-1445,-1408
773,1307,-452,3480,-1754,949,-1099
774,3923,-5874,7816,-1579,1703,1703
775,4169,2976,-5818,1010,-605,1811
776,-1103,4908,3502,1489,-166,902
777,874,-5695,1858,119,24,1796
778,2689,-7864,-6989,-958,1438,-1144
779,-4126,1571,7176,419,-1056,-878
780,5753,3536,-2189,-1289,1314,-520
781,6334,-4094,6993,1292,-1588,1498
782,6336,-6704,3092,1773,-1017,-1897
783,-792,611,-2260,-1149,1793,-1472
784,-2658,-2928,-4153,1661,307,1048
785,5739,6694,59,-354,-958,918
786,-2032,2969,-1698,-575,348,-906
787,7781,7683,-5233,-564,-1584,164
788,3330,-4487,6257,894,1106,37
789,3299,794,7067,-1462,813,596
790,-1916,-7308,-2133,-1451,1920,1208
791,204,-5915,-294,727,1858,971
792,2671,-648,839,-534,615,1473
793,-3533,782,-251,-509,500,1207
794,-1472,6075,3184,-1730,1239,206
795,2921,-2387,1195,-1800,271,-669
796,2985,6333,-3543,-1673,1773,-1486
797,-7286,-6971,7093,1271,1680,1942
798,3059,2688,-828,-1011,-1895,-678
799,7890,7195,4441,951,-1526,1698
800,1626,7941,-221,458,456,743
801,-3850,2401,-7495,-1650,-1177,-169
802,-4569,3120,2513,1583,176,1745
803,2721,2044,3265,-1174,1541,-1417
804,-3202,7893,-362,462,-1864,892
805,-1983,-5892,6551,677,-1396,-400
806,-1334,-7770,3484,-954,61,-1535
807,-1662,-1540,1257,1616,286,-1990
808,5207,-4139,-5458,1409,-1751,1164
809,-3292,-3493,3881,1883,754,1749
810,138,7366,-4798,704,-1471,-1080
811,3419,-7259,-1503,706,573,-1535
812,3273,7876,-2255,-1154,-100,-1944
813,-5100,-3130,660,-515,-436,422
814,2513,-7632,7598,-404,823,-534
815,-5850,-505,4661,-1168,188,-982
816,-499,7241,-819,1736,-494,1770
817,6796,524,-6066,346,49,162
818,2646,-6119,-3139,-743,-52,1191
819,-612,6048,6415,-1107,182,-1986
820,7278,-4097,4645,-613,545,1789
821,-2625,857,-7049,-734,575,1815
822,-4487,2728,7199,-1088,604,1675
823,-3565,-2090,716,1480,-453,-376
824,-5281,411,2971,1974,1725,1610
825,761,-2178,2986,-1833,-1572,-1090
826,810,-5474,6052,-1902,-550,-1418
827,-3808,-7691,-6233,-1755,991,-914
828,-4951,-3351,-2111,-1570,-233,-1889
829,-5742,-453,-131,1368,-1443,1355
830,4610,459,-2913,-680,1756,1371
831,-5892,5102,-3804,-610,-586,-914
832,7684,-1085,6575,1045,682,1817
833,5497,6274,-727,1204,918,1267
834,-4123,-2179,4945,-379,1436,-1827
835,4816,4961,-7997,-475,1318,1465
836,-385,-4301,3712,454,1321,-442
837,-3887,7436,4953,1992,-178,657
838,5252,-117,-2994,-1076,-289,-537
839,-3833,3565,-5627,-166,385,1488
840,6558,-6311,4389,1685,-1460,-920
841,2491,-3580,5008,-752,63,-1828
842,1929,1798,-463,-791,175,-1210
843,-6985,7383,-6574,-415,-1109,1447
844,-5612,6664,-7241,-1576,-510,-1720
845,6266,-6342,6490,-1959,1849,439
846,58,7851,-1351,-1770,387,97
847,5236,-7097,91,1680,1977,-1718
848,-4751,7210,-4465,1298,610,-1025
849,3359,-3236,7459,1813,1138,1857
850,-7445,427,-4256,731,1936,676
851,4887,-1528,106,1551,-230,25
852,6698,-6192,-4712,-1079,1707,-1312
853,-92,6930,421,943,591,-135
854,-3179,-735,-2208,1690,1651,1233
855,-6692,-2846,-4109,-740,-698,-695
856,-3677,936,-2040,1189,-1199,365
857,-5216,7698,2912,-1032,1326,-1219
858,2810,4410,6260,-1652,-1295,1984
859,-4565,269,-960,435,-272,166
860,-5291,4437,3782,1069,-943,-1942
861,7215,-2994,2973,-926,1821,-1159
862,1125,-3359,1768,-1965,406,-1525
863,254,7857,6460,1260,-295,-1097
864,2498,6720,7815,1147,84,1027
865,-4549,3189,-6939,-208,-1141,-941
866,-3213,2797,-2995,-574,-1049,17
867,-6918,-2977,93,1479,614,1004
868,1713,-464,-5734,-1390,-1880,1195
869,7782,-7851,-1390,-1427,1937,-716
870,3899,-5889,2401,-1512,273,368
871,1550,2189,-3535,1292,1642,172
872,6648,1621,-4669,519,-1311,-1234
873,-5612,-7719,-6752,1045,-97,1293
874,-4368,6050,-2404,1756,-1620,227
875,807,1388,1049,-703,-1437,21
876,-7188,-4718,7509,-983,-1756,-993
877,-6427,-3152,-27,-1781,571,110
878,6190,-1878,-5823,-197,-1782,891
879,-330,-7426,-4820,822,1683,-1247
880,-4130,-2916,-2712,1465,-687,1743
881,-4748,270,2351,375,-311,-759
882,-1109,3661,2990,1682,-1297,-1565
883,-7174,7657,-2163,105,1803,-1470
884,2778,3909,-4043,-499,-597,1023
885,1340,6522,-3214,463,253,177
886,-4785,3397,4890,-1199,-1367,-1254
887,-4839,3244,-5328,396,1277,1995
888,1621,1617,-4592,-260,-1324,-1682
889,-6145,4805,-5708,899,-581,-1885
890,-4815,1305,7566,822,-1929,-1162
891,4618,3163,-370,-79,-979,1674
892,1032,2518,1745,-660,1487,442
893,-4171,7204,5710,1617,-1860,-1587
894,-3892,-2771,-2536,-1576,849,311
895,-13,-1840,-1907,-240,-1873,-1474
896,-1153,3220,-5135,-1917,-1321,-1822
897,-3995,-6541,-4196,-1770,1543,1336
898,-1396,3121,-2837,1537,1541,-1199
899,1610,3985,6646,-889,-1310,1181
900,-4772,-6136,-7682,1001,157,-1047
901,4485,-4294,5142,1689,1233,1334
902,-2775,7599,-4223,-239,-387,-264
903,2405,7474,3007,-1086,1294,1700
904,-5685,3185,3356,-1165,-1363,-1009
905,-7091,3924,-774,-1373,-1353,84
906,4550,2043,6947,1976,-266,231
907,4404,-4757,-5757,51,-1202,181
908,-5750,1686,-2980,-412,-799,-1204
909,5816,-7901,247,-250,1968,33
910,-6988,-5109,-5822,201,140,-867
911,2212,3605,-338,-180,-1466,1217
912,-5233,-5714,3073,-1214,-1078,-852
913,-1852,-7873,412,-1522,-246,-1443
914,-5509,7791,3620,-309,-264,-367
915,-4181,-732,1631,-1164,-19,-1108
916,4935,-5229,2702,-715,-439,336
917,-3390,6516,3672,-709,1471,-1378
918,7411,1245,1087,1989,-1638,-999
919,6894,-6571,3285,-586,1843,967
920,-3685,500,3762,-420,1924,-1951
921,5030,-1975,-6031,-1109,868,-179
922,-5308,7609,89,1576,-1839,-1889
923,-2678,2886,-873,-1006,1060,430
924,-6258,3855,2628,-846,275,-138
925,7200,7596,-1810,-1033,402,-1077
926,-4400,420,1722,402,-675,-1180
927,-7025,4125,1184,-1233,906,-1259
928,-733,1978,4173,1980,1247,-1469
929,-7707,-3036,-1616,1623,1374,1076
930,7588,4149,7879,886,1121,1276
931,-4584,-1020,-23,-1167,1427,334
932,164,885,-2795,-805,-1687,812
933,-2770,6917,5727,-1800,638,-294
934,-4679,-2948,7162,-1696,-639,1340
935,2517,5511,5043,-1521,1718,1723
936,-7831,7417,-1037,-725,1905,1132
937,4856,-5134,-6477,318,884,-1357
938,-5332,3453,5670,240,951,1187
939,-3935,-3478,-5588,-1854,1062,1547
940,5157,-6608,-6640,-343,-518,-1880
941,2753,5966,-4744,1118,-641,1036
942,4275,7215,-2064,-1912,-1837,95
943,-4872,-2026,-4423,408,1573,-1307
944,-620,-2331,-2295,1812,-1771,1994
945,4530,7458,6664,1725,470,1897
946,-5470,-1956,-1398,487,747,-1342
947,7122,6501,-7630,1849,-1501,1655
948,-573,7014,-4156,-638,177,648
949,1954,2016,89,979,1062,784
950,3439,4844,-6930,-1245,803,-791
951,-1953,-5041,-7274,-1857,1949,-135
952,-3746,1599,7059,-1762,-1056,-219
953,876,4084,7019,-906,79,-1285
954,3973,1207,-5613,-120,-1366,-1083
955,-4942,-4904,882,-1126,-1100,-772
956,1196,-6136,5527,829,490,1576
957,-6347,5589,6487,1096,1000,1535
958,-1250,-5746,7632,-1517,-215,1772
959,-7565,7226,-3710,788,-1513,-1912
960,6223,6101,5438,744,-318,909
961,-1883,-591,-1025,303,1764,-191
962,-6571,7084,568,1401,345,-824
963,-5899,3522,-7305,347,790,-1725
964,-4536,-6027,-2146,-142,1376,-258
965,-3339,-7310,-5819,-1862,699,870
966,3082,-3429,2977,364,913,1149
967,458,7895,5487,-1103,-229,-190
968,5013,1593,-3059,752,-295,-1949
969,-1127,7796,4541,-845,1153,-394
970,-2493,-4756,-1830,-1929,-1944,-130
971,-3834,4467,3233,-67,-1395,434
972,4847,7914,6185,1003,-1338,-1667
973,3977,5553,-3459,616,-1562,-1030
974,7048,6182,-1819,1179,366,393
975,4348,7724,3154,1211,283,-542
976,5183,-7147,626,1449,151,971
977,2401,3517,1631,-1126,-1572,1285
978,2536,-7029,-545,-665,-1449,-312
979,-979,-1049,-6665,1622,-1977,-608
980,-493,-7625,6782,-1642,-1953,1645
981,4755,744,2738,-1867,-413,-1803
982,7015,2218,-3708,1229,1033,801
983,301,-5039,2797,-1294,-903,957
984,5948,-3244,6826,135,-193,1933
985,4237,6074,5948,-1571,-1584,634
986,2528,495,7028,-870,-638,345
987,3378,-6897,-583,-336,-128,-1322
988,4321,-687,1392,1777,1026,-700
989,-4468,911,924,272,1407,-1574
990,7197,-96,3480,-292,379,-1789
991,-4633,-3295,2746,1921,1059,-1179
992,6727,-6515,-7363,-935,-1212,1439
993,-5900,-5622,-7054,1624,-953,1277
994,4292,3024,4453,-291,-1056,-1788
995,2310,-2687,4032,1548,-1975,1325
996,2879,7877,-2731,980,-85,1504
997,5290,-3277,-3932,1476,1036,-381
998,4473,53,2675,400,1337,-916
999,-4855,-1513,1991,1537,-1931,1732
1000,-135,-1495,5185,-783,-1479,-131
1001,1268,-3596,-1539,-138,-1453,1914
1002,-6370,-4494,3071,-1466,-557,-905
1003,6257,-2026,-3742,122,1259,-1959
1004,7432,5957,2181,578,-1663,-212
1005,5671,-7851,1368,-1048,-523,1608
1006,-3216,-3863,-5761,1090,654,-328
1007,-5431,-672,-6358,320,1924,-1526
1008,7862,6975,-4400,-1723,928,-1949
1009,3257,-6950,6213,1890,318,-1493
1010,783,4768,-4784,-1279,648,-1953
1011,2129,2184,1413,-1735,1567,453
1012,-2115,-3204,-4969,864,-201,-1829
1013,-5556,-6452,1881,-1246,224,1760
1014,3900,-4498,-6482,-1364,-568,770
1015,-1563,6475,-1873,-934,1294,-325
1016,-6518,3526,6088,-1850,-370,-122
1017,-6950,6299,4865,1055,-1526,-1595
1018,5931,4136,-7700,-1696,1493,529
1019,-1770,-5916,4919,-233,-1938,-1358
1020,2702,6561,-4363,323,-1148,590
1021,-3662,7979,-4203,900,-644,-1255
1022,3498,-85,-1609,1726,-886,-409
1023,-3178,-901,-1408,314,1423,1225
1024,-2449,-6329,-7785,1871,-784,-779
1025,-4610,1223,-6760,762,1461,673
1026,-6442,1796,-5409,-1043,-313,254
1027,4757,1435,-4235,-720,607,251
1028,-2391,5135,1637,-92,-1680,285
1029,-1930,2247,5140,532,550,-1713
1030,6746,5070,-5986,-1002,1730,1959
1031,2171,6834,439,-1875,-1579,947
1032,6165,-1246,-298,786,-1056,550
1033,4381,2422,1911,-1468,-266,-1350
1034,712,482,-5021,113,-885,1771
1035,-6789,-2417,786,-937,-477,1105
1036,34,-1947,7117,1637,233,-1766
1037,5413,-5822,6415,-296,-1423,1557
1038,-1409,861,-908,206,-1445,1658
1039,5201,-779,3960,1082,-899,-1422
1040,1924,1240,-1820,-1593,-249,842
1041,2260,-7475,729,1863,-76,-176
1042,-5555,-3647,-781,1409,-1743,-554
1043,6670,-2785,-3997,182,-1437,-348
1044,-3875,-286,3777,715,-335,73
1045,-7281,6861,-3487,-329,1683,-42
1046,348,-749,1696,-331,-1515,165
1047,-636,6650,3871,962,1960,1615
1048,4302,-3643,-7447,61,1178,1227
1049,-7106,7407,-7912,-81,-1472,-1447
1050,5459,4956,-6026,1510,-798,1346
1051,4844,600,2847,671,-1333,13
1052,-5600,4066,-4019,1639,1522,-556
1053,-1286,1954,-7162,-1302,-491,209
1054,1001,-7714,1390,-1047,-979,-1548
1055,-7428,-7612,6766,1762,-1971,-1624
1056,-570,4198,-7737,1323,1779,-373
1057,-4512,7194,-914,-617,-119,-2000
1058,-7306,6665,4991,-278,-399,-1397
1059,-7687,-6989,5519,1983,-1826,42
1060,5574,-6516,-5351,645,-1319,-906
1061,-7973,392,4272,-1168,-217,-904
1062,-3854,-6979,-28,1507,-1831,1390
1063,1311,-7356,-294,133,48,-929
1064,-5907,7722,5477,138,523,1516
1065,-5506,-3760,6001,-682,1123,73
1066,-630,-1755,-6150,-1840,1219,1807
1067,-6576,2469,-7563,-1120,1942,147
1068,-6034,-1189,7446,1623,1555,949
1069,2467,7085,-1575,1616,-1631,1759
1070,-966,7511,-5105,1060,290,1530
1071,-4842,5315,7,65,-1108,-973
1072,-6901,-4902,-6024,703,1029,-762
1073,-7650,-2140,5855,-1677,-144,-1957
1074,-2638,-1101,-6650,-1556,1082,-1769
1075,-1921,5389,-4756,362,-1090,1541
1076,-380,-5749,6993,-422,-703,-1228
1077,1062,-7159,5211,1488,-1205,-1247
1078,4343,-7041,-795,947,1196,-1611
1079,-5995,7850,3435,1065,1820,655
1080,-6464,4679,4634,1064,1734,1996
1081,-258,-413,6090,1641,1085,1175
1082,6314,-3324,6110,-59,1096,-54
1083,-5079,187,5013,482,309,-1906
1084,-2445,-6496,6204,1924,1924,-1126
1085,1388,-7330,-6718,-1021,-367,-1551
1086,-2284,3927,5186,762,-1844,-659
1087,198,-1451,6521,-1353,785,-316
1088,6449,1888,-855,-1315,1658,-866
1089,-2705,5511,1435,403,1066,717
1090,3115,1696,4817,-1203,-475,529
1091,-4619,1135,4200,-1975,1039,-1331
1092,1498,-574,4397,-647,1337,1012
1093,-5123,-2289,4717,-1968,1112,-579
1094,3713,6947,2533,-1040,-1212,-679
1095,3734,-4529,-469,-940,-1468,-627
1096,-1999,-4197,2176,594,-1869,-1357
1097,-5123,-2008,5103,1753,-495,282
1098,-7807,2628,7289,356,670,-108
1099,-2639,1019,-3238,-944,1339,-1442
1100,-4331,-4874,1490,1198,-1909,1383
1101,5815,5035,-2618,1198,-1740,-607
1102,-1793,6932,3759,657,-706,-1431
1103,4342,-5499,-3824,-1894,1549,546
1104,-7483,176,4167,1266,-1174,-1579
1105,3764,-7939,-4808,1948,-675,876
1106,7400,-1570,-1285,-605,-1497,1841
1107,-5500,-2860,-5890,187,685,-1514
1108,3842,-7940,4802,132,-52,1909
1109,1123,4672,-275,-1252,-1042,-1210
1110,-6175,5744,-357,172,-1180,1077
1111,-7118,-6109,-975,-1092,873,856
1112,199,-6361,5653,-268,-1505,1103
1113,-2259,629,6600,1037,-1364,-646
1114,-278,-2979,5290,1445,1643,0
1115,-5506,-399,-2048,454,-59,-819
1116,2105,-2526,798,-1386,589,-582
1117,-7548,452,748,-1130,-910,-1877
1118,4415,2274,6018,-448,324,-1441
1119,3079,-1207,-2598,1744,1379,651
1120,-1237,1121,5261,144,1926,849
1121,1571,5329,68,1493,-348,-1645
1122,7913,4749,4786,-1435,669,-1104
1123,-635,-5988,4460,-1103,1214,-1677
1124,454,-1811,-7028,-333,373,-1628
1125,7937,2858,-6996,-1328,-425,658
1126,-4963,-3898,6374,-1686,-1901,648
1127,-2299,-2235,1939,-1018,1946,-1666
1128,-6126,-5955,-5070,1296,-728,-1729
1129,5416,-6321,63,-758,-61,-790
1130,-6225,-4058,349,-887,1855,137
1131,5730,3985,2481,298,-252,1660
1132,572,-6496,-2365,891,38,1874
1133,4044,2274,4498,-993,-1208,-1623
1134,5359,2614,-7454,1529,-657,-134
1135,2682,-3339,-6566,851,-808,1894
1136,1658,-1310,2942,529,-1969,409
1137,1685,6751,79,-1846,253,1978
1138,-3024,-7367,3390,-9,-40,-1690
1139,1975,-5462,2214,1966,568,-1337
1140,5717,3905,-6313,-1564,-384,-1592
1141,2599,-1645,-3463,-593,-944,-683
1142,1752,-3895,-1940,-977,514,-634
1143,5183,853,5538,475,1861,216
1144,-3942,-3628,3918,602,-1368,-1355
1145,4774,2322,4680,1165,-1381,1620
1146,2950,6542,-4215,-1336,222,1417
1147,7269,-2446,-6958,1046,-1490,-1661
1148,-5487,3858,-6529,-1398,1414,989
1149,5380,-3962,4722,146,-499,-1316
1150,408,-1686,4476,1982,1127,-1638
1151,259,-4008,4279,-615,1526,-111
1152,-7089,6086,7680,724,1924,1273
1153,-6431,5866,7866,-1369,556,334
1154,3766,6398,-7057,-926,-1291,1373
1155,-1047,-3379,-4963,634,-236,828
1156,242,4681,-7095,1552,150,-1365
1157,-845,-2724,1948,-1423,131,-904
1158,-5825,5939,6675,306,-832,789
1159,7125,-3467,-7977,1228,-863,988
1160,6424,193,-3147,-27,-138,-1269
1161,3567,6283,-3620,-224,466,1949
1162,-7206,-1898,-5995,701,1380,-1961
1163,7416,6806,2787,-1126,207,-497
1164,1815,5465,4705,1373,-1463,-161
1165,-5275,-6303,-805,1405,1658,565
1166,-1008,1174,2580,865,779,-179
1167,4639,-7796,-1003,1215,714,305
1168,-1854,-7785,-5235,-600,351,-1591
1169,-1472,4886,-1093,821,-375,-1646
1170,739,-192,-163,504,1694,100
1171,7240,-6345,5293,1106,839,-409
1172,-7836,-1437,-5194,1590,922,-603
1173,5153,4228,-7965,-317,-949,912
1174,-5097,500,5355,-1174,-881,392
1175,-2592,3310,5931,-111,-229,-1336
1176,534,-7454,-5922,-940,98,-622
1177,-6814,7618,5079,163,1388,804
1178,-76,3157,-1709,-1988,1012,458
1179,6241,2540,-4986,-1155,1781,1994
1180,1512,738,-906,1887,453,317
1181,-521,1901,803,884,300,-56
1182,-1989,-1090,5806,1170,660,1747
1183,-2993,7790,-289,504,-111,1827
1184,1621,2517,1946,1945,791,1984
1185,621,6643,-3725,-1878,718,-1393
1186,1235,6743,6683,963,-643,-507
1187,-2422,-6193,3800,-1503,-244,-559
1188,-1150,7804,5378,1573,-74,455
1189,-4288,7550,5813,1037,1167,-328
1190,-3465,5196,3810,726,1154,241
1191,1124,5657,6721,-1179,459,854
1192,3348,518,-7068,-335,-1792,1658
1193,-6293,-7568,232,-1105,1443,-582
1194,7400,7483,7758,620,-1001,1279
1195,-2584,4587,982,1641,732,1720
1196,5964,-7406,6726,1314,1223,-691
1197,-1633,-4659,-5839,1270,-1127,183
1198,-542,742,3403,689,361,1700
1199,5089,-6952,-6422,-1620,-1257,-1343
1200,-3878,-682,-520,1385,1901,644
1201,7530,1565,5778,719,1244,-730
1202,4287,-3368,-2250,-329,-771,1045
1203,-3691,1379,2733,-333,-1457,868
1204,-2290,-5898,-7333,378,-106,948
1205,277,2362,420,1000,1126,-1313
1206,2257,1230,-794,-458,-763,-571
1207,-1533,7297,4251,-1920,1278,-959
1208,-2658,6578,7606,-616,900,1073
1209,-1477,-2199,1264,375,1200,-1934
1210,1571,3190,-1512,-973,1421,-980
1211,3986,-5621,-7565,425,-5,1581
1212,-2650,355,5396,1927,-1272,-1896
1213,7693,7849,-7607,1929,-1080,-645
1214,1383,626,2685,-747,906,-1110
1215,3306,-7181,303,-1325,-1743,-472
1216,4472,-3238,3222,-654,923,1569
1217,-7668,3019,-1889,-1932,281,-1017
1218,7829,-4422,-4642,-541,-1353,-1490
1219,-1843,-7726,2682,-491,1755,-1789
1220,5758,6930,3988,-619,-341,854
1221,6619,5493,2258,-730,280,-1771
1222,-503,-1571,-7522,-751,828,1928
1223,6499,5574,-2839,-557,797,103
1224,1278,-359,5889,714,-1706,1681
1225,3230,-5231,-3604,510,-35,72
1226,-4181,2238,-428,-254,-1639,623
1227,953,4344,-4568,-952,1603,-322
1228,-5651,493,2139,1757,675,-357
1229,1195,-2745,3756,12,-1422,-1383
1230,1876,5558,-2142,-1631,-603,-1716
1231,7006,-5525,622,-561,-530,-983
1232,4306,-2095,245,570,1872,-734
1233,1493,711,-296,-926,1493,1565
1234,-4676,-4618,-1153,-112,-621,559
1235,5857,5330,-6787,63,-998,877
1236,7212,6749,-358,-325,-1133,1828
1237,-5971,5765,3550,-1036,-761,1675
1238,-4139,-7151,2093,-1563,1809,1387
1239,-4813,-179,-2808,-534,-1513,-731
1240,-5568,-1133,3357,1585,755,-1996
1241,500,-1398,1269,-1417,1057,-674
1242,-4370,-4814,6832,1105,-117,736
1243,-435,-3243,1381,-972,538,1383
1244,-7970,4708,-2402,1673,748,-780
1245,235,2280,-4238,1267,-603,-223
1246,-3800,7812,1472,-1249,993,-6
1247,-752,5842,-7036,1691,-491,-686
1248,-234,-6687,-6957,1945,-683,-1546
1249,-5414,-2126,2515,146,-1219,-1015
1250,1730,3625,2032,825,588,-1838
1251,6678,-5662,7235,1491,-1595,1126
1252,1336,-5187,7446,-1068,1990,-1896
1253,4608,5093,5933,-1779,936,1437
1254,7870,-25,-4802,-1977,-866,1685
1255,-1972,5474,782,1190,-172,-1350
1256,-2515,-6135,4924,96,1600,1769
1257,-1144,-4451,6548,903,137,-539
1258,-131,7764,662,-883,1819,-289
1259,5222,-5745,2676,-1108,-1701,-1361
1260,1418,7999,2363,-30,-1021,-48
1261,7583,3234,-5913,138,-159,1667
1262,-3231,-1476,-713,752,1613,1838
1263,-5586,3803,-5587,-1772,1815,-1778
1264,-7594,-7109,3784,-1927,-760,452
1265,-1320,5964,7822,571,1855,1059
1266,-5380,-2982,-5003,-757,119,1222
1267,2311,-459,1875,-1886,-878,-1837
1268,-289,509,-3986,-1185,1868,-1190
1269,-931,-23,-7424,590,1459,-819
1270,2063,-6713,-6072,1601,655,-1851
1271,-6096,6829,-4987,286,745,-768
1272,5837,3441,-1556,1673,1121,-101
1273,-2028,-7037,-7663,1022,-1735,1728
1274,-5544,-7346,4328,-952,-870,-905
1275,-6705,2517,663,125,-734,652
1276,-4077,-1276,3423,-170,459,-1257
1277,3531,-3065,1415,1071,932,496
1278,-4680,1757,3389,1854,-1860,1282
1279,-4737,-2635,-1873,-49,-1042,-1015
1280,-2358,4499,2458,-277,-1053,1482
1281,-4264,6753,-4447,-1961,-1370,-1040
1282,-6337,-5523,-5575,-1757,7,-1466
1283,-2831,-4624,2873,-1186,-1675,612
1284,1532,3208,-3652,-1058,551,-1296
1285,-3837,-236,5517,1216,-1572,-1918
1286,281,7198,554,-1347,412,-949
1287,3310,-942,7610,58,1139,283
1288,-868,-2082,4308,-1973,-1202,-1012
1289,-546,932,-1088,-1366,-1106,950
1290,-2290,365,-6077,-1580,1912,-1795
1291,1093,-1792,72,-1943,-989,1427
1292,5055,6956,6212,-700,48,1985
1293,3424,7527,-142,1651,1786,-263
1294,2975,3792,-4941,-1638,1364,-887
1295,6256,5869,1378,-1975,369,-255
1296,-7688,-4373,6933,-1233,-705,427
1297,3761,2298,-7351,1381,-710,-423
1298,7013,-379,7762,-1219,-1317,1450
1299,-7406,-4610,-7414,-1625,-1748,-891
1300,6660,2491,-7729,-1349,942,502
1301,-6878,7583,4726,919,-551,570
1302,6779,-959,-7714,1856,-588,1687
1303,-4182,2820,2794,1635,-66,1333
1304,-3217,-4266,-1391,1134,-1021,-947
1305,1364,5192,6433,-598,1490,-1813
1306,-3743,2700,6027,-284,-1690,1516
1307,-1507,4300,-3433,1074,-854,196
1308,4653,5842,-7618,1035,-936,-1925
1309,-7958,-213,-896,-1057,-1315,1696
1310,1827,-221,5131,228,1090,-1457
1311,-7433,992,-4089,-1581,-1359,-1406
1312,-1955,-6270,3343,734,-1185,-1616
1313,1881,3715,990,-1371,-1639,-1221
1314,7826,-1561,7518,1106,626,934
1315,-3762,-2608,69,-866,-282,-1545
1316,-5360,-6509,1193,120,1433,-822
1317,5311,-1543,988,-796,-403,196
1318,-3002,-5767,-5838,-1429,-1235,-462
1319,3057,-7810,1497,-505,1873,-498
1320,-4939,6927,-1854,763,208,1837
1321,-2714,6664,7560,1256,896,-375
1322,4424,-765,4296,-1161,-858,-1428
1323,6967,444,-5904,1648,-419,-996
1324,-549,-6409,803,884,1388,-1496
1325,6118,5222,4119,-1846,-1829,760
1326,-219,3071,6317,-1156,490,-1182
1327,-5789,-2281,-3221,1803,1428,117
1328,-6138,4903,7385,707,1067,-542
1329,1276,-4195,501,-1242,-1441,1836
1330,28,-349,5009,1234,-1278,-871
1331,3755,7490,1152,535,-1138,-1030
1332,460,-1104,-5206,-983,-1642,-1115
1333,7159,6945,3311,1902,-675,127
1334,2528,-7401,2764,-1107,-36,-556
1335,-394,-7157,3389,-1740,-1246,231
1336,-6145,7241,-7633,-1954,-1330,-1487
1337,-7098,-4290,6875,-1399,-749,-230
1338,-7089,-7313,-4055,-354,-408,-1374
1339,4660,5472,1073,88,-856,761
1340,6761,4539,7672,950,-1921,-1328
1341,-3963,-154,1167,1610,-1746,-227
1342,-5583,549,-6750,-1008,369,1446
1343,-74,7149,7369,712,-1605,64
1344,-7771,-5890,4189,-1333,772,189
1345,-2558,5497,-5249,-631,-854,573
1346,-1179,-4031,764,1533,-941,399
1347,2374,82,-1602,1346,-1875,1506
1348,-1958,-453,7381,-1702,918,-1353
1349,-2227,4602,-7816,-936,1004,1391
1350,4089,1128,-1868,812,-1408,1276
1351,2429,-1450,1456,1925,440,-1460
1352,4018,3620,7612,-697,698,-1155
1353,-5695,-4425,4356,-385,-1573,1886
1354,-1878,4440,-4424,-658,1424,-1641
1355,-6830,-249,-6208,1991,148,-420
1356,2692,-2175,-4944,475,-1636,-1868
1357,-5868,4051,-5566,-1911,-327,94
1358,7190,6685,-3149,788,1615,1563
1359,7518,-6557,1260,66,-1610,1512
1360,3658,4248,7664,1866,90,352
1361,6006,-3638,7146,38,1551,1796
1362,-6808,5686,-2590,-884,1148,1471
1363,1668,7794,980,-1642,1825,-169
1364,-6282,7322,-2337,45,-924,-679
1365,-1685,2541,-1323,262,-1788,646
1366,5810,3966,-6163,-20,833,926
1367,-1980,-4179,3954,1011,1918,-1065
1368,-6056,-4034,-3448,-770,-1832,-1561
1369,-4069,6815,1467,-494,-343,-1049
1370,-5480,3907,6102,-1471,1157,-87
1371,-6181,-994,3435,1352,-440,-1437
1372,-6685,806,-1629,443,1679,138
1373,-7505,-5214,-6155,1399,-884,-738
1374,279,-1260,-3838,1733,1738,283
1375,-1836,5813,-4700,-1738,1166,1497
1376,595,5591,-7384,599,1122,1545
1377,2180,4077,-2812,-384,557,-277
1378,576,-329,-1033,-556,-648,-998
1379,-6995,7673,-7418,-61,-1531,-1303
1380,-6663,937,-2106,-1219,1695,1074
1381,5425,-1102,1063,-1745,-186,-603
1382,-4286,-62,-4048,66,-1475,745
1383,1210,-6690,4417,-49,1393,1232
1384,-4386,7278,-150,936,-597,-986
1385,5073,6338,-6572,-381,1570,1517
1386,2107,-7944,5286,-1652,-356,-167
1387,-3339,2778,4052,-679,1620,1620
1388,3578,2726,1826,-1848,57,-811
1389,5775,7320,3132,-1511,848,-1466
1390,-4011,-1159,-3710,829,-1742,-1298
1391,2810,4488,-431,-167,1951,1664
1392,4648,-4358,-4849,-946,-485,689
1393,7501,7709,-3520,874,-630,1413
1394,2235,-7772,1279,-472,-1035,1405
1395,7006,5501,-2486,1475,-496,-95
1396,-3443,-324,1854,-1982,1459,-414
1397,-2936,-4908,-4222,-1371,1574,-475
1398,-5095,-3278,3438,689,-330,1612
1399,6269,7048,-3792,-1379,1208,1060
1400,-534,-4210,-254,-1189,412,1281
1401,-1550,2498,5539,-27,-1508,654
1402,-3210,259,1629,-381,1935,1513
1403,5441,465,4981,641,1847,74
1404,-2875,-6376,4459,-1452,1014,-48
1405,-4744,2311,-6562,998,1897,1090
1406,-3986,5862,-3107,-1224,1227,-90
1407,766,-3616,-4776,-1980,1292,-358
1408,-5019,4852,1086,-147,-1263,-1186
1409,-5991,6497,-2169,1780,-1882,-609
1410,-7537,7049,-5137,1208,-624,-580
1411,-7204,-5114,4084,-1286,781,-992
1412,-4505,5677,1312,-17,-651,-1985
1413,3245,6933,5636,-1500,562,1009
1414,2340,-3920,-6130,1516,-969,647
1415,-6326,-2289,-1641,1021,498,-457
1416,-177,3350,328,635,-1153,1729
1417,-5028,-816,6774,775,-688,1757
1418,6920,4224,1425,168,786,1424
1419,5917,-4510,-6474,1714,-352,-573
1420,6734,-1591,-1514,-1102,83,249
1421,-7042,-1368,4088,-638,1354,-744
1422,-2330,-6128,-1903,1368,1927,-1098
1423,5973,5353,2011,196,462,-1699
1424,1702,-5806,-4294,1830,88,759
1425,-5925,-3652,-3126,-857,1599,1410
1426,-2766,-1502,-147,1143,1890,244
1427,-4875,712,3330,-1222,558,-1645
1428,2296,204,1817,-1353,-1977,463
1429,4604,-5058,-1964,611,-1727,-1814
1430,4030,-3489,-7738,-95,-1272,849
1431,-2941,476,-811,-763,732,-1930
1432,-1396,-1307,-3501,1692,-360,-1637
1433,-564,-2130,-1720,-339,-1400,-567
1434,175,-7920,5403,-360,1940,-1189
1435,-6764,3270,3001,-1721,60,1002
1436,-1370,4895,6473,-1182,-228,-1401
1437,-2755,-3943,-5309,-168,-1451,1726
1438,5702,-7292,-5211,-1336,1713,-385
1439,252,-2296,-3932,-322,327,-518
1440,-266,3964,-929,553,-553,574
1441,-3441,-3204,-2411,1015,177,1923
1442,6377,-1120,-3759,720,-1615,928
1443,-7872,-4651,1296,-1454,896,295
1444,-4105,1138,5769,1781,-1652,-1395
1445,-3882,-7631,3071,-769,-356,-293
1446,6745,-6224,-7388,1351,-162,223
1447,1111,7795,1481,-1126,1198,1062
1448,5553,3241,-3066,-1229,1219,-7
1449,-1060,6992,-4231,812,31,-1550
1450,-4934,1987,-1135,-773,971,1655
1451,-1836,4415,1441,825,-1130,-1614
1452,-831,4298,1765,-1022,1369,318
1453,-1089,2963,5803,733,1985,815
1454,-6776,4982,696,-1242,1375,185
1455,-4373,7745,-2445,880,1097,430
1456,-1242,2109,3473,-1520,-1125,-310
1457,1382,1437,5291,432,73,-257
1458,-496,6983,-7311,-1922,1656,1620
1459,-3396,3150,-6720,-318,1318,-1649
1460,-1222,-5341,415,756,248,684
1461,-2193,-6539,3857,-1801,-813,1032
1462,6184,5058,5179,-843,-1228,-776
1463,-4093,428,-5575,691,667,-337
1464,3332,-6062,5469,-117,1501,69
1465,1468,-1319,6663,-1321,-1560,1040
1466,4971,7687,1892,-1048,-271,1648
1467,-6885,-3728,-483,-208,1956,-682
1468,1255,-7196,-1342,179,308,-180
1469,-3089,-7139,5805,1581,772,1620
1470,3349,320,3487,1823,-745,-1363
1471,-6497,-3013,-5907,-1381,1712,929
1472,6338,-6178,7492,-1026,1145,-824
1473,5156,-900,2843,1706,0,1992
1474,-7349,2934,-1692,431,1536,-1506
1475,7013,-7160,-185,-441,1052,697
1476,4171,5172,-4594,819,-1498,1758
1477,-2438,-6897,-4011,1991,1258,304
1478,-6835,171,5983,1832,704,-1805
1479,-909,-3471,-6954,1071,-842,307
1480,7959,-1492,-7253,188,-151,-341
1481,-6755,-1926,-5986,-1787,-444,1371
1482,4160,2636,-1180,-1944,217,-450
1483,-6174,7126,6592,-1414,1113,-1735
1484,-4514,5813,-2045,-688,-409,615
1485,-6166,-344,2187,1689,1630,1398
1486,-3557,-1620,-3660,-1389,1501,1077
1487,-2810,1704,6843,325,-264,1173
1488,1633,-1006,-1885,-1304,-1543,1121
1489,-59,-4057,1289,-445,-207,1088
1490,-2714,-5335,4276,1390,-1017,-1329
1491,-1962,-3022,6412,152,55,1055
1492,-4952,-3334,4359,1698,951,746
1493,853,-3931,5832,74,1633,-974
1494,3911,2652,7881,-489,697,-823
1495,-6079,2497,-4,163,-608,1289
1496,6011,-6681,-3909,-412,-167,795
1497,1153,1327,2245,1918,-1170,1490
1498,494,1303,7461,1873,-1530,1324
1499,-2602,3099,1240,-164,1454,1916
1500,-4019,6035,-5567,1979,-1184,1680
1501,-7675,5693,4848,-1028,-1251,1880
1502,1025,5950,-4930,1580,-373,51
1503,-337,1325,-2577,-495,1624,-1044
1504,4699,-2965,-3496,414,-1415,-560
1505,-6643,-5424,6653,-1210,-359,1000
1506,-7778,52,-1823,-513,1020,-1583
1507,-7456,1608,6227,699,-1366,-745
1508,3096,-3380,-1209,913,-534,-410
1509,4858,6499,3109,1199,-488,-821
1510,-688,-1256,5318,-1893,1582,-778
1511,2857,-3785,3418,129,-225,1053
1512,-4227,5154,-5560,-501,-592,-1550
1513,2384,-4410,-6687,941,-344,-773
1514,5010,3342,1140,1697,-1232,1243
1515,-3532,7228,-1538,-118,26,870
1516,3987,-5752,6857,112,-470,1502
1517,792,1589,-3507,1204,-442,1238
1518,-354,4479,-3073,-626,-1741,-763
1519,-3497,-4741,1023,-97,1921,1028
1520,6324,-513,-3756,1459,771,198
1521,2923,-4734,7109,-176,195,1717
1522,4751,-1576,7493,-292,-324,1987
1523,7214,-5169,2294,1069,847,-396
1524,5234,494,-5219,-48,-1844,-743
1525,3555,-888,-516,-523,886,-632
1526,6070,-3538,4376,684,-1965,1457
1527,-6128,7066,-1,-249,352,1016
1528,6616,5010,-4855,768,-1345,317
1529,4684,-4298,-2733,-707,285,1536
1530,-6352,5044,5554,1032,-769,-966
1531,-2440,4956,7788,1097,226,-505
1532,410,6463,-2601,1712,1767,497
1533,6618,-6887,5978,938,-286,-1408
1534,-4086,-7062,-454,-321,876,-1375
1535,-2879,1431,-5564,1028,605,-1258
1536,-1857,-7050,-213,1424,-1889,1030
1537,-2803,7557,-6491,-1363,1617,268
1538,-1405,-3523,7972,1823,-1025,1656
1539,-3158,1385,5593,1184,-1826,490
1540,7745,-500,-4717,1614,1951,323
1541,2826,4986,3635,-138,-1674,-1893
1542,-3017,6059,-6717,-873,-1517,209
1543,-5338,-4564,-4192,570,1037,1223
1544,6109,-3370,-1088,-764,-1986,-507
1545,-5348,6457,7881,-364,-1901,-290
1546,7288,455,6578,1189,408,1697
1547,2240,4518,168,924,201,591
1548,-1489,-3950,479,-655,1566,-987
1549,1397,-3084,3045,-366,-778,-1182
1550,731,-5590,-4036,76,-1589,1415
1551,4949,6112,-3660,975,-508,-887
1552,-3620,-469,7858,1088,1086,1464
1553,4002,1487,4555,-440,-1567,-36
1554,-6073,6647,-4316,-1343,663,1797
1555,-4603,5802,4913,1960,583,-1730
1556,7665,6256,-6377,1869,-460,594
1557,-4523,7260,-3404,507,254,-1181
1558,-4440,275,2062,-401,-733,-1988
1559,2210,7970,6799,801,254,836
1560,-1928,-3226,-7821,1319,-677,621
1561,7388,-2318,-1025,-993,300,842
1562,-2227,-3054,6709,1207,1139,-779
1563,-4103,-2392,-103,999,-358,-98
1564,-4750,-2304,2012,477,-56,29
1565,1639,-4729,-4488,626,-1030,1906
1566,7183,7020,-2091,451,1732,-1146
1567,5697,-6853,1465,-1878,-175,-495
1568,-1108,6303,4871,-416,-1567,1220
1569,-6940,2443,-7613,1896,1809,-1676
1570,-5749,-2028,1105,413,1438,905
1571,862,7470,-1987,1003,-1145,-984
1572,1594,4762,4168,1964,839,871
1573,-5658,-5836,-1140,1242,-272,-1794
1574,-5104,-1300,5545,1518,453,470
1575,-6008,-1619,-4325,1464,975,-1836
1576,-345,7713,-7171,162,1493,-268
1577,-5741,6676,3751,142,-1222,1938
1578,-2371,-990,-2243,-1149,501,975
1579,-6320,-172,1599,468,33,1876
1580,-6569,7291,-2787,1151,-343,1438
1581,-4184,-2168,-3584,9,-1871,1130
1582,1136,7128,-7345,-769,-1337,452
1583,4335,-4856,-679,-139,1584,-1783
1584,-4364,408,-4854,-162,-779,-378
1585,-3379,5700,4751,-21,-144,-45
1586,1320,333,-5252,424,1018,-903
1587,7687,1449,6491,748,-377,-816
1588,5548,-2515,4202,-761,1873,872
1589,-2022,2548,7160,-309,-89,235
1590,3199,-5321,2751,1304,1999,645
1591,-4402,235,-2004,-207,791,244
1592,-5257,-6642,-1388,-1879,1846,1196
1593,1370,-7251,-4559,-251,112,1148
1594,-5687,-3760,7665,-231,1149,-440
1595,2468,1231,-2008,618,1670,1117
1596,-430,3203,-2732,-1486,1077,1694
1597,-5753,-3808,132,-1211,-22,-1954
1598,1916,3236,2480,-1886,-431,1298
1599,-5116,-4655,-4188,634,-166,-1432
1600,5644,-4788,-1968,-595,1124,-1698
1601,6779,-7096,-6607,914,889,-1327
1602,-1304,585,1601,-948,-1074,-642
1603,-7844,-1700,-235,-104,-1831,-985
1604,-6979,1612,-7515,568,-1224,-386
1605,-3472,4478,2431,-1624,-1309,-1595
1606,7879,7568,4489,-1143,52,788
1607,6871,-1232,7581,209,-171,-1651
1608,-5111,-4208,6275,-542,-1021,284
1609,-1110,2863,-4755,1731,1609,-592
1610,4170,-678,-1116,848,12,-1408
1611,-3631,-3090,-3686,-835,-1055,-369
1612,1570,7140,3633,-20,-1142,-118
1613,529,3122,-6413,-517,-695,114
1614,4718,4780,140,77,498,1679
1615,652,7016,4902,1423,1736,1318
1616,4202,5852,-7089,-54,-606,348
1617,2767,5317,-6111,1759,-1007,-813
1618,-179,7426,2346,-1613,420,1557
1619,7355,-4762,-2053,-1298,-934,1154
1620,6864,4226,752,374,549,80
1621,-6581,5116,-2345,-1331,1247,-1462
1622,5011,-6247,-7324,435,-540,-877
1623,3370,-6661,-5945,-949,488,76
1624,-52,4946,6118,424,-495,-98
1625,3219,7989,-4215,423,-119,1100
1626,1842,-5297,1735,1466,1655,-1059
1627,-2435,-619,-7905,-160,1696,-1346
1628,-6572,-2066,-2116,-1101,170,1554
1629,2168,7711,7509,168,429,1383
1630,-2004,4717,2806,-72,-839,-1031
1631,-5359,5857,-6333,1222,-221,742
1632,7392,7305,3329,1675,-1071,-1380
1633,3064,-477,-6211,-858,-1578,-469
1634,-6314,-5593,7866,-696,-1287,912
1635,-1174,-282,-2627,-1706,-1781,-929
1636,6155,6037,-7357,1198,-1331,-813
1637,5785,7646,-7218,-1444,-1060,-604
1638,1777,-854,-3851,1386,-1272,-1106
1639,139,-4988,-7923,-212,-995,-1645
1640,-6748,7876,2216,-1509,-1100,636
1641,-1575,-1263,-3072,310,1351,-542
1642,6524,486,-470,264,-929,-1676
1643,2375,794,5230,1278,-30,107
1644,3661,6929,-7228,-760,-1072,-1486
1645,-982,7243,-4116,-1967,-1917,1718
1646,7098,6004,-2272,-520,1315,-660
1647,-7016,7916,-3380,1728,-1638,962
1648,932,925,839,-1344,266,-871
1649,2736,-1272,-4769,-1845,-42,1149
1650,-3901,7122,2585,-694,-1152,-177
1651,1995,-1106,918,-532,-800,1952
1652,-2017,7271,2792,1624,1294,1715
1653,-1396,4744,59,522,-105,-923
1654,4049,5209,-4008,1156,-903,-479
1655,-6955,-7623,2694,-1006,1104,1679
1656,5304,-5657,4450,71,-88,1457
1657,3595,-3912,-2057,1561,1403,-1816
1658,817,6537,6355,2,1459,505
1659,2190,-1476,-3739,-1521,-1875,-607
1660,2729,3343,1304,-158,128,1900
1661,-5344,-2812,863,-707,796,-959
1662,1133,116,4342,-19,-53,99
1663,-270,-7052,-7051,-350,-667,474
1664,-2639,-1215,-2061,-208,100,1520
1665,-7382,5000,-7752,1467,1511,-1954
1666,-7780,-1790,1260,-1213,495,-729
1667,-5052,-5160,-4727,-854,-835,-1655
1668,3500,2729,-6606,-111,1254,-1096
1669,-72,5554,-3595,-1872,-597,1371
1670,7726,-7353,-3021,66,-1342,-704
1671,4150,-7588,29,1469,810,-953
1672,-3749,5932,-4811,628,-558,-117
1673,3771,-6033,1482,277,361,1611
1674,5943,6205,-3556,908,-448,474
1675,1524,3332,7752,935,170,1380
1676,-4072,-933,-6672,-1389,1076,476
1677,-6166,-5442,-5441,-548,-1352,565
1678,5558,-5029,3908,-1652,1975,-218
1679,-6713,-3691,-2306,668,-1027,250
1680,3902,-3487,-3603,-1745,972,-983
1681,-3030,-6697,-3553,-1821,-575,-637
1682,2414,2689,6012,182,974,1621
1683,7590,-2544,7719,-944,-980,-475
1684,-3046,-2859,-7935,-1316,-380,1075
1685,-5214,7904,2657,-1004,92,1091
1686,-1959,-5250,7686,-11,-1853,-1330
1687,2863,-3036,6956,-666,1178,-230
1688,6233,6743,6010,503,1359,764
1689,-5352,3648,-805,-501,657,-1951
1690,5650,-6336,-1142,-849,-936,-1462
1691,4470,-6902,-2047,703,-1116,1530
1692,-3453,195,3652,-1557,-1801,1244
1693,-7934,-5504,5403,-679,1824,-1386
1694,3472,-6390,3012,-1709,-338,-1504
1695,5532,4187,-3775,1740,-1717,1777
1696,-991,2688,1920,100,854,476
1697,-7289,1026,5644,-1724,380,-1072
1698,1240,2901,-7755,462,127,-950
1699,-4944,-5093,-4056,-1259,829,1425
1700,-6456,-1498,-1872,-36,1841,-38
1701,4737,2502,-4843,16,-1672,1075
1702,-6592,-3684,4471,-1362,1257,1489
1703,-3793,-938,-1981,1307,-885,1636
1704,-6451,7077,6947,-1407,1479,-1600
1705,758,-5259,3930,-201,922,1496
1706,-1517,-4916,-7285,-763,-985,1943
1707,-4021,4145,1740,-78,1892,-1094
1708,-7138,1588,6134,1401,1889,-990
1709,-7291,7927,-7904,1831,-1979,275
1710,1572,7376,5332,39,80,-355
1711,-413,-5482,1020,231,80,-310
1712,-5134,2839,2752,1367,-853,-1287
1713,-3640,4966,4765,367,-862,432
1714,-1731,6750,7606,975,-538,834
1715,3059,-1428,7187,-1601,-317,343
1716,6058,3886,-5099,-338,1474,1186
1717,6297,4217,5935,-1712,-1480,581
1718,2477,-7427,-2873,636,293,480
1719,1685,-7730,1983,588,-1385,-50
1720,-1190,7350,831,235,609,-659
1721,7510,2973,-551,1597,-168,-949
1722,5589,-2680,3526,34,1065,392
1723,-5355,4126,-939,-1962,-1209,-1547
1724,2076,-7083,-1362,-1207,-375,1002
1725,-4086,901,-5317,-1248,-106,1134
1726,4010,3902,5768,738,488,-1764
1727,-5709,-536,5787,-1164,765,-118
1728,777,-7452,6262,-282,-599,422
1729,-681,3800,4765,-1335,-1054,1726
1730,-3185,-1588,-310,-1720,1563,-1769
1731,-3978,-3935,-4695,-725,1692,1355
1732,1987,3651,-4653,622,-302,1343
1733,1469,-2922,-5285,1688,1306,-1806
1734,7191,2991,2716,-827,-1795,-258
1735,-182,-4876,-6188,464,-1135,-1453
1736,4033,-7658,-3434,-1243,1633,-974
1737,5961,810,6019,-1291,1215,1142
1738,3279,-1288,825,-817,715,-1037
1739,-6356,5840,-6038,852,-901,-1868
1740,352,-2116,-6028,-731,-784,-284
1741,-4313,-7031,6068,-1205,-1039,1009
1742,-7107,-868,-673,1826,569,923
1743,4453,1239,-1032,-1307,-1257,1053
1744,-7498,7354,4460,277,1130,813
1745,1217,-1883,-7667,-1243,-830,604
1746,-6067,7365,-2885,1582,511,-803
1747,-7220,7739,5622,-373,-950,1661
1748,-7502,-6566,2669,484,-1800,-71
1749,-2979,-3138,423,-1171,1998,-1556
1750,-2238,-3566,-1723,556,-1299,139
1751,6116,-5040,7678,1357,-1393,-1372
1752,3434,6534,-7755,734,-751,-630
1753,3039,2075,5727,556,461,-1268
1754,-2674,-6355,-440,1449,-1085,-3
1755,2365,2179,-2134,1728,-311,-603
1756,5838,-7518,6371,1462,-435,875
1757,700,-1016,-5040,-1474,-1370,-1496
1758,4899,-2181,-1516,1460,1726,770
1759,-4035,-541,1101,-553,545,-1573
1760,4126,1263,5838,-1264,-1603,1958
1761,2318,357,6484,-988,485,-1824
1762,894,-7780,-5687,-632,1743,76
1763,7931,1407,-5340,1919,503,1213
1764,6656,-7015,-4651,1097,1854,-991
1765,146,1928,1562,14,481,-1408
1766,6685,7252,-2736,-1474,-615,-836
1767,-2950,4430,5225,1121,-1188,1081
1768,-6024,-1543,-5257,-1204,882,1361
1769,-7095,-1228,3840,1653,1607,-187
1770,1404,-4442,5950,-432,40,-164
1771,-3346,6417,7373,1166,1707,-1206
1772,-926,-3486,-4002,-656,-867,-1622
1773,-100,6045,-1724,313,233,1972
1774,-3387,6713,1894,-56,135,808
1775,-3152,-6091,3130,1897,307,-1179
1776,744,-5904,6079,1645,-1617,-826
1777,-3949,-1925,-6258,1627,797,-1652
1778,3578,1682,-4690,-1013,1374,-726
1779,4093,-2267,-1026,1288,1589,467
1780,7866,3053,-6724,-1659,-371,-809
1781,4245,172,5201,1094,-883,1739
1782,-5510,-1276,-6340,-1800,828,599
1783,3797,-6521,-2685,1144,-998,1385
1784,-4192,5001,-6319,-1747,1062,349
1785,409,-2568,5737,-1498,1853,195
1786,-7983,-6182,519,-624,696,-1718
1787,6655,-1341,4425,316,-228,940
1788,-672,-501,6076,-1817,-697,-818
1789,-3948,3743,-7095,533,-428,858
1790,-2081,-1010,-1647,1127,840,-735
1791,2167,-1380,-3201,-194,-1711,1958
1792,1120,4086,-6885,119,-701,401
1793,-2531,6674,-5578,-1399,-721,-866
1794,-1023,-2962,840,1687,-1252,-195
1795,-5228,-7558,-4970,439,1953,-1871
1796,3291,-7384,1906,-1808,1509,433
1797,7806,310,3008,-1658,908,1840
1798,-4593,998,1201,658,-1704,216
1799,6923,5592,-6989,-673,879,-517
1800,-1337,2246,4615,-1399,-1280,-884
1801,-4780,563,-1767,-1910,-531,540
1802,7015,-5331,-99,833,-1903,1565
1803,406,-4976,-1642,1396,200,-1180
1804,-1546,4654,7892,939,-823,1688
1805,-1220,-3139,-4470,-1205,-1834,1138
1806,-4094,2467,-2940,-1130,672,1947
1807,6357,106,-1912,773,744,1668
1808,-6817,5335,3888,-1886,-1205,345
1809,-2781,-2600,3084,-149,1523,1637
1810,-7584,-5792,-7929,883,-1244,1668
1811,7052,7669,1140,-147,-559,971
1812,-7692,-5416,2334,256,-611,1342
1813,119,382,7184,1906,652,-1636
1814,-6058,4969,6559,-949,120,1106
1815,-1126,2424,1093,1345,1936,-1842
1816,-5798,-1551,7615,-442,-850,-1932
1817,-4230,3057,4861,207,-1237,-1454
1818,-7485,-2918,6262,-1767,1729,1374
1819,6852,4092,5402,-590,-756,1983
1820,5375,7184,-7777,371,-1947,-1958
1821,-3996,-5478,1991,882,-1164,-1443
1822,-1473,4575,-3746,-200,814,169
1823,-1794,-2533,5501,260,1357,238
1824,1782,-6406,-7565,845,56,1043
1825,-5293,-6848,1310,-1581,1092,-118
1826,5579,7982,2831,-978,449,-1124
1827,-2697,-2162,-4546,-1471,-1679,554
1828,-7390,-1484,2601,844,-145,-684
1829,2053,251,5176,150,1146,1610
1830,-167,-4587,6539,-926,-384,-721
1831,5537,1334,7532,982,-1162,790
1832,6042,-7361,-1936,-941,1102,-933
1833,3204,-510,-3834,1965,-514,-1867
1834,64,5741,4116,-1029,1879,-576
1835,115,-3546,2836,-1637,1892,23
1836,-7284,3039,-6220,702,1623,-1794
1837,-6668,3054,-337,1571,-1047,1145
1838,-3198,-2082,6645,822,26,1709
1839,-4078,-7485,4644,-620,1691,-199
1840,1719,-6085,-4593,-1619,-728,-1520
1841,3055,-3894,-3436,833,-1860,-1902
1842,3626,-1683,4493,1137,-75,-553
1843,-5906,-7114,-7295,-590,-1407,739
1844,-7164,3071,-7431,236,699,100
1845,3036,-2831,4541,539,1936,113
1846,-3752,7355,5178,28,-908,-252
1847,-6796,-7656,1094,141,-675,1262
1848,2953,135,-2628,1000,269,1665
1849,3900,828,6157,-1375,-866,-13
1850,-1920,-5847,-4572,1904,1057,1263
1851,917,-540,617,1167,2,808
1852,6616,2210,6437,-418,1387,-1632
1853,-4405,-801,6081,-862,-1883,747
1854,2623,3638,7528,-1325,1444,1796
1855,454,5363,4293,-615,320,-244
1856,-6962,-3662,7352,1301,1649,1451
1857,1779,5789,884,1639,249,251
1858,-3173,-7032,198,1908,-1954,573
1859,3911,-1871,3491,1595,1484,229
1860,-3625,6812,-2316,-1683,-1485,-1579
1861,-896,4225,345,447,1772,153
1862,-997,-6688,6690,-545,-916,187
1863,-3626,-6378,-4662,453,-1348,-424
1864,2013,-5586,-3412,-1120,-1471,-1494
1865,-1688,5056,-6950,-1393,-1843,1401
1866,-4861,5954,2916,-200,1920,1767
1867,5533,-552,-320,1966,1993,801
1868,7068,-7474,1333,189,357,-627
1869,-4950,-4631,6154,-1489,-152,435
1870,232,3941,-540,1488,-1440,189
1871,2482,-782,-6317,1342,-1189,1774
1872,-2794,-3503,-3818,213,-792,710
1873,-4873,7316,40,797,-902,1951
1874,-5351,143,71,1750,715,-1193
1875,-7688,-5664,-7399,813,-1157,-80
1876,867,1918,-724,1565,1970,-1146
1877,1536,2941,7753,1222,580,930
1878,-7740,5545,4381,-1845,-1764,-258
1879,-1448,744,-2182,-236,685,-1351
1880,7044,-4288,-731,-1635,-1340,-1985
1881,4466,6063,-2981,1263,-1896,-1973
1882,-6544,4848,-7357,-1862,1106,1240
1883,5128,4541,-909,-1243,927,1010
1884,697,-5585,5663,-765,797,143
1885,5796,3546,-2878,469,-291,1071
1886,-4783,-5292,-2968,-1043,630,1002
1887,221,6496,-2644,521,356,1458
1888,1813,2084,4322,924,1947,1454
1889,-7648,-4957,-5745,-1928,-13,-592
1890,-4831,4432,-2115,1815,-1692,-523
1891,4720,-6413,-5159,-271,1493,-1318
1892,-1707,-2529,6760,-1043,-366,-1
1893,-3110,2722,4722,531,-898,-390
1894,966,-1940,963,352,1807,-1655
1895,-5984,2256,1656,1347,1424,101
1896,2974,5033,1957,-1520,186,1993
1897,-3191,-2076,7026,-643,-338,-1822
1898,7533,-2734,-1336,1764,225,941
1899,5385,6379,-2925,-597,1741,1753
1900,-1390,5279,-191,-153,-1763,-1184
1901,-2678,6156,-1948,302,-267,-1289
1902,2304,-580,4130,1294,-299,379
1903,-645,-6222,671,-183,1339,-1897
1904,-4626,-3574,-5420,-513,-146,-1534
1905,4849,3279,508,1024,-1272,1952
1906,-4300,223,3107,-1867,-1459,1672
1907,7475,-6435,-2656,-1911,1733,1696
1908,-7021,-4657,-5319,-116,1749,1955
1909,-625,-6613,-6017,-1386,1513,-1801
1910,3207,-6746,1333,923,17,-1452
1911,-1260,-3757,-3415,-1051,-153,-288
1912,6354,-4405,3196,1405,359,1294
1913,4499,-32,52,978,-234,1050
1914,-3612,4214,-2770,-1519,-1229,400
1915,4284,6088,5905,1706,1424,35
1916,5579,-5404,-7779,1098,51,-1451
1917,4571,5342,483,351,1339,390
1918,4161,4087,-7393,-1947,-523,-628
1919,4652,6782,2182,1127,-1514,119
1920,34,-5619,7893,1113,1950,-1364
1921,-1270,561,-4697,353,-1886,1529
1922,2607,-2898,7494,1112,-156,-1539
1923,7982,6885,-5355,-1496,653,-1663
1924,-5022,-4181,6001,1022,1883,-1271
1925,-5710,906,-7332,-963,-304,-1906
1926,6322,-6361,-7665,1437,-1893,-1760
1927,-7116,-2911,6025,-1359,-808,1823
1928,-6595,-601,-1361,-1131,-467,783
1929,3622,6803,5987,-50,1107,980
1930,-2426,1699,-7211,1889,-717,1805
1931,6853,-687,-2879,1180,-1854,-1579
1932,7382,7828,-4523,-1319,1785,-667
1933,-343,2814,4677,1145,-667,-1700
1934,-3549,5482,-1896,-1336,-1369,1624
1935,-1455,2060,4013,1840,-512,-1864
1936,4254,3559,7603,-517,-1173,1242
1937,2351,6067,3326,1879,-636,-1269
1938,-5788,961,2463,113,-1478,1854
1939,3394,-7023,6231,-789,-57,443
1940,94,-6396,-7977,725,-1436,567
1941,-356,4540,-3828,1954,1736,1593
1942,-1232,2710,375,-705,866,1747
1943,4988,-4757,-7025,-1231,737,-801
1944,694,-4736,-517,1452,208,-1769
1945,-7186,4793,-7532,1411,687,-1158
1946,-4175,5502,7923,-1344,318,911
1947,-3559,-3820,7169,-1881,1673,-984
1948,-7327,7253,5269,334,1539,848
1949,780,7298,-7199,1178,658,1464
1950,7750,3428,-7126,764,-1588,-150
1951,-1223,-6333,-6273,-1994,519,363
1952,-929,728,-6562,-917,485,-1780
1953,-1344,6378,6950,1744,1308,1839
1954,2149,-5636,1983,-1888,-1253,-399
1955,4247,-7856,1581,-90,1552,282
1956,6251,-6279,565,1417,-767,-1354
1957,-3716,-6386,3146,-1295,349,1160
1958,3185,7804,-4816,1399,1711,-480
1959,-7878,3036,-361,1231,-1905,-1481
1960,-2168,7315,1528,-650,210,-1184
1961,-955,2930,2025,529,1528,-1913
1962,7553,-6025,4343,-1817,1448,-358
1963,6327,4283,-5224,-88,216,-1484
1964,-6218,817,-6536,1897,-101,-467
1965,18,4907,-4641,1436,1189,-1672
1966,6738,-4753,-7240,1361,628,496
1967,7670,5257,-3676,-182,-1330,-1424
1968,-1033,-2027,-1798,1081,-898,-952
1969,4140,4459,7324,-204,-1093,-1690
1970,7645,-774,-583,-567,-671,-1568
1971,1673,7300,-1644,138,-1753,860
1972,-2595,-5372,-2671,-1959,-620,-658
1973,7188,-3779,-1150,705,401,116
1974,5187,3097,1451,-1125,-198,761
1975,1150,2280,-5344,-565,-1688,1945
1976,4759,4192,-1511,575,632,1171
1977,-1458,3984,6919,313,123,-1997
1978,-158,4650,-5473,-763,-1306,-1756
1979,-4120,94,1589,1583,942,1646
1980,-4203,1326,3440,-1402,848,1926
1981,-1610,5793,3228,794,341,-137
1982,-601,3068,-3786,-1372,-888,1411
1983,-6083,-5389,-269,598,-328,-62
1984,7280,1101,-5575,1593,-509,-1337
1985,-4107,-5194,-2597,847,-1379,-620
1986,4730,1891,-704,1780,-17,1451
1987,5866,993,3142,-1847,221,766
1988,-7078,6301,-4540,-1911,765,291
1989,3127,2578,-7786,140,1223,-1383
1990,-5450,-1481,-4733,1861,-243,-906
1991,-7346,-4324,2679,652,-1238,-1443
1992,-6783,-6940,-3566,-919,330,157
1993,1465,2233,141,1538,-1023,772
1994,-3179,-120,1194,1170,-1232,736
1995,-5503,-5617,-4817,-534,-1959,-258
1996,2632,7899,-5647,902,-596,1514
1997,-5936,5608,3394,235,-4,-1908
1998,7658,3363,3969,1145,-47,-1337
1999,-3557,-5652,4109,549,1605,1439
2000,2003,-5641,5444,850,-1596,932
2001,-3536,-7358,-466,-656,1376,61
2002,2296,-3327,4226,-705,677,1157
2003,-7504,1707,-4584,583,1690,-18
2004,2947,-6706,5091,-1208,-302,-48
2005,-6647,300,1403,-1910,1897,1722
2006,4778,3484,7195,-493,439,648
2007,7030,1621,-1335,-34,641,319
2008,4300,2349,5797,-889,-564,1152
2009,606,-5900,2375,1177,881,-1858
2010,-4524,6157,-3573,-1479,1096,-1017
2011,5659,2864,1291,121,56,248
2012,-6294,-4409,-6394,843,1475,206
2013,4326,-5337,7469,981,663,-1242
2014,-1300,-3266,-634,365,-1743,-1905
2015,6560,-2291,7503,-685,1012,1132
2016,-7960,-2107,-6554,884,-198,1112
2017,2075,-2705,-5971,1573,797,1480
2018,2828,7793,-7898,59,-1671,-1242
2019,5049,3894,-3777,224,-1935,52
2020,-6736,5792,5693,1954,240,-699
2021,-3667,2056,7365,731,-1506,1990
2022,3069,-3629,-821,-1519,259,-723
2023,7326,-1536,7345,1418,-1383,-1288
2024,-1568,-5298,-5227,-1007,1723,-1399
2025,-4481,523,-5368,-433,696,1923
2026,6565,7560,4398,341,-523,-309
2027,-3854,7313,-800,-343,705,-642
2028,7986,-3359,5070,-797,98,407
2029,-3401,-2531,2597,661,-1307,113
2030,-7118,-2734,-537,-799,-723,-406
2031,454,-7796,1861,1561,1948,1589
2032,7494,7090,1330,617,899,-1984
2033,5413,7604,7508,327,-1269,-215
2034,1991,-7753,190,1797,1964,360
2035,2402,-6395,6936,-1077,1854,-1116
2036,-3534,3792,923,-925,-740,-498
2037,4035,-6793,1533,-1571,-97,-1652
2038,-4798,3544,7028,-130,-1734,505
2039,-126,7613,798,455,1220,-11
2040,2684,2012,-5524,-1313,-234,1770
2041,5188,-6239,3740,-1063,-231,527
2042,-1744,-6312,-3029,1481,1746,-289
2043,7570,-4454,-5423,-946,-95,274
2044,-6217,6025,-3834,937,1712,-410
2045,3549,5318,5634,1005,-1491,-1874
2046,-7771,-1531,6946,-312,-121,1590
2047,-1384,5510,-5468,-1946,-715,1709
2048,-7749,-2787,500,1357,496,-1522
2049,462,-108,586,287,-510,1286
2050,-1233,-2818,-4457,-994,-362,884
2051,5489,3822,-725,413,-1723,249
2052,110,-2530,5066,-22,250,489
2053,87,4825,4483,341,1034,-1015
2054,-6688,5530,-1301,-56,-808,-353
2055,7815,4904,-7923,-884,-845,-1887
2056,7204,4495,1494,-1911,1853,1450
2057,1930,7210,-801,-201,98,347
2058,4412,536,1623,-981,802,41
2059,-2488,-2776,-1384,1170,-1548,633
2060,-6427,5951,2996,-736,-1143,-1534
2061,2253,6410,-2418,-1953,-778,1078
2062,-854,-6450,-562,-709,-548,852
2063,-7408,2636,5993,-666,-274,874
2064,4414,6763,-1257,1102,-1681,-1678
2065,-5594,-2195,278,190,793,-512
2066,4453,7920,-1531,982,-1949,787
2067,-4650,3249,2441,-292,-1849,1574
2068,-4270,-409,-286,-363,1804,747
2069,4471,905,437,-1176,36,803
2070,-4697,-3512,5154,-1915,-1120,-367
2071,-332,-1219,7113,-1716,-8,-1375
2072,4955,-303,-7884,840,-735,169
2073,2999,-4016,-2544,301,-898,342
2074,3870,1807,2171,-1322,-1087,-667
2075,-4364,-924,-6165,-1774,826,1414
2076,879,1080,-3586,1554,541,-926
2077,-3864,-6163,-3863,725,1009,1126
2078,3646,-5708,-1181,1079,-1709,-138
2079,-4042,155,-2443,-605,942,1495
2080,-1549,531,7124,1737,-660,1757
2081,266,-336,-4324,-144,-999,-224
2082,-1095,340,-7790,1557,-1393,-434
2083,-7437,844,1780,-1807,1569,1312
2084,-1913,-2744,-3436,1375,-1174,-702
2085,-5563,7496,-6084,-1815,-1071,-1413
2086,7784,-1052,-6860,86,-471,1322
2087,-5746,-4691,-4009,-1327,274,371
2088,-4371,5416,2673,-1651,440,1999
2089,6024,5386,2486,722,1715,-1876
2090,7099,-2068,-4031,70,222,1266
2091,-7378,-7329,7285,-1894,898,1578
2092,-6407,-3743,-5974,-429,-1225,273
2093,-4075,-3415,-6335,1484,762,1900
2094,-6029,1924,-2953,-1624,1675,-1578
2095,-2847,3825,-3953,-342,-1322,798
2096,939,5036,42,273,581,-404
2097,4714,2745,-6724,1960,-290,1732
2098,-166,-489,-5894,40,-68,522
2099,3948,6702,7762,515,1234,374
2100,1917,-1869,-2725,359,-1659,-733
2101,1263,7903,-3084,-883,1111,-103
2102,5182,-615,3881,-1414,1032,1804
2103,-7296,5481,-6486,-1909,1809,-1457
2104,1829,-5874,-3034,-803,-1081,-413
2105,5114,6925,-2222,339,-993,-289
2106,-4138,-7198,-1718,260,325,949
2107,-4680,5437,-1899,608,-880,-862
2108,7606,3007,4056,-1667,864,-421
2109,7653,746,2938,622,471,-318
2110,-4992,1695,7029,-576,750,112
2111,5142,469,-5514,944,-148,-662
2112,-4388,4930,-1358,1228,36,827
2113,-17,5305,4464,720,-228,-760
2114,-3332,-7038,3846,1163,-1926,1511
2115,-5730,-3588,-4652,-1233,307,-316
2116,-2174,-1182,372,-1785,-1594,1282
2117,3753,5141,-6298,-465,1030,-561
2118,923,185,-2987,999,-1358,-1701
2119,2510,2920,1089,852,1126,-472
2120,2845,-6447,5631,-1413,1251,1374
2121,7027,5649,-3755,490,409,-905
2122,-5942,2487,4756,1871,1461,-134
2123,-1643,-7515,-7917,-654,-1275,-1610
2124,1713,-5850,183,-583,-1413,-945
2125,-5267,-1105,-2992,-1344,185,590
2126,-1385,-6017,3477,-1571,1260,-1537
2127,-5020,4914,3421,694,836,911
2128,4051,7213,2137,1801,-738,-1221
2129,-5681,-5236,-2158,996,1945,67
2130,7634,-1903,-2797,-1744,1813,1662
2131,-1076,-3447,-4574,-818,-1046,-656
2132,7721,-1657,-7514,819,-444,1509
2133,1861,-3637,-5100,1880,-1141,1395
2134,3817,4901,623,-1285,-1855,-517
2135,5767,1503,4914,1452,-943,1835
2136,129,-6402,3594,460,881,763
2137,383,-6486,3221,-445,192,123
2138,5547,3179,-5011,1955,-1964,888
2139,-6720,-5730,4270,1511,-444,-803
2140,-2563,5094,6233,-721,1958,-804
2141,3932,2567,5293,-1070,430,765
2142,592,252,-5434,1548,-971,514
2143,1039,-3731,3520,902,-1903,-786
2144,-143,4305,-6360,-1860,-1145,-1520
2145,-7869,1767,2476,450,1915,404
2146,5320,-5174,-1177,-1208,-193,-926
2147,-639,5574,3228,56,-994,1563
2148,-1032,-6959,3483,-1967,-1509,-343
2149,-3320,-1631,3604,691,1790,-1125
2150,-5885,1043,-5069,1817,94,-141
2151,7420,533,3254,280,1977,-1847
2152,6587,4297,-1085,-1140,1956,1136
2153,4373,44,-5511,-304,876,1465
2154,-5604,-6860,-1958,504,206,508
2155,5625,5076,7652,-1420,-579,-689
2156,1684,-7986,-6361,755,-1494,-1772
2157,670,-619,-3449,1095,1171,1442
2158,3483,1153,5833,-1679,-785,-1500
2159,-4739,-37,-7138,-719,1113,-235
2160,7341,-4016,1453,-4,1783,-207
2161,2967,3787,6083,288,-1524,-117
2162,7614,1386,3707,-538,1647,551
2163,3418,2942,-1353,282,-1286,1431
2164,6139,-5440,6148,500,-1598,-1702
2165,-4706,999,-2470,-134,664,-373
2166,-3219,6602,-6239,1699,1055,968
2167,-570,-1842,-3959,172,1398,1357
2168,-6307,-1355,-490,1256,657,-634
2169,6173,7186,-7474,1418,332,-139
2170,-4869,1193,7588,919,756,-1842
2171,-3653,-1830,-905,-643,123,1525
2172,-5053,-4833,737,-439,1205,320
2173,-3100,2055,570,-770,-67,520
2174,3043,299,2676,-808,-912,1825
2175,-447,2235,-1500,1174,32,674
2176,2592,-3738,6281,1575,314,-1594
2177,7891,3458,3306,-173,-550,1142
2178,-2784,2991,-7297,-294,1346,-311
2179,658,7061,-6179,-1539,-678,1189
2180,-1946,-87,-2884,-1683,-929,-1029
2181,-5206,7319,-4787,563,-1364,-972
2182,2585,-5359,-4921,-810,-793,-1712
2183,4291,6557,-3369,1007,531,-1839
2184,5616,-1846,-4234,757,1471,-250
2185,-6615,3294,-5807,-1857,-570,21
2186,6947,-2233,7315,-182,-603,1982
2187,5346,7445,5297,963,819,513
2188,-2950,-1648,-4908,1062,1534,489
2189,-222,-7827,-461,-489,-1243,328
2190,-798,5928,6197,-583,1310,26
2191,7616,6316,-2604,-1187,-572,1748
2192,4793,3998,-5147,-1118,-839,681
2193,2691,-4427,3435,-845,1674,508
2194,5526,4690,4415,-1607,641,-1494
2195,2107,-2543,-349,1415,-884,113
2196,-6536,6920,2667,312,-930,-1578
2197,7231,-3396,-5335,358,-385,-1895
2198,-3809,-1749,7216,1880,-658,-1973
2199,-455,3488,-4275,728,-1689,1151
2200,-2530,6310,6703,218,-1207,-1365
2201,844,144,-3644,-1128,1664,1822
2202,-7183,-1401,7718,-1168,-1195,-352
2203,-479,-4010,1578,-450,-820,1715
2204,-4427,-3015,465,1924,-1297,1629
2205,-3326,7728,7160,-1659,-1628,-1248
2206,6596,6222,-6027,-1875,1825,187
2207,7821,-6623,7242,-1493,8,-1850
2208,-2526,-7797,-6968,1639,-648,-346
2209,-397,-698,5445,-1980,1460,-343
2210,-6205,7473,1119,-1558,-176,420
2211,7746,-6160,5633,-908,-1662,1655
2212,5395,3477,-1281,-1508,22,1789
2213,-5661,5690,6273,1876,385,-1694
2214,-5023,3712,-1819,1811,-154,-743
2215,7481,3869,-7727,208,-595,-1741
2216,529,7698,-6095,1080,1377,1359
2217,4294,5747,4085,37,-1039,52
2218,1995,-5290,925,-14,1386,686
2219,7843,-4628,-2276,-1783,1519,-277
2220,1515,-3779,5652,1924,1186,-486
2221,246,-5866,-2028,1930,-643,861
2222,-5428,7555,-3810,-983,-1418,1702
2223,-3643,5720,-1493,1742,-448,469
2224,3483,-5498,5417,-1071,1321,-1156
2225,-3868,-2232,-6836,1220,160,825
2226,5371,-2918,-1678,969,149,-1557
2227,7172,3920,2391,345,-930,-827
2228,458,-2855,-7241,682,-1902,1690
2229,3276,-7632,-4545,1619,-458,-915
2230,5739,-6154,-1884,-1261,1044,568
2231,7373,1797,4680,1532,-1970,-1277
2232,-7287,1700,-6963,-1062,-1724,571
2233,-5267,-3146,-7391,291,1381,1238
2234,1262,3348,-209,1261,-1862,-741
2235,4338,-7608,4939,1674,-1874,13
2236,-1054,2811,1647,-1151,1868,112
2237,-5884,-4344,388,-1211,-1004,-1312
2238,-4660,-2632,-4575,1640,1482,-1968
2239,-7382,-4368,4912,-1770,-296,1038
2240,6573,-5256,3303,-341,-1404,-1000
2241,5001,-3070,581,1873,548,-1435
2242,-6024,3407,-813,-1926,1939,1470
2243,5738,6170,5020,-1942,1223,-1616
2244,6965,2954,-5597,295,1105,-163
2245,-7298,-5042,7316,-1169,-744,429
2246,-844,-5024,-508,1621,1140,-464
2247,-2836,-5690,-7294,1686,-1448,-242
2248,-2522,-2636,-4266,716,1595,-11
2249,-7401,-4191,5,614,-1674,-167
2250,2094,-950,-4637,167,1413,1949
2251,5355,-594,-2522,-1671,-1989,-1496
2252,-1303,6387,-3844,1255,-439,-1130
2253,-4426,-5555,-1261,-844,367,485
2254,5834,-6546,185,-1278,988,1465
2255,-3976,-5691,7502,1794,1906,-1825
2256,6495,-2273,-108,-787,185,1210
2257,-4726,7097,-4328,-939,-1031,1042
2258,-2322,2656,2740,1047,1551,-1508
2259,-5006,3879,4833,-1096,-630,1814
2260,404,-698,2570,424,3,-1838
2261,3313,-4138,-1241,-1730,699,551
2262,-2854,7626,4740,-380,1112,-489
2263,-2431,7828,-4215,-1582,1321,-1237
2264,7237,6686,7757,-505,-1628,-597
2265,6785,4748,-6384,1232,1894,-1437
2266,-560,-2668,1535,788,668,423
2267,-6849,688,-6248,775,1468,518
2268,1405,-851,-7384,1641,65,1234
2269,5005,6231,-5363,-1553,341,-362
2270,4865,507,-3445,682,37,-897
2271,1274,5336,4769,155,215,-583
2272,-3648,3907,-6519,-1751,-182,-1147
2273,-651,-3446,1194,-1383,-1092,-1352
2274,-2217,4596,-5519,1417,120,1681
2275,-947,-4952,5858,183,-764,746
2276,-6905,-3319,6390,850,-1803,-131
2277,6455,6374,6942,1079,-930,43
2278,-3172,3489,-2644,-1844,-1588,172
2279,-6401,-3044,5692,1117,790,1841
2280,4346,4587,4580,1480,1854,380
2281,1374,1840,-5296,-1115,184,1639
2282,5729,4080,-2206,-1226,-660,-1692
2283,-1535,-1328,-7375,-1531,-511,-960
2284,-5885,7637,-3994,1353,60,541
2285,1842,315,6692,691,903,646
2286,-7659,7769,4941,-1111,270,1225
2287,6392,-755,-5965,-1092,-1047,-937
2288,-742,-7336,-6082,1928,-260,1906
2289,-2985,-6394,-7915,-1131,653,-1182
2290,-1400,-848,2890,-1010,-1854,264
2291,2383,-421,5233,1451,1046,-950
2292,4581,-5877,7966,390,-616,-1242
2293,-4987,2773,-928,-1844,-1673,-1785
2294,-5501,5972,-5288,-1252,1274,-424
2295,-4069,-221,4784,-201,401,1293
2296,4268,-6337,2023,-1860,1689,-1174
2297,2974,-4630,7519,-97,945,-2
2298,-946,197,3166,-1966,381,522
2299,-2170,7253,-7894,105,-352,-983
2300,-5228,1280,5570,883,1805,-614
2301,-6792,4228,-6295,-668,722,871
2302,-1021,4126,7425,-488,-1164,877
2303,-970,-5282,462,1647,-1923,1180
2304,4313,-3235,-1654,-566,-1809,-944
2305,-6693,-3042,-7989,-578,-194,-798
2306,-2848,-4019,-3731,-213,598,-1672
2307,-2607,-3620,658,1042,-489,1081
2308,7300,-6962,7826,1987,574,-1687
2309,5517,4768,6949,1489,1742,-74
2310,-2085,-5324,-2402,531,1074,-1147
2311,-2803,5559,-4352,1484,1536,799
2312,-1552,5998,3274,55,-860,-1184
2313,-3143,2698,3907,-915,-763,-984
2314,3022,-2672,2349,1513,-1146,135
2315,-1818,-6218,-2801,-1143,-406,-271
2316,6385,634,-1613,-659,475,1923
2317,5044,-5084,7501,-1952,-1597,-789
2318,2824,-42,568,1928,-1939,1640
2319,-4119,3621,-7722,-1412,-649,1000
2320,-2756,-4619,5404,457,1900,780
2321,-1455,1024,-6621,99,1154,-513
2322,6958,1353,-7991,1709,648,-235
2323,7310,6819,101,-1488,-134,-618
2324,4560,-2020,1646,-1956,-722,1831
2325,-1396,-2553,-4863,-1352,1225,-112
2326,2511,-3109,35,893,639,-696
2327,-2451,3198,1252,-923,-1113,1115
2328,5824,4037,-1150,800,-508,-1455
2329,-2851,-5415,-6130,1005,932,1832
2330,-1917,-1421,-5518,271,-461,591
2331,3531,355,2123,347,-1547,-634
2332,-2005,7839,-4708,1347,-181,-553
2333,2500,-7228,-7636,1529,710,557
2334,-2926,-986,3868,270,-1750,579
2335,-1409,502,7735,-1610,1378,-130
2336,2939,-1445,7260,-1086,-1849,-880
2337,7988,-4369,-5953,1101,-1248,-1478
2338,5004,-4404,-3531,1296,1111,964
2339,-4833,-5510,7383,-342,-344,-1457
2340,-2484,6370,-5011,1805,1801,-910
2341,-1438,-2773,7838,-1508,-348,661
2342,207,2478,4960,-1639,574,-1168
2343,6368,7029,-7286,-752,1588,-1144
2344,7165,-5129,7159,-532,-754,-1137
2345,2075,-4188,-235,-661,178,238
2346,-5360,6918,-6476,-1499,1929,1692
2347,1664,-4494,2829,-1399,1147,-1807
2348,-4151,-3581,-7237,1055,-1263,702
2349,4687,5256,7332,1986,1989,-1858
2350,1283,-2738,3112,1226,235,1236
2351,4886,-1223,-3710,-1966,-1223,-1393
2352,1569,1761,5021,-1382,904,-521
2353,-1286,-129,4480,-1993,-157,-428
2354,-1217,-6073,1148,53,1083,-1788
2355,4677,3383,-5682,-758,-1931,-1601
2356,-1942,-6047,1448,1917,-39,1855
2357,3165,-788,-20,-110,-780,1262
2358,6005,5454,4625,-312,-866,585
2359,-1474,6554,635,667,1020,-1391
2360,-7571,1089,2990,557,520,-1880
2361,-2355,5662,6174,1645,-477,1461
2362,-3184,-5070,3633,273,1278,-1936
2363,-5282,6772,4769,-1796,-1903,1251
2364,-4626,-632,-1661,-613,502,744
2365,4366,-5957,1822,147,-832,1899
2366,-3634,-4329,6658,1337,-1126,1352
2367,7521,-3221,-1057,-1062,-758,-507
2368,-7054,6860,-437,-99,838,138
2369,513,-7323,-1957,-435,-733,-1772
2370,-3525,-3422,-5443,1765,-358,1858
2371,1137,2048,7536,329,-1531,-1160
2372,4299,1272,884,-1971,-1676,-751
2373,6663,4735,7078,-1807,-149,-1821
2374,2444,76,-897,941,-1142,1263
2375,-6777,3014,-4854,-71,78,1976
2376,-4165,-4976,7373,547,15,-515
2377,6046,6558,-7033,1670,1207,1414
2378,3558,-7184,7814,-1285,-1868,-813
2379,-3642,-6871,718,660,-318,1764
2380,-6414,47,-1044,1601,-1746,1989
2381,6688,-6781,-5701,1436,-768,-998
2382,2589,-5522,-2703,-230,-1014,-1712
2383,6177,-4447,2841,-1962,-516,1091
2384,-2883,-2427,-264,1921,-1856,-737
2385,1923,356,1373,166,653,1032
2386,-1371,-2182,-5618,1969,58,1552
2387,-2962,1981,2391,-320,1316,-230
2388,5680,-5197,1640,-37,-914,-1095
2389,5012,4796,-6475,-1607,1318,-239
2390,-7233,6197,-864,241,522,-1958
2391,-4092,7052,-6774,-1171,-1399,-1367
2392,692,-2448,304,-583,-134,1538
2393,1537,7382,3245,-1301,1190,-1367
2394,5829,-7669,-3606,-1634,-405,-235
2395,6403,2411,2650,-1769,423,-1178
2396,-7730,-6673,7919,-1865,575,1555
2397,809,3387,-1036,-118,-1796,937
2398,-284,1490,-2720,1297,-599,-1332
2399,-7809,7369,-1067,-1596,93,-1453
2400,-2408,-1509,-1822,-1236,-1096,1616
2401,-2858,5813,42,1315,-955,1433
2402,87,7817,-2469,486,1928,1616
2403,-4287,-7381,6986,1598,1042,1958
2404,-6850,-3551,-1549,1305,1203,1244
2405,-6887,-438,-83,1850,-1225,-264
2406,-1404,5512,-2838,-1917,1945,905
2407,3578,-6431,-5897,-348,-1007,-1419
2408,3976,5605,-7371,-1967,1411,552
2409,-3032,1001,3245,1041,813,-1347
2410,1641,-5527,-716,-764,494,-1012
2411,-2263,-5591,-4961,-1022,56,-1207
2412,-1622,-1263,873,-948,58,-875
2413,-3367,4260,-452,1350,909,753
2414,-291,-1129,7476,562,-1308,603
2415,-1792,7987,447,818,624,-227
2416,3347,-4453,-2997,-1695,-446,538
2417,6298,-3329,-2912,895,936,-1890
2418,3304,-5464,845,1700,-27,141
2419,1142,-972,-6634,836,-1609,383
2420,-6755,618,5729,4,-231,1367
2421,3306,-1582,-6325,1230,761,-1722
2422,3532,7540,-3393,-1097,1471,-1497
2423,-1060,-4563,-4579,-526,710,1455
2424,-6173,-4089,-5890,-1608,-1484,459
2425,2325,7558,-2343,879,-1830,1576
2426,-3198,5298,6898,1462,-904,-255
2427,-7727,-6618,127,1865,1348,1284
2428,-68,6515,6766,-1388,-1824,63
2429,-3049,4045,1381,-1242,-870,1075
2430,-625,-5272,1051,573,63,1327
2431,7271,2326,-6722,-1845,-68,513
2432,2531,-6865,-1407,1367,-68,-1089
2433,3787,6357,-2705,-1543,803,813
2434,3827,4099,5772,14,-1791,-768
2435,3908,-360,3868,1090,-1966,409
2436,2648,3756,2669,68,-1852,464
2437,7403,5285,-2682,-1636,-1576,-944
2438,7243,5846,-2254,-876,-108,-1724
2439,-5424,-324,-1520,-1534,-691,-1447
2440,6543,7106,-1410,-124,1901,-664
2441,1431,1571,-6672,-499,1770,-1216
2442,87,-238,6688,-1389,-839,-215
2443,51,-2289,-6539,-1109,-266,-1848
2444,7624,7289,2838,1370,599,436
2445,-2002,6083,7119,-347,43,1905
2446,7983,4053,3472,1253,1342,690
2447,2576,398,-2633,-146,47,-1503
2448,-305,-6862,-59,-1686,-1178,1238
2449,4704,-4098,6246,-1472,-1708,-841
2450,880,5963,-7072,-811,1704,-1234
2451,-3644,-7641,7264,589,1584,-1938
2452,1022,3397,-7355,1976,-746,-223
2453,-5105,4074,1825,-1182,1026,-1000
2454,-4210,7227,-7021,1072,1917,1134
2455,1438,6109,-3589,447,-526,-489
2456,5880,613,7052,193,-1303,-912
2457,-5513,7437,5225,-1706,1911,1693
2458,-1736,3898,-6740,-258,561,428
2459,-6215,6890,2111,-1411,-1818,1196
2460,-1531,-4679,851,1692,-1431,-1238
2461,4773,-2984,3871,-542,1314,1388
2462,-5412,-7277,-6924,-1344,147,-1877
2463,-256,6569,-6208,480,-1591,676
2464,-3571,7413,1364,-362,-1442,885
2465,2665,3840,154,-908,-905,1718
2466,3392,3511,-3067,-224,-232,-91
2467,-4956,5835,-1943,-416,-1105,-30
2468,4282,2390,-6585,1784,1169,-397
2469,1848,-6498,-4722,167,1191,-1150
2470,-4985,-7036,6908,-22,-1304,-34
2471,873,48,4726,1352,1146,1331
2472,-136,-7420,-5008,-1122,-989,1385
2473,-198,6319,-1730,-1189,-285,1453
2474,-4286,-813,2200,-868,1915,-714
2475,668,-1977,1023,-849,122,-640
2476,2072,-6710,738,1680,1790,1235
2477,-575,-2899,-1007,-73,797,-1646
2478,-6855,-469,4316,882,216,-689
2479,1736,-3562,1587,1313,1802,1853
2480,1471,-6452,-3523,30,1289,-1714
2481,6911,-80,-3414,-163,-1383,294
2482,7990,-780,-6347,-1762,1499,-785
2483,-61,-4942,759,610,-1344,1674
2484,1146,-4085,-687,1297,-420,-1724
2485,-2922,-3861,3245,684,409,-430
2486,1579,-2307,-6273,1827,1512,-1399
2487,-3884,-5706,1566,1150,-284,-1213
2488,3584,806,-6645,-206,1027,-1935
2489,-7529,-97,-2213,-368,766,-722
2490,5644,-4222,-3287,1836,1405,-904
2491,-2603,624,1903,305,711,1418
2492,6865,3656,5414,729,-1211,-782
2493,-3378,-7780,4963,-1364,-1501,-1072
2494,-3136,629,6562,-386,52,1030
2495,-4037,145,-6986,1924,664,1759
2496,226,3776,-7592,-1106,-797,1870
2497,7595,-5597,-2392,-310,-1327,-681
2498,1562,7425,1156,1061,1907,-1451
2499,7466,-403,-1000,1909,-1659,-969
2500,7479,-1898,2939,-1064,-987,-632
2501,-3829,1408,-4178,1247,4,812
2502,-7714,-4193,-7905,-1971,1988,-1922
2503,-6571,-7619,2924,475,-572,1159
2504,-6859,5443,-3700,-185,1527,-1773
2505,317,-6701,633,-1111,-1230,-339
2506,2856,3370,-2873,-538,-1002,747
2507,-2815,6366,5623,1188,1283,-315
2508,-7994,5721,6054,1766,-370,-1567
2509,-5258,-1274,427,129,1613,-1872
2510,147,-4414,-3383,-1311,-829,-157
2511,4422,4267,-3684,-1493,-1990,-1528
2512,-6027,397,959,-157,611,-482
2513,3940,3828,4246,-1892,-1877,1661
2514,-3862,5599,-1794,1034,875,-1135
2515,1729,535,5520,494,-361,-1520
2516,5367,1265,-1294,-513,343,-1385
2517,2545,74,-7367,-971,900,1754
2518,-1534,-7490,7613,1955,808,1988
2519,-5679,-7272,-3809,-1791,911,-1403
2520,-2446,-3037,-1644,-1489,-1844,1436
2521,-5065,-4889,-6045,1740,-605,343
2522,1635,2489,-430,1833,-632,610
2523,724,-1404,-607,-1722,-648,284
2524,-6005,-119,-7539,-1154,-1265,479
2525,3241,-1675,-6113,38,114,1117
2526,1265,-2753,5337,1822,-46,1567
2527,-4803,-3598,-7775,1446,551,-1455
2528,-6111,7243,-2584,-1368,-1658,663
2529,-6717,-2274,3381,833,1658,1975
2530,-6529,-7920,3512,-1617,618,1294
2531,-4887,2109,-2730,1416,187,-121
2532,-1003,4420,-4356,587,1627,168
2533,-3865,-1245,-3272,615,-1185,-71
2534,-5971,-7925,3415,1633,-1240,-462
2535,2494,-3349,-800,1673,831,-1905
2536,-880,6081,-1313,-485,594,256
2537,5709,-1614,-1251,1383,-1318,-447
2538,-5093,3155,1938,-1198,-1369,342
2539,2313,4442,-6558,1573,546,-32
2540,5066,-6365,7729,-1710,-1533,-1305
2541,32,-7570,4833,1516,-269,1084
2542,148,7643,-7769,-1800,1003,860
2543,-4789,-1049,-5115,1140,-1518,326
2544,-1934,600,-134,-632,-704,-1249
2545,-2347,6378,-6653,-845,-633,1763
2546,5853,-3714,4201,1013,703,-1170
2547,-4112,-976,-6747,-1885,-341,-1409
2548,-4884,2684,170,414,1145,27
2549,1655,5550,-7934,-1140,-55,1355
2550,2107,-1011,3001,422,-929,191
2551,1622,-664,6384,151,1300,-1089
2552,-7789,-1185,-3102,-1949,-1351,495
2553,6492,6905,5209,-298,155,325
2554,-7008,4121,494,-1044,309,-893
2555,6906,6292,3052,-196,792,1214
2556,-5203,-1912,4473,-782,-677,-888
2557,-4159,2596,908,-1282,1233,1773
2558,2627,-1681,-1933,200,-799,-1949
2559,356,7858,-7755,-1829,-624,-997
2560,-6670,-461,6062,-1586,1488,-1247
2561,7969,-4164,2046,-275,-619,-159
2562,-297,7977,-4845,-1068,162,1522
2563,-799,-3734,-4964,-554,1260,-1724
2564,137,-4777,-730,-1616,-78,-860
2565,-5224,-6460,3202,-1745,-407,-766
2566,4700,-1068,-1096,-1196,459,-930
2567,1244,1369,-68,1858,-377,1934
2568,-6075,-5056,2426,1924,-1979,924
2569,-3575,-2144,1884,874,-104,585
2570,670,-5183,479,1619,-1868,1576
2571,-7502,1714,7,-575,-336,-94
2572,7345,6484,-6175,-1925,-1880,1795
2573,-7216,-1990,2192,-16,-1108,191
2574,3697,140,2706,-341,961,640
2575,-4464,6967,-1882,995,1253,271
2576,6094,4371,-4123,-1759,580,-1219
2577,-3100,-3903,-2658,281,28,-562
2578,4029,-6019,-779,1235,-1649,659
2579,6969,-668,-3741,-1461,936,1181
2580,6542,4464,4391,960,-1454,1931
2581,-3855,-2487,-7456,-1414,1214,-126
2582,1916,-553,-5,1385,-1370,-970
2583,-4587,929,6827,-198,738,-897
2584,-6482,1306,3192,-1682,-1887,-1718
2585,3798,-6058,5144,-1779,1019,-1944
2586,-7026,2529,5101,1650,-337,-715
2587,-4038,-4584,4020,1360,-1263,-1108
2588,3863,-494,2028,188,757,-690
2589,5477,4744,-1671,-417,263,1176
2590,-606,-1930,-7216,811,841,930
2591,5588,-2974,-3316,283,-870,-687
2592,-2912,7229,2267,-465,444,-233
2593,-5992,-6996,-1589,-1803,1259,1142
2594,-7559,-1688,6978,-1281,-322,-393
2595,485,-103,787,-168,-584,1394
2596,-366,6084,-5667,-844,41,-1644
2597,-873,-781,-4228,1516,1683,404
2598,-3720,6100,412,1744,461,-1812
2599,-4553,-2215,5941,-211,1376,1162
2600,-7411,1726,-5378,284,-652,-1035
2601,179,-3599,-7496,508,1755,-176
2602,-4284,-171,2757,-978,-1841,334
2603,-4642,4553,-5744,864,1563,542
2604,-3623,190,-5936,652,-104,-751
2605,-5122,3212,-389,-76,685,-1772
2606,1113,-5852,282,1801,-594,-1818
2607,-1891,6131,-4962,466,-1483,406
2608,-6193,3327,788,1600,182,1431
2609,3133,5447,2337,1739,-1266,954
2610,-5626,-5297,-3118,-904,-1676,101
2611,-6685,-6743,-230,1822,848,-1156
2612,903,7169,3609,-1958,-304,1831
2613,-6991,-7161,-2276,1920,1742,-844
2614,586,7784,3619,-1399,1657,-1760
2615,-4393,-2347,7368,1060,-1784,1067
2616,-2257,-6435,4040,337,1804,355
2617,7716,3604,-2708,340,-932,-781
2618,-6853,-4299,-1474,-265,-1299,1790
2619,-5526,-1880,-7778,1219,1899,568
2620,-3894,-2291,6545,-1160,1223,368
2621,-7253,3121,7880,1046,194,347
2622,2958,-3551,-6808,-923,-1698,1348
2623,-5522,-3866,-7334,-1163,-1036,-1811
2624,-711,3929,-7821,-1890,661,823
2625,-4679,7180,3403,830,974,-175
2626,-5645,-6187,7562,-86,-1532,1627
2627,2427,-4866,6676,-383,120,-1901
2628,-1661,-595,-4077,-1047,319,-856
2629,-6274,-224,829,1816,301,-752
2630,-7042,-6478,-96,-1980,-1182,286
2631,7304,-2142,6233,348,749,-1563
2632,-1496,-460,-381,-852,1664,-890
2633,-4802,-5254,-663,450,-365,-572
2634,1456,4170,-7019,823,-329,-1494
2635,-7530,-551,5707,-980,-1828,-138
2636,1489,40,-6932,-14,-1331,1217
2637,-4248,-1747,-7796,-628,1613,1639
2638,-4446,-1272,3603,91,448,1280
2639,1045,7100,7328,700,-276,600
2640,-2033,-7688,6914,403,1915,1358
2641,-2241,-6987,-4858,-674,-302,-1018
2642,-1835,-5760,791,-770,1741,-732
2643,615,5626,5028,-468,-1750,-1094
2644,-1601,-7989,7625,263,-1893,-1618
2645,-1795,-437,-2427,-1635,-982,-1038
2646,-1256,5483,4059,-529,-108,-458
2647,-3174,2993,-3031,-1230,1660,-224
2648,5842,735,-5647,1933,130,615
2649,5322,-3278,5573,842,1749,-249
2650,7568,399,-3710,-947,1027,1040
2651,-4400,6315,1658,-1816,-1015,-490
2652,7893,6628,-6420,1469,-1572,1396
2653,6343,-6695,-7712,-299,-842,-639
2654,-327,-1807,5816,-482,-1070,295
2655,-1221,2215,4889,-1586,-1304,-1812
2656,5760,3073,3939,-583,-1747,1484
2657,602,4565,5601,-804,1610,1972
2658,-6448,-5514,1350,1043,1820,683
2659,-5401,6458,6406,-11,-902,-1209
2660,-4321,5167,6317,422,275,-1363
2661,3116,1771,-4507,-1282,-1919,-1820
2662,-3834,-2232,-1566,-1386,163,-359
2663,2443,7065,-1403,1438,1159,1784
2664,5402,3121,-4424,1220,-749,1113
2665,-2741,-3279,-2460,1276,1099,-679
2666,6403,-2515,5239,-1133,730,-1460
2667,3145,7378,-177,-62,1736,-1701
2668,4569,-4702,2007,461,546,-406
2669,-851,5862,2495,-1137,-1480,1421
2670,4408,5582,674,587,-16,-1844
2671,-1574,-7925,-4512,-1293,510,-731
2672,5105,7580,-1779,125,-53,-1533
2673,-6906,6749,1964,1980,-1628,1960
2674,3895,2586,538,-1768,1000,-522
2675,-7394,-6612,5566,38,-1718,-416
2676,-1595,3926,-4503,1267,228,104
2677,-6367,-5906,-6078,-329,711,1941
2678,5852,-4864,172,-1566,1923,-519
2679,-740,-4772,-2425,1525,-1430,461
2680,-6783,-3248,-6176,599,-1216,981
2681,-5439,2709,6975,1472,-84,-1711
2682,-4757,-4194,5736,1470,1757,-436
2683,-4402,-4079,-885,508,1426,-1266
2684,4948,-3286,-6641,1952,-344,1627
2685,1498,4518,-3214,1762,-579,-1776
2686,-1941,2025,1648,640,-597,631
2687,588,5824,-853,-1549,-1425,1684
2688,-6392,931,630,462,-66,8
2689,2427,5401,6511,-1268,1506,1939
2690,-6439,-1613,-6641,-269,-792,-1767
2691,577,5883,1638,1424,-782,1515
2692,6458,-417,6982,-211,-1593,806
2693,2879,-962,6505,1432,538,-1612
2694,-687,2704,-3201,1039,-443,1905
2695,-4047,3327,-7126,-1759,1020,698
2696,2165,2068,6426,-694,1077,6
2697,-1300,7537,5090,-63,1528,-1407
2698,-896,291,1254,-1426,-1209,1895
2699,-2708,4771,3884,1134,1609,-1823
2700,-2605,-7371,2720,-1487,-1997,626
2701,-196,4606,5257,-1548,1130,923
2702,-7990,-6828,-3553,1745,1142,1330
2703,-4707,6732,4666,204,-1457,1100
2704,1379,4986,-362,1881,-1574,276
2705,7920,-2508,-5036,324,-1509,1433
2706,-7327,6509,-560,-1542,54,1336
2707,2934,2571,-7585,-216,472,933
2708,-3017,5761,624,-1392,772,-1383
2709,-76,6399,-438,-324,-1794,-1376
2710,-3352,7084,-7810,-1287,1073,144
2711,-2048,607,-532,-701,-1333,-898
2712,-5319,4416,-3556,-695,787,-533
2713,-2497,-654,-3651,-303,1596,-1283
2714,-2536,5961,-3140,-979,-185,-1918
2715,-361,7153,-7034,-208,653,917
2716,1056,-2110,-3574,-1991,474,-1230
2717,-3855,1836,54,694,570,1321
2718,2292,-4181,4680,1116,-1199,194
2719,-95,6332,5977,-1805,-393,-185
2720,-7704,267,-5981,917,-1115,334
2721,7274,-2247,253,-699,1337,-1287
2722,-1469,742,-2032,-1360,1262,330
2723,7407,-3391,4484,216,-145,984
2724,-145,7078,-7071,-118,741,471
2725,4143,661,1556,-97,-525,1590
2726,-7703,-836,-450,724,702,1670
2727,-7983,-4801,2108,-1522,1526,-1731
2728,4892,1384,2807,-1816,-895,-779
2729,-6182,6742,-6272,-77,734,-170
2730,-5941,4165,1984,1075,1204,179
2731,4058,-453,-2774,1384,1354,497
2732,-2457,-6721,3735,-1458,1362,1574
2733,3470,-5599,-2295,512,652,-878
2734,-6197,7150,2702,392,-771,-1714
2735,1417,-1500,4327,-817,504,-775
2736,6847,4625,7422,762,-312,-1639
2737,-616,-7791,-3067,1585,1238,-408
2738,3689,4538,-4149,1142,-1725,334
2739,3292,657,-6817,1500,1140,1481
2740,-2392,-3336,5530,641,-250,1016
2741,6674,-3144,-7886,1988,-374,1765
2742,2299,3116,-4038,530,591,1836
2743,-2849,-2483,2311,499,1946,1657
2744,-1323,2121,478,-1455,1795,1219
2745,6728,-2848,-2860,1322,790,87
2746,-3499,7368,3252,-692,415,1796
2747,5051,797,5582,1200,-1700,1269
2748,-292,5226,6885,-1981,-1149,712
2749,-1385,524,-4539,-1629,1840,-1299
2750,330,2923,5334,-764,-1913,22
2751,5444,3338,5348,1846,-790,-1707
2752,2338,6346,-3845,-89,-931,-949
2753,-4205,-5841,-1207,-911,-1523,-850
2754,-2183,5325,-6721,-1726,-980,1764
2755,6613,-1448,-6659,956,-1878,1477
2756,-1008,3955,5779,1207,-626,620
2757,2376,2311,7719,-1009,1036,-1761
2758,7046,-340,2961,1452,-1131,1327
2759,5627,-4884,6025,-800,472,-1808
2760,-6503,4167,-70,605,-1788,-1153
2761,-7991,-6743,7989,10,797,241
2762,-3241,4483,3034,-1843,1318,-1640
2763,7498,7025,-3599,1752,-498,1456
2764,4983,-4579,806,629,-1766,65
2765,-4968,2295,3240,-13,873,1942
2766,3200,4926,4842,1855,-399,-641
2767,3087,321,-7089,-215,-393,-1500
2768,-3140,7362,5330,-1508,-981,1932
2769,-6822,4619,6221,1808,-1634,350
2770,2346,3772,-2634,1484,-609,140
2771,4274,-2019,-238,365,-229,1456
2772,-3339,-2517,3113,221,-1093,1454
2773,392,-3614,444,-1710,-1955,-941
2774,-7517,633,5144,-353,-1401,-1437
2775,7357,7768,5095,1713,-723,-1739
2776,1274,-5109,865,1852,401,-1158
2777,-1605,-6027,-2741,1171,543,-1433
2778,3952,383,4529,-1853,-1661,-771
2779,-3745,-1697,7700,1669,1526,-306
2780,-5322,-1500,-2891,1941,1799,904
2781,-7260,4641,1192,830,527,-9
2782,1421,5874,-2528,174,1275,1215
2783,3904,-4482,-917,-1929,-1906,-1658
2784,7558,2560,-6144,-107,-1521,753
2785,-1550,5518,-7309,1082,-955,-1308
2786,767,2866,7898,-609,1728,-1598
2787,7926,-5136,6909,1200,-210,1710
2788,-1680,4940,6099,1090,-357,-1699
2789,-6020,7126,6735,518,-1317,-1925
2790,3113,-1682,4696,915,-30,91
2791,-6464,3712,2591,-1166,1416,132
2792,-5629,6205,2044,126,-777,-1324
2793,4142,5547,-806,1568,990,835
2794,4394,-4198,-6956,-247,-266,-1367
2795,-789,-4394,2220,-1762,-758,-1079
2796,4180,-3299,5122,1915,-1879,-1602
2797,-4395,538,-2444,-1115,-1901,731
2798,6495,6729,-2059,-791,1110,-633
2799,-1031,7896,-7565,176,-1549,282
2800,6780,-1169,4323,1353,-357,1263
2801,-2032,-4849,-6806,-1244,409,-206
2802,-2169,1063,-4314,-81,-1993,1608
2803,2047,1737,5383,-1139,-1053,1426
2804,-7412,3852,2684,1074,1722,321
2805,6721,-4250,-6923,-1760,-1937,-1723
2806,-6616,-3542,-3886,1852,-1156,1253
2807,-3390,3685,4012,890,1543,-1128
2808,4434,-3825,-5496,626,-75,-898
2809,1459,616,5592,67,1954,-1974
2810,6108,-321,-3735,153,158,369
2811,4380,-4857,-5555,-1672,-17,1765
2812,-3438,-2028,6377,-1284,1915,-643
2813,3116,-7081,568,-1076,-1698,-908
2814,2892,1395,5132,-1318,1281,-1767
2815,400,7914,5440,1436,-1690,-323
2816,-2296,1945,-4875,1171,-83,206
2817,-1669,2855,7655,472,-1620,1539
2818,4955,3383,-5478,-1512,1612,848
2819,1544,-6114,960,1136,-216,1181
2820,340,-3567,3780,1256,-1824,1064
2821,2818,2230,-740,-1364,554,1826
2822,-3842,2293,-2234,945,-1817,1014
2823,-1219,4980,4625,840,590,-1612
2824,3404,-7202,-7071,818,-1925,1994
2825,-3758,7015,-6093,1021,-18,-382
2826,-3667,-4593,3146,1279,-1465,823
2827,3672,-7612,5469,-797,1341,-500
2828,2231,-6599,2710,534,1945,510
2829,6881,-3685,-4994,197,555,1452
2830,6382,-6799,-3181,-36,-1356,1562
2831,7863,-1961,-2011,-604,1821,-1691
2832,-798,-1560,-5627,-447,1437,1762
2833,-4944,-550,7219,-1445,-301,-1154
2834,-3314,7587,-588,316,-691,-1457
2835,-3713,4955,-4170,984,-31,-1372
2836,-4446,1167,-5544,-676,-670,-209
2837,7199,-7365,-6275,406,-706,-1694
2838,-2375,-2369,-1993,-362,-1679,-607
2839,1104,-7880,-1038,811,-1501,1724
2840,2898,7953,6334,1361,1364,-1140
2841,7395,5606,-5503,-961,-926,213
2842,-1484,7317,-2553,-274,-473,-804
2843,-3680,-2362,1507,-1020,1677,757
2844,1154,-1071,5118,1282,1804,1487
2845,-6066,3009,5811,-1143,212,971
2846,-7712,-6104,1383,-1995,-1922,-504
2847,-7905,1155,-6842,1910,-1538,1271
2848,693,-7789,7070,-709,-572,1369
2849,-5217,-789,-799,-1936,616,-767
2850,-701,-2787,6751,-1229,-2000,-1612
2851,4748,1568,-5574,-828,1775,1473
2852,1238,4500,4050,-1573,1873,-822
2853,7981,-3605,-5214,-101,-1137,96
2854,7283,2523,3619,719,-884,-1582
2855,-3427,-1193,-7083,1878,436,-1132
2856,-2180,1649,7228,-567,645,-1216
2857,-5055,-2791,-5719,-1315,-1949,291
2858,-7336,6280,-6587,1534,1570,-8
2859,-4766,1302,-1483,756,-903,1703
2860,1035,2036,-5746,-983,1964,-1076
2861,-2113,-4410,-1988,-464,1529,444
2862,-3393,-5241,-1498,-577,-381,1575
2863,-998,5975,-662,-1514,1086,-1330
2864,6886,6117,7941,1451,306,-945
2865,-3826,3006,-6455,661,-1875,-358
2866,2418,-6565,-5008,587,-842,-343
2867,216,1443,300,-909,505,-1976
2868,-2191,-2170,6857,789,-313,1019
2869,898,7803,6028,1787,-1037,307
2870,-2187,-6534,-5797,-1614,46,-741
2871,4293,373,-4093,1744,1703,-546
2872,6064,376,-526,974,-784,-823
2873,-5780,-4063,3365,-824,901,-355
2874,-5199,7982,1617,849,112,-1673
2875,-2391,-313,-4717,-952,-1216,120
2876,-3523,1109,-4382,439,-1323,1986
2877,5619,3399,2007,905,1255,-919
2878,97,4280,-6546,751,1407,-1606
2879,3809,-2765,4226,67,500,1510
2880,-4193,-1981,5701,1975,1092,10
2881,-7081,-6243,1505,1241,976,-265
2882,887,6266,3212,316,1127,-680
2883,-7540,-2621,-3305,-1792,1412,317
2884,-2342,7221,2586,-842,-1438,-853
2885,-4233,600,-1433,-1634,1030,714
2886,-5141,4023,2125,-446,-673,1726
2887,2620,-5953,3858,-1592,1464,497
2888,-4485,4244,-1976,124,1932,-908
2889,5490,3115,7621,1389,1011,1293
2890,-6309,7510,7021,-151,-1227,1344
2891,2157,382,6117,270,840,530
2892,1192,-5294,4449,-1055,-963,-1696
2893,7838,4743,-7896,-25,239,845
2894,-7514,1098,4618,-1867,-1578,401
2895,6191,5641,-4894,-214,-1350,-1452
2896,5430,-1050,4392,1134,951,-522
2897,3073,-7792,-5522,473,-401,401
2898,4057,-573,-4080,1971,-343,1556
2899,1768,868,882,522,-1191,1629
2900,6131,-7969,-4866,186,-154,-1179
2901,-2853,-7971,7030,-939,-67,1086
2902,-2490,6155,1607,-1827,-164,1009
2903,-7979,-2780,5496,-1997,-1884,-747
2904,-4297,-2703,3478,-225,1911,-121
2905,-7728,6727,-1623,845,381,-667
2906,-6107,-3262,5778,1713,-1968,-1993
2907,2705,5415,-681,-142,-1367,-1835
2908,6272,18,-4121,-241,704,543
2909,-3497,-7993,3749,1392,1287,-634
2910,-1327,1485,7326,-1429,1709,-1064
2911,-3947,3939,2877,188,486,-1428
2912,6098,-1788,-7555,341,-806,654
2913,1767,-2045,2400,1457,-931,1370
2914,-7291,-7447,-1903,-32,1345,887
2915,-7519,-6286,-353,1987,-391,-717
2916,-3500,-7735,5523,1872,1308,-304
2917,3539,4991,3264,1134,-212,-1598
2918,1085,5584,3125,-1105,-915,627
2919,-2559,4111,-3134,935,694,-85
2920,-3988,2532,1031,1833,-1942,-1665
2921,5565,3988,1399,1415,1179,91
2922,-3538,5452,2556,89,-1700,-731
2923,5096,5411,2541,186,1565,-1034
2924,2886,6172,7483,-959,-593,-1857
2925,5887,5128,-771,1300,-1741,-313
2926,2893,-2355,-5714,1694,1249,-1238
2927,-4210,1105,2953,1577,858,494
2928,-1034,5178,-3642,-51,-1948,-780
2929,7609,-4544,4899,36,1303,-1805
2930,-1086,6760,-879,-182,-884,-1527
2931,6308,-5927,2798,1709,-1530,-668
2932,-4139,-2690,-4233,-1529,-1645,-1693
2933,-1244,5159,6938,-1263,-1250,-660
2934,1414,-2243,-5066,-1132,11,1848
2935,-2400,-6530,6839,-53,-415,1617
2936,3073,-3829,-7793,-1328,-840,-1382
2937,696,2814,-7239,1773,-1250,-1866
2938,4372,6278,-239,-1928,1527,622
2939,6308,-4355,64,1684,-1402,1524
2940,-2590,2515,6578,-1761,386,1382
2941,-7568,4808,-2049,1888,-1277,1308
2942,1156,3072,-3958,-1555,-897,-1126
2943,-7387,4531,-3888,-1641,1928,-149
2944,-7201,7069,-3582,521,-1297,1613
2945,-6633,2235,449,1456,-230,-1506
2946,1532,-4816,-524,-186,-1402,1143
2947,-2562,-6612,-2970,1605,-484,1390
2948,-1449,1967,-6922,-322,1881,1512
2949,4955,-401,3168,-310,1585,957
2950,-4944,-4467,-6368,858,-519,-43
2951,-3973,3012,1362,-185,732,-1563
2952,-1758,-2145,1032,11,1900,-1369
2953,-6417,3014,-1986,-1081,-1196,630
2954,7836,-2043,-6532,-203,-1576,574
2955,-1623,4451,4252,920,-1494,-461
2956,906,-4051,765,-1566,-670,1167
2957,-612,-7831,5522,-1929,819,-1803
2958,-104,663,-2400,62,-1562,515
2959,1135,-2319,-7640,-813,865,1677
2960,5016,-6099,-6622,1862,713,1682
2961,-7453,1217,-6894,1075,446,1043
2962,6800,1124,-4753,-1620,776,1069
2963,-2593,-4883,-6284,-328,1852,1675
2964,1306,-1177,1116,1931,1165,-1735
2965,7881,-7778,-6468,-1579,1965,-941
2966,6494,-3178,255,1888,-23,-1677
2967,-3207,916,257,39,1392,317
2968,-4478,-7212,-2851,186,-977,-1803
2969,6706,6422,1546,1963,-849,723
2970,7066,4751,-7311,1013,-1738,-1693
2971,-3956,383,-1877,-1267,1477,1318
2972,-6790,-7106,-464,1165,-517,-1144
2973,1998,6034,-2339,1998,3,-430
2974,-3654,6045,-3144,-284,-1985,1374
2975,-4009,5289,3112,-331,600,1486
2976,-4461,5781,-5622,734,-619,-1533
2977,-4477,-6195,5391,532,994,922
2978,-2551,-1518,-2517,-1156,1179,-1852
2979,1789,-4837,6300,-374,609,-532
2980,-2791,1241,-3440,852,1474,105
2981,-3258,-1867,-3914,1242,300,-1074
2982,-857,-5901,-4384,-919,-404,1213
2983,3645,6996,-3960,-1344,69,1652
2984,479,-3094,-4249,-340,162,-1330
2985,4230,2627,-525,1573,-1906,-1003
2986,1703,-2148,2757,-923,-1392,-1918
2987,1621,1243,2761,1313,410,1539
2988,-1683,-2376,3537,1298,-183,601
2989,4452,3124,-2659,-166,1609,-103
2990,3431,1986,258,-1671,191,-1476
2991,7039,5735,-6701,328,1419,-1627
2992,1839,-4696,-3217,42,1698,1538
2993,-3844,-2303,-728,1097,-1708,-1861
2994,-2122,5191,-1152,1030,1151,324
2995,2816,-2833,-6093,1549,1704,615
2996,-2429,789,-3824,1421,-1070,-1136
2997,-2305,-4758,-692,817,-755,-227
2998,-2943,-4136,-7260,1740,1559,500
2999,5402,-2627,6757,-667,-1960,1406
3000,1067,-1731,-3776,-166,-241,1282
3001,-7769,-58,6498,-414,1524,1923
3002,217,-3627,4405,917,551,440
3003,-5348,-5464,-3221,1405,1281,1523
3004,4932,5276,-342,1730,-1977,1636
3005,4356,-1497,-5294,-452,-1670,-600
3006,3694,-6933,26,-212,-265,-773
3007,-6632,-7349,965,1635,-797,-1190
3008,2898,-3866,7806,1666,1724,-1755
3009,-6812,380,858,-792,1548,-1448
3010,7175,-5669,6590,375,-1935,-1298
3011,-3788,3503,-1518,1637,-3,172
3012,700,1666,-7929,1885,885,-761
3013,1295,-40,7638,901,1694,-1759
3014,5277,-7162,3082,-1335,443,-928
3015,-2175,1474,1872,-481,559,-236
3016,7730,7999,-2032,1576,1841,1311
3017,1117,4216,-1689,89,80,262
3018,-5658,-5419,5263,858,-1969,1271
3019,4209,-4122,3149,1759,1436,-933
3020,-7562,-5426,6851,-1255,-110,-442
3021,2919,1281,-1681,-701,171,1078
3022,7094,-7125,-4335,188,563,-1298
3023,-6999,-1934,7197,1956,874,-570
3024,-2865,6677,-3711,-1844,-1950,496
3025,-3071,-710,520,1166,-1297,-242
3026,-2294,-179,685,1181,-321,722
3027,7557,-3209,3558,-867,991,-1587
3028,-3780,-5276,-628,-550,-1858,1408
3029,-154,665,-5166,-188,488,-429
3030,-4101,5381,-3907,1006,-1667,-1525
3031,2526,5959,-6606,-1182,1442,21
3032,171,708,-3658,1331,-958,142
3033,-3306,1958,6368,-287,1026,1807
3034,-3223,-2349,5803,-31,-280,680
3035,3026,-3228,4186,-1982,-1838,320
3036,7527,4655,-3570,-1547,874,369
3037,4159,-6484,-4173,1155,-655,1474
3038,-6337,4897,-122,-59,1273,-1223
3039,-4412,-1946,3754,-1346,43,-871
3040,288,-538,6324,-1677,-1826,1752
3041,-948,-2216,-3142,-1300,1761,1420
3042,-5788,5730,-2719,821,-1372,1846
3043,7584,-5045,-344,1029,-231,139
3044,-1496,-5561,-7068,-1194,781,-97
3045,5889,-2733,-234,189,-421,-2
3046,2722,-7007,6051,-1180,1915,-653
3047,9,-2671,-6927,-560,460,-1848
3048,-390,-2082,-3632,1357,-1264,-1175
3049,5792,-7906,2588,1453,1783,-882
3050,1655,2006,3964,1181,1563,-1450
3051,-935,-6053,-5911,-1802,1431,323
3052,554,6607,-1617,-1650,1934,-611
3053,-4801,1343,1192,1638,-1363,-56
3054,2112,68,570,-1203,-1678,-88
3055,3403,-4641,-5446,-74,493,-126
3056,-2815,-5239,7352,976,-1865,854
3057,-5216,6694,-66,-64,-1990,-1439
3058,-2829,1259,5023,-1038,-1733,428
3059,-4936,1041,-4021,-1334,-1685,445
3060,1915,-4118,3664,-796,228,-1804
3061,-6172,-7331,289,-1415,-819,42
3062,-3623,3184,2281,-1473,798,737
3063,7871,4493,1480,-582,1277,-1886
3064,-57,7110,-507,1983,-1033,53
3065,1557,1011,3902,-1636,334,128
3066,1721,5775,-5369,796,-1171,-842
3067,-2787,1484,-4119,-1207,1216,1503
3068,-3339,-2205,7392,632,-497,-353
3069,-3572,-5789,-5676,-880,-23,1578
3070,-2648,2735,3295,7,235,412
3071,6310,927,2997,1491,-682,1425
3072,-2326,-6352,7778,934,18,-809
3073,3594,4144,7889,751,1113,-989
3074,7919,1452,7508,-68,-1734,-1895
3075,558,3249,-2918,1117,-631,209
3076,3330,4929,-7808,1990,1834,-247
3077,7404,1182,7666,172,293,1256
3078,7987,5967,6632,-946,1392,1658
3079,7490,577,-2648,-1543,290,645
3080,-5813,-5390,-1370,-514,-1020,-1028
3081,3517,5820,-2645,-516,1718,-1539
3082,6967,-6556,-4179,780,1762,266
3083,-1688,-6507,-2619,749,-1230,-403
3084,6096,-3182,-5915,-300,-1734,-921
3085,2061,-2909,-4017,851,904,-1824
3086,-3072,-154,-5679,-1288,92,-1963
3087,6903,1229,2797,-22,-1436,-482
3088,-1546,5271,-828,-427,-416,-897
3089,-4658,7222,-6875,-1395,-1884,-233
3090,-7868,2883,1061,-1136,-1864,1986
3091,5190,-14,-7325,1272,-1509,-2000
3092,1330,1027,641,466,908,-1872
3093,6799,-3076,-5952,1351,-1432,381
3094,5106,278,7485,754,713,-873
3095,7062,2943,578,-87,1926,412
3096,47,6427,-7687,1761,-1351,-1016
3097,2786,6434,-1588,-1931,-723,-646
3098,-5587,-634,709,-689,1927,-370
3099,-7088,1488,5617,-412,1747,506
3100,2767,7384,1558,-470,-1643,-827
3101,4993,-3882,-5287,-1861,-366,1455
3102,1437,5712,-2998,1041,1987,517
3103,-7401,-1936,5433,342,722,711
3104,3978,1253,5379,1024,-1738,1666
3105,-4624,5934,1302,-1448,879,1896
3106,1084,4761,7184,847,-360,908
3107,-1241,-1368,6654,59,-1620,-338
3108,-5859,-1803,-659,-1215,-1887,-163
3109,5895,-3219,2591,-1757,-1775,-633
3110,5615,-2858,2364,-930,-1551,-1493
3111,6580,2796,-7986,906,520,1337
3112,3449,-7265,187,65,1962,427
3113,7786,7801,-7366,1359,-1472,1327
3114,2867,-5886,-5190,-1609,-1960,229
3115,-3306,561,3278,-312,1028,-242
3116,4874,6778,4691,-1943,861,1175
3117,-6242,5158,-3924,-1713,-1592,-1115
3118,6310,3796,390,1817,1411,1297
3119,-2097,4075,5015,74,859,817
3120,3549,-914,-4889,568,1462,192
3121,4964,-5628,5981,796,-807,1310
3122,-2582,7943,2245,997,-27,463
3123,878,-4841,105,334,-1750,686
3124,-7110,-3960,-1605,-99,1056,-460
3125,1812,-7005,7077,1712,626,193
3126,7379,134,5127,-1143,729,-1487
3127,-2656,-6192,-891,835,-636,1795
3128,-991,2029,-7535,-722,-1972,-1104
3129,2367,5003,-4315,-378,291,1779
3130,-3130,4400,492,1137,1327,-344
3131,-5866,263,1867,-454,54,1344
3132,4036,-1352,5974,-418,1374,1260
3133,-3652,-4926,577,1794,1398,-1202
3134,153,-465,396,213,1807,-772
3135,-1082,-5009,-4721,340,-907,1754
3136,-3644,6786,4088,-886,-1434,-1494
3137,7100,-4115,-5003,-601,-1204,-1803
3138,5454,-6633,-240,1915,-363,1103
3139,3889,-1568,3149,1785,-1530,-1331
3140,-2418,-5586,1176,-1602,-1275,1959
3141,7911,6961,6402,-1644,-776,1840
3142,753,-1738,-1491,-873,-1357,-312
3143,3918,-5440,-2617,-959,-139,1231
3144,-7418,-5803,2711,335,1152,-561
3145,5062,-7094,-636,-807,-1248,2
3146,-5886,-4088,-7486,1869,-853,1133
3147,-1120,-5769,6704,-1844,-218,1802
3148,-738,7205,-3147,-1165,306,608
3149,568,7856,-3253,469,67,1505
3150,-2957,-3146,2777,707,1303,440
3151,2282,-6973,7352,232,1465,995
3152,5875,-5045,-7041,-9,549,-85
3153,-3366,-3413,6442,188,753,1478
3154,-5743,-2092,-4908,-428,-1557,369
3155,3413,-1636,7320,-323,-1773,981
3156,-3794,6056,-5541,1832,489,874
3157,-2546,4210,4819,-1167,582,-1890
3158,1266,2717,3962,1448,-24,-300
3159,-5191,-2023,5956,637,301,225
3160,-1147,3340,-670,1187,-1464,437
3161,-2626,-6405,4224,1507,1811,1717
3162,-1008,-7019,4699,1165,-995,1170
3163,7881,-1697,3736,-1730,1995,12
3164,1683,1049,6527,-1005,455,1616
3165,3454,-6849,3385,1227,11,1760
3166,-3389,5392,-105,-1767,-31,505
3167,-543,-7004,4815,1951,-567,373
3168,3545,6829,-7117,-553,-239,-1098
3169,780,-4929,3998,-580,996,1091
3170,3969,-6023,2292,-177,-891,-356
3171,-1422,-5241,-7657,-528,1226,-346
3172,1858,-6461,1002,576,-888,-174
3173,-7465,-1093,7203,-415,453,-341
3174,-3693,-6819,2269,-450,-984,460
3175,-1868,-2345,-1031,1137,803,-155
3176,7489,-7937,-1936,-638,-335,483
3177,1184,3520,5384,-812,-267,-607
3178,5911,-1881,-6663,940,8,-558
3179,3185,-859,-1037,1276,-881,-444
3180,1634,-486,-5826,1444,-1766,-1923
3181,3163,-2416,593,556,1408,459
3182,6481,-2374,704,1852,-838,611
3183,-5089,-1201,3101,531,1344,434
3184,2183,-2072,2473,1563,-624,57
3185,-6692,5956,3083,-670,1331,-1905
3186,-6734,-6116,-7218,12,1171,887
3187,-5837,7635,2520,866,-1019,615
3188,6627,306,-333,-1358,1073,-1220
3189,-1182,4005,2675,1654,-1904,-512
3190,-1692,3695,2564,479,61,419
3191,-4526,-5356,1250,1837,429,-1652
3192,3242,-7262,-4827,-1973,685,-1357
3193,7468,-5568,2184,72,-517,-923
3194,197,-5142,2809,1604,-1188,-1686
3195,-7576,4549,2399,-1365,1380,970
3196,-7242,-4930,-5985,1104,623,431
3197,6549,2575,-6442,1993,-1728,-1035
3198,-1674,-5143,-4397,1408,-1007,1263
3199,-2422,-6878,849,240,-1561,443
3200,5920,-5939,-4964,1116,-1947,1167
3201,5437,6993,-2275,1687,1277,-1955
3202,-7002,6113,2387,-413,-604,-1050
3203,4360,-4834,3799,-68,-1486,275
3204,-6932,2661,-7096,701,1865,-458
3205,4694,2372,6899,676,1566,-1504
3206,-2529,6702,2193,-1058,1280,1162
3207,-7719,7956,-7991,-1901,-6,750
3208,-2635,5236,2649,1616,-96,-1452
3209,7796,4316,-6816,548,-1167,-615
3210,5531,-5757,-4489,-1306,-366,-1678
3211,-1093,1768,-2955,-1015,561,1533
3212,-304,992,-2388,939,-1719,-241
3213,-3673,-2981,-4674,-883,-1706,-343
3214,5239,4449,-1618,675,62,1727
3215,-4300,6462,-3438,768,-473,111
3216,-5096,7361,5608,-1008,-119,-8
3217,-679,-4334,7486,612,790,695
3218,1872,-7190,4733,-776,1944,1310
3219,3959,322,2704,-405,-588,-786
3220,2696,6058,-1899,-1648,1166,1442
3221,2215,-3457,6674,1860,1912,-1928
3222,-473,3154,-6936,-1621,-73,-506
3223,-3161,6612,4030,636,441,-1382
3224,-6153,-3076,5945,-448,-411,1607
3225,1049,-7582,718,-1320,1856,1424
3226,-1391,-321,5056,1102,-1339,-926
3227,5163,-1263,1726,1828,-619,-1896
3228,6073,-2268,-4528,-1891,612,-1973
3229,-4602,4971,2820,-1314,-429,498
3230,6891,-2855,200,-1935,952,831
3231,-6215,-746,5908,-584,1560,1426
3232,1575,5849,-7597,585,1860,-64
3233,2565,-462,-1601,-478,-1454,-1196
3234,7865,-4947,7369,1084,-414,1505
3235,-5523,4099,-3746,1403,-1489,1589
3236,5055,4078,5097,-1869,1878,1897
3237,-1481,7499,-5799,1976,-1138,1062
3238,-4851,-6571,-2317,-925,769,-1205
3239,5668,-7068,1770,-446,1811,-1565
3240,747,-6988,1903,1699,1536,481
3241,-4663,-428,2557,1370,468,-947
3242,-373,-3365,-3224,-1735,493,1755
3243,1064,-2735,-3429,-1836,-1028,1556
3244,2359,1333,6587,-1993,-364,-807
3245,-5149,5422,386,-1132,-801,-1889
3246,1348,-599,7769,1849,286,-1534
3247,-2511,-6318,1213,-1335,1988,1720
3248,3743,-6271,2604,1729,-607,-185
3249,-1857,-4411,2823,-996,-97,-1898
3250,-4357,-4110,-1170,168,867,1112
3251,7846,1105,-5807,1605,-1659,-745
3252,-3019,-2851,-21,-1274,-446,622
3253,-4446,-6740,-7296,735,-1098,-106
3254,-2030,6685,-3159,1111,-198,1297
3255,3498,-5587,-5543,-1590,-462,796
3256,-4827,-7097,5580,799,-1619,630
3257,-6813,-5464,-2558,1324,-1606,-151
3258,-3502,5092,715,275,1864,-1997
3259,4979,6320,7132,1499,-568,-1803
3260,337,-5413,2635,1703,724,-391
3261,-7526,-7306,6473,-178,1381,-1131
3262,4090,4277,2077,960,-1140,1446
3263,-6276,6826,-2645,1896,-239,1180
3264,-7922,-1574,-3499,534,1976,-196
3265,2157,-3269,7284,-1093,-827,1468
3266,-7357,3600,-7540,-244,1254,1570
3267,-5262,-6916,3132,1532,-18,1913
3268,750,-5130,-6905,-1147,-1669,553
3269,6885,-1800,-3622,-1754,-333,-866
3270,3675,6343,-1511,-1893,-153,197
3271,3878,-7026,-5914,1520,667,1996
3272,1203,-4126,7825,-1292,-1895,320
3273,-4992,-863,-5296,264,1138,838
3274,4244,1726,6054,-918,-381,1143
3275,-4744,7617,1737,195,-803,-79
3276,-5605,1872,4744,-24,1121,136
3277,-6294,7984,-6583,67,-739,-777
3278,4721,4314,-1208,1538,1841,1538
3279,875,3846,2410,-1573,317,-1665
3280,-6444,692,-6721,-1846,-1294,-1099
3281,7883,3637,5891,-1840,-557,1391
3282,3767,-533,3905,-1249,709,713
3283,-6723,833,-7997,-675,638,1078
3284,-3643,1385,-5489,1830,-44,-432
3285,7355,4076,-4264,-897,1388,-1084
3286,-7385,942,1417,266,614,-237
3287,3057,-660,-5408,1498,189,789
3288,110,4404,2133,854,230,-227
3289,-3479,4340,5312,700,-1819,1014
3290,4506,-1564,356,1529,-520,-1056
3291,-2339,-1191,6681,1924,1933,1324
3292,5688,-5892,3931,434,-1376,-489
3293,-1909,3128,-5260,1131,23,1100
3294,7533,6513,-1883,-1547,581,448
3295,-3495,-2351,-3088,307,1619,-1695
3296,-1233,-1620,379,1630,1817,-368
3297,-6661,3764,2592,-267,-522,947
3298,7215,-5576,-5151,1443,976,-1148
3299,620,-6653,6923,-1097,1714,-970
3300,4233,1781,5700,-1822,472,-1640
3301,-802,-7464,-5241,1908,-1263,961
3302,-2238,4240,-3242,-952,-1134,-611
3303,2834,6836,-3144,-175,1285,-985
3304,-5963,7053,-5133,387,-1515,-421
3305,-4731,5474,4613,1851,854,248
3306,-5819,4848,-3270,-636,-1216,73
3307,-5331,7309,5375,41,-1048,570
3308,-2849,4547,-6601,1369,1284,1722
3309,-5382,3957,-6283,98,201,1831
3310,-7217,1328,-6653,-1834,-1958,1692
3311,-2491,5566,-4430,1662,-1505,-543
3312,5381,3018,-2959,-598,1292,1587
3313,7361,5727,-1914,-1240,-717,-625
3314,-1194,3132,-2544,454,26,226
3315,1689,420,-496,1932,-1255,-165
3316,919,5350,4358,1967,-1938,1552
3317,-1175,-849,4434,-331,-952,231
3318,1926,-5014,6922,-1292,973,-1071
3319,1835,6585,-3468,-909,-384,-1672
3320,-7947,3588,4749,1706,647,-665
3321,-1182,403,-2995,1794,-1011,-1836
3322,-6680,-7341,-7903,1704,-1959,-568
3323,391,-6043,5061,1687,990,-165
3324,5950,-4978,-4539,-764,-660,1918
3325,1089,-672,1620,-681,-1201,642
3326,6892,5378,-3993,94,35,528
3327,4384,1070,-4919,688,-1597,-949
3328,7207,121,725,-459,-532,-1762
3329,-3240,-1085,1391,-150,-38,259
3330,6383,5837,6599,603,465,-854
3331,-6419,7663,-2059,-288,11,-1341
3332,-3767,-3604,3153,898,-1489,-806
3333,-2589,-7232,571,1295,-1570,1593
3334,-6922,-3357,7717,-113,1834,-1068
3335,-6523,-7535,-5140,1683,-1966,-1232
3336,1811,686,-1268,-547,-150,-1142
3337,-3727,-2244,6734,1858,-1193,-1157
3338,-615,4725,-4946,1880,-311,-1205
3339,7979,-5855,-5153,-209,-438,1516
3340,3780,-2003,-4785,1491,935,-538
3341,3906,-6156,6759,768,567,1306
3342,5446,1416,-516,1649,734,-1355
3343,-5143,-6829,3533,675,-270,-1921
3344,-7913,2011,1747,1390,60,-168
3345,-2701,5066,972,1264,-332,-150
3346,202,-6091,-8,-981,-1661,1895
3347,-3864,-4856,6163,-1844,802,-41
3348,-5064,7092,3587,-1957,896,-271
3349,3885,7025,3004,433,-1061,-151
3350,-511,260,1198,-341,661,-970
3351,-4168,-6795,-6846,1793,-476,554
3352,5696,-7737,2251,1394,-1697,1338
3353,-1871,-4512,-7418,476,1507,-1534
3354,1421,-5788,7332,145,-1095,1372
3355,4173,-5373,-3873,612,-340,-1752
3356,4390,-6821,-7632,87,-1965,97
3357,7877,-4961,-173,207,271,289
3358,-4526,529,5202,802,1767,-1920
3359,2288,1769,7961,-918,-1572,1464
3360,-6007,1694,-2080,-765,-1517,-1186
3361,7725,1456,1800,-1797,193,-1953
3362,-5291,-2112,-7089,754,575,-1226
3363,-4231,5955,-993,-494,-266,-991
3364,1257,4247,3812,884,436,-145
3365,7120,6414,-4102,436,546,-426
3366,-1743,3556,3910,136,-1108,-1820
