Sample,Ax,Ay,Az,Gx,Gy,Gz
0,-3197,-6984,4444,389,11,1636
1,-1243,-4505,2226,-378,149,1335
2,-170,4663,-7880,-1961,-1397,-1381
3,-4218,-4701,-3633,832,1499,-443
4,-5014,-2993,-5207,591,-410,-1640
5,77,-1300,7717,1633,-1014,-407
6,-1914,6820,6018,-282,1022,-478
7,1259,6446,2637,107,-835,-224
8,7931,-2062,-7827,758,1017,806
9,2141,7266,1467,938,1759,140
10,-5190,7584,-7363,-146,-1644,-1617
11,-585,7420,2053,1283,1059,821
12,7973,6059,4618,-1825,1185,1100
13,4816,-2576,-298,485,233,364
14,-3683,4880,-5963,85,1521,-509
15,-3885,-2371,10,-998,-1109,1894
16,2496,-5306,-318,1526,339,-1495
17,-6819,-6595,1175,-1829,-1203,964
18,5599,2146,2873,410,896,324
19,4269,2143,1716,-1228,856,-272
20,-503,2953,-7151,-1411,-965,-1658
21,7248,7696,-6332,-1562,-279,-1877
22,-6452,-1391,2990,1452,-1417,1592
23,-2925,7223,6591,-802,1819,1110
24,-2686,6191,3563,-721,-617,-466
25,5652,-2918,-6530,411,953,1304
26,3997,1815,-6330,1752,665,851
27,-1094,1456,-6211,1936,1377,-986
28,5987,2646,-1272,303,1866,-1101
29,6783,-2280,-3425,889,-239,893
30,-2913,-6578,3703,-525,1257,-958
31,1099,-4156,6708,-586,-32,451
32,-2394,-500,2264,0,-1655,1846
33,1978,-7532,-3765,-179,330,-1673
34,-5176,-2729,3559,-1110,1403,-1974
35,-579,278,-642,814,-960,1938
36,6004,6970,-7740,1567,-1286,1541
37,-1302,3261,1213,-1336,-1223,1673
38,-630,1195,6931,1077,-1147,336
39,1816,2902,-1564,1564,-395,942
40,7818,1098,-1171,-1956,1387,1340
41,6522,-1743,-6261,397,729,1491
42,5317,-5459,-4900,1463,-1706,1993
43,2260,-5507,-5067,-378,538,-792
44,-5577,5569,2740,1903,-595,-153
45,5319,1602,2972,-1010,1516,-1995
46,1409,3287,-7992,-1921,-440,1702
47,-2823,-1752,-1348,-107,-1029,537
48,-6834,-6117,2629,-1840,559,-1769
49,7613,-3441,958,1547,1551,1018
50,-6984,-7954,4003,1229,629,1166
51,6560,-1370,-5986,-723,-328,1246
52,7382,6532,-6791,847,48,753
53,-1892,-6130,1644,1701,-353,-1059
54,513,5827,-4909,1019,-847,1535
55,285,4275,5678,117,894,-567
56,7311,-4781,-7292,9,1997,1277
57,-6196,1501,-4564,-161,1073,-1528
58,1943,5147,-6071,669,-1729,797
59,6580,1739,-4789,1627,-608,-1732
60,355,86,-5779,-1457,-1635,1430
61,-598,1459,5928,-579,1105,-339
62,-7610,-2137,7206,-371,235,562
63,2801,1476,4768,-857,-424,-371
64,1625,7289,-3455,-1617,1473,-1304
65,5589,-7749,-4950,153,-1457,1176
66,6411,3909,-5495,725,-1954,-812
67,-6075,1169,4978,-1161,161,490
68,-7781,-6749,63,1219,-1682,451
69,5844,-6024,4303,-585,-1347,496
70,6988,4401,-2357,141,-1647,680
71,-6343,1615,-3731,-1909,-360,740
72,3977,-931,5427,-1979,1854,1922
73,4420,-4383,1917,-1385,-97,779
74,4578,-1330,-3812,257,1986,483
75,-5266,-4131,6134,1884,1236,540
76,-1741,4821,-2779,-927,-893,448
77,-1039,-3536,-1285,-449,1512,1451
78,-1689,4214,-131,669,785,-509
79,2824,-2136,207,-223,1238,-276
80,3395,2989,7911,-160,1681,-55
81,-6842,-5049,3664,0,423,28
82,-6057,-4385,1349,-1879,-1157,-1737
83,6709,4312,6901,1520,1681,1146
84,2615,5430,6805,-1216,-1805,-1474
85,-3420,-731,2310,-1711,1330,1020
86,-4318,6178,2790,-520,1803,-515
87,-6681,5353,-3023,537,1142,836
88,-1641,6216,3333,1723,-1294,60
89,-1954,-2420,-1289,-235,-1980,-807
90,-5377,-400,-6319,-312,-1409,-769
91,-754,7111,347,1365,1416,1065
92,-5698,-5334,-7540,-1550,-726,1272
93,4516,6431,4998,-721,-942,539
94,-5581,1634,-6121,289,1595,-951
95,1646,7563,3163,-383,-542,330
96,1593,-6378,-5845,-176,718,1813
97,6635,4172,-6245,1974,-632,1045
98,1022,635,-1917,-1894,-1656,148
99,-2201,-730,-2009,-1846,990,-159
100,-5185,2995,5920,135,-1114,-705
101,6549,6722,1897,1648,763,1110
102,-3292,6466,5473,-344,-1402,1364
103,-2788,563,1915,1592,-1603,1896
104,1642,2878,1108,43,-1896,1908
105,-3594,-4909,-1441,-134,226,-1552
106,-2728,191,3872,-1338,794,908
107,6515,-4033,-7702,-1628,-531,-1214
108,5894,6711,7350,1563,1689,27
109,5494,2343,3932,1880,628,-731
110,-5770,6429,-7804,-1238,1068,4
111,-1728,2467,4814,-643,-1409,404
112,6373,7094,-1038,411,-1825,-901
113,6806,-6699,-4929,930,1371,-1841
114,5122,-1223,3572,1006,1076,1987
115,-3425,-1846,-2615,-1266,275,-1150
116,-3639,-7087,3036,740,1450,-555
117,167,-1416,-1546,1067,1310,1066
118,7948,-2119,-4224,-465,-656,-1118
119,-231,7499,-1736,-1040,-1698,566
120,6422,-2085,-3915,-302,1751,664
121,1055,7289,2534,-1340,682,-1836
122,3626,-2341,-6982,-1561,1643,-1215
123,2785,-2064,-4670,-222,273,-244
124,-4254,7855,2521,710,1643,-1894
125,4742,2390,-5601,212,1423,-55
126,799,4036,-1967,195,1092,-204
127,2443,-5009,2174,196,-79,450
128,4499,-6889,-6625,1513,-328,-1710
129,-3417,5847,-5508,-1908,322,-1640
130,-3521,-2960,1332,1564,385,-426
131,4882,-5021,-1294,-101,-155,1290
132,-7668,-6378,-2585,1094,635,-1452
133,1981,-7613,-1728,-103,999,-840
134,5520,3361,943,1164,1311,298
135,101,5736,7662,-1095,-466,-1015
136,-3647,2404,-7186,369,1820,1711
137,2594,1404,1387,325,888,1540
138,-2112,710,7017,-792,-1589,1833
139,7003,401,2771,-1666,583,-1817
140,6301,-1134,-2083,-1414,1955,-1300
141,485,-6699,-487,-1725,626,-833
142,6923,-645,3791,-1476,-1726,245
143,-5216,332,760,979,-909,-1640
144,-810,-896,3402,1995,1674,-795
145,-703,456,-2765,-506,-1617,1187
146,-7184,-6367,-2836,56,-1932,-1593
147,638,-6669,2097,1359,391,47
148,-2882,-842,383,-883,-316,1026
149,1694,-2853,7059,-1439,1430,-485
150,877,-1185,-3396,-51,1148,252
151,2959,-2082,-1035,1520,-1983,1610
152,2221,-7707,5936,1837,949,1432
153,2848,7456,-3126,-1206,-1466,1154
154,-3715,-2615,199,691,233,420
155,1042,-4084,783,-1362,-922,909
156,-5097,-3378,2200,-1479,1818,-1175
157,-3938,-2268,-3073,782,1284,1424
158,5992,2117,1565,112,1367,-1949
159,-7442,4921,7850,334,1293,399
160,-7250,2811,5673,-1563,659,-823
161,-2008,6425,1811,-404,-763,-1795
162,5131,6081,-5378,-77,-308,-818
163,-4100,3906,2423,1224,1728,1070
164,-2050,5273,5058,-1587,1725,-801
165,1882,3194,4613,183,919,679
166,-6648,-2018,-6800,-688,1076,895
167,1746,-368,-2100,-1066,1024,1198
168,5603,-3675,6857,-516,-924,852
169,-6455,3545,6568,278,166,-848
170,6693,-1695,-7702,-1118,1188,-807
171,-2997,-2912,-4192,-1670,1731,-1716
172,3688,3477,-5899,-68,-488,164
173,3095,1341,-5920,1441,-849,1224
174,2687,-955,-3684,1619,1809,-226
175,2034,-3639,1703,478,902,1678
176,6786,3195,7201,1578,253,1927
177,-444,-2782,-3204,187,1225,323
178,1456,5267,1524,1849,1289,-1841
179,-1317,-7469,3943,307,1894,1299
180,-1115,4439,409,-41,252,1946
181,4650,-5773,-740,-1001,1263,-9
182,-1850,5647,5479,-1148,-164,309
183,326,-2054,-2923,-992,-632,1818
184,-7091,-3919,2409,824,1944,1692
185,7879,6579,-7646,975,352,-783
186,-35,554,-7537,46,1976,474
187,-2791,7937,-1681,-433,196,412
188,-4408,4950,-1867,697,1332,-175
189,296,-1931,185,115,-222,-76
190,-3476,-7905,1466,-377,58,-26
191,4910,-468,-5248,-1699,-1489,-1510
192,63,-1748,1311,341,966,-624
193,-2824,3418,6780,-24,-1742,756
194,-1033,7931,28,-1929,1578,-786
195,3394,5377,3475,453,1359,463
196,-3503,132,7269,1354,134,-1675
197,-3471,1294,3951,-317,-1831,812
198,3394,1768,-5084,423,-1946,1274
199,2041,-5963,3064,1353,183,-1153
200,5817,-5661,6490,-1582,1778,1351
201,-2417,5704,-1128,-1331,1368,1461
202,2876,2761,485,1156,-856,970
203,-2156,-547,3361,-1951,-464,1653
204,2155,-3100,4246,-677,1725,-1497
205,-799,4213,685,1309,-1113,-942
206,-2359,-2560,2593,-578,356,165
207,7616,-4252,2349,316,1045,887
208,-4620,-1580,-5570,-1664,1254,-1281
209,735,7071,-1414,227,1988,266
210,2691,-2125,-321,-1225,-646,889
211,-7031,-4509,-3275,491,1173,267
212,-1546,-4227,-681,449,-870,1186
213,7789,-5267,5668,1462,-1924,627
214,5825,558,-2529,1288,115,-1713
215,-6423,835,2641,1837,-1079,-28
216,7006,305,3102,-1590,-412,-1104
217,7314,5378,2327,1466,815,1531
218,-1584,-6704,1945,-1233,904,-1332
219,7285,860,-5440,-436,1132,506
220,1692,-5563,6808,1309,-1721,-671
221,7502,-5080,-6997,1187,1197,1450
222,-5862,5113,3041,1702,471,-17
223,1032,3266,1765,1690,1999,-1350
224,5620,6055,7657,-1376,427,-895
225,-4252,-2291,-713,1768,1560,-619
226,7604,-1157,2123,-42,837,1131
227,-6787,-4209,3862,-381,-728,1250
228,-1309,1840,6642,-720,1530,1513
229,-4646,-3266,5753,-1383,1824,383
230,5854,-152,-5298,-1149,727,1468
231,6289,692,-171,1043,-343,389
232,-6684,-6210,5924,1692,260,1668
233,6110,-7325,4819,-1611,1262,-1740
234,-455,354,6749,547,-945,1789
235,1263,1311,5085,1175,1515,-704
236,722,-3467,-5806,-892,-1049,-790
237,5714,4310,4973,-998,819,-740
238,-4267,-7592,-5911,-1976,-865,1169
239,-5224,-6485,1654,897,763,875
240,-4475,-5059,-7744,738,1996,986
241,4667,-2884,-4586,1133,-840,-103
242,489,6380,-1472,1796,-116,-1362
243,2195,-2613,-2410,-1961,-1361,1120
244,6143,7330,1744,1384,1854,-1129
245,-7555,6816,7419,1396,1227,-1641
246,4328,6254,-2900,1213,-1879,1239
247,-6916,7213,-5087,546,1555,880
248,-6274,6680,5493,-789,-860,1649
249,-501,6990,1102,1578,-554,-955
250,7281,6499,-3614,412,1529,-1365
251,-4021,-5787,-6595,-1516,-1829,568
252,2525,-3061,-6755,-735,1784,-1705
253,3882,6820,3834,669,1851,1027
254,-3199,5926,346,-1831,-55,-1241
255,-7482,-4082,-1981,1332,364,-817
256,854,7596,-1436,1882,-865,-1596
257,-4983,4081,-5843,-560,1276,683
258,-7492,-4171,-97,785,-1622,1990
259,-4219,-2561,2855,-1116,174,1084
260,-252,-2596,1165,-1942,662,-1009
261,3489,3769,7338,854,1511,-1162
262,-6171,-3607,2338,-1842,879,1651
263,-6724,-3281,1179,847,-1853,1292
264,-6750,-6026,-1540,771,1182,1367
265,-4465,-5075,-6925,-1349,-1188,-244
266,3384,6695,-1310,820,300,-1136
267,-6278,-3474,1327,-1314,-1719,-1877
268,-3495,-1899,206,1365,-1004,868
269,-4432,-6712,2787,-1389,1863,-1438
270,-587,-6539,-3189,794,1108,-431
271,-1035,7354,1611,-714,1670,1681
272,6776,-4172,-558,-668,-1554,1075
273,6204,-5060,-1809,-1917,-222,1485
274,6261,3521,-7924,1682,349,-444
275,-7765,2679,-547,-66,-1487,-1165
276,-1332,-7031,-2856,1066,1973,-66
277,-7598,2614,-4983,338,-1959,1909
278,2913,-7131,-4876,-252,-942,1128
279,-6741,-6427,1126,-1018,266,1230
280,-6674,7341,-5994,69,1613,-638
281,-1443,5615,-6603,-1042,333,745
282,3589,46,-1807,1178,1156,-265
283,-4254,-778,7555,458,1434,-662
284,5797,3339,-7610,602,-440,1453
285,4130,2138,2524,1243,-794,1166
286,-3554,4962,6854,-1456,1316,1257
287,-5774,9,193,1848,-102,744
288,-753,4707,2149,1896,-493,1843
289,1171,6669,5276,311,676,-1941
290,5698,6535,-2277,1267,1878,-97
291,4808,7686,6395,1857,-751,578
292,5982,3054,-7271,326,-934,-192
293,-7486,-3968,-207,-1211,-1111,-1814
294,-5298,1178,1554,387,-945,-790
295,1692,3629,2328,-859,-843,-1375
296,-4659,-6363,-6287,-1132,-835,-1577
297,-6036,1927,-2904,-1169,1121,1726
298,7165,-1065,7547,1729,-1582,630
299,2271,-2217,-169,-1295,1513,1009
300,5535,-6047,4267,1429,1440,-1284
301,-1320,1467,4150,-23,217,1225
302,7834,4595,4507,-1917,399,-20
303,320,3003,-1681,-1326,-1369,-299
304,-5264,-6823,-1386,-31,1701,1420
305,-585,1451,4459,1813,-902,-1000
306,-3414,5433,5574,-1091,-753,-1443
307,-1862,5314,3448,1125,698,-1668
308,-3430,6580,3788,74,-1896,1407
309,190,-2732,-6029,-1437,-787,825
310,7323,1447,-867,770,-1606,351
311,-2515,-1500,4138,-1184,1702,-1551
312,-5555,-656,1482,124,699,-1333
313,664,-6689,-3459,-1635,-395,485
314,4875,652,5761,1675,324,872
315,1336,1943,-6134,1415,507,-1576
316,627,-3867,-844,623,-1480,1661
317,-5761,6007,-5018,103,495,-133
318,-882,6859,3308,-1571,-1829,1550
319,782,-3007,5739,-1888,316,-199
320,3015,5693,-4667,-1093,-919,-1212
321,5649,2028,5726,364,115,-307
322,7786,-5323,7587,-182,-855,-259
323,-5431,-5292,3643,1016,-1198,-1153
324,3881,1753,3330,-613,-1497,-18
325,-3567,-6033,6356,-1323,-1697,1939
326,-7118,-1126,-6034,-1789,1917,1325
327,2852,-6997,-5830,-56,-70,-246
328,-7917,-2522,-7219,-510,-50,-534
329,-7791,6773,-5666,-479,-954,544
330,-5624,394,-7162,-536,283,-1854
331,-4117,-7518,-2146,-555,1483,908
332,-2557,-924,2123,347,-1738,1469
333,-2625,-4756,-6037,1369,1552,-1280
334,-3811,-4724,-4021,1636,990,923
335,-5344,-4017,-7372,-1071,565,776
336,7177,-780,6298,-484,1314,-1285
337,3562,5941,-2343,816,-1614,628
338,-4767,7797,2384,1985,-1285,1101
339,-7385,-7150,4375,-1857,1706,103
340,4891,-6441,5272,1426,1242,-854
341,-4414,-5826,-4623,-1787,-1353,811
342,-3087,-2913,3089,1856,-1868,-1395
343,-7299,-999,6771,-1224,-614,-1766
344,215,-1617,3250,-1395,-276,-224
345,-1720,5088,-458,-1016,-1984,-1754
346,3226,-1970,-7507,538,-448,-902
347,5601,-6756,1551,-1169,613,-729
348,-4318,-4649,-3221,-98,-1959,724
349,5732,2266,3927,63,1113,-438
350,-1805,3083,1806,408,-1982,1705
351,4607,-4316,6787,-1831,1981,-433
352,-5256,6714,-686,655,1326,675
353,-7852,-5034,-1913,834,362,1172
354,5797,6189,-4361,-1575,783,-561
355,-7446,-1871,-6004,-479,1978,-1828
356,4782,-7990,2967,-1629,-1687,-643
357,7862,-7205,-6120,882,1731,241
358,-6315,3730,-3555,-538,327,1492
359,1529,-655,-2571,401,-1769,399
360,2548,-6038,-6624,-64,933,662
361,508,5069,7490,1430,-1100,-500
362,628,-1617,-4907,707,-1338,1254
363,-1935,2558,598,-1857,941,1229
364,-5047,-6630,-3204,584,794,-276
365,-4536,4234,-3595,-1000,-895,-1851
366,-5813,6263,7683,-952,883,1885
367,2340,-5689,-4814,-1182,-1747,542
368,-7608,-49,-7574,-944,-1239,-1542
369,-3744,-5487,4728,116,1994,-1339
370,-5180,-3286,-4146,-1521,-1725,121
371,2408,-3989,2695,-1895,-1973,277
372,2100,-2119,4034,223,1033,-1745
373,3571,5994,-6326,45,1980,1305
374,-5669,-2237,-731,255,-170,1198
375,-3248,560,-7753,-215,-1596,-919
376,-3205,-2886,4961,-1938,-385,-608
377,-2744,-421,-291,647,-255,1202
378,-2985,-6923,6411,-38,1160,1524
379,2116,6811,-865,843,1346,412
380,3218,5624,-912,-1957,683,1506
381,-1921,7903,656,-1814,1044,-1826
382,-4121,-6285,-4666,878,-96,1245
383,-167,-5903,6869,1659,1438,-239
384,2597,1915,2365,-528,803,1206
385,867,268,4118,-1183,-1794,106
386,5203,1890,-3180,-620,-1847,-934
387,433,-6257,3045,1489,-866,1093
388,-1499,3032,-3468,-1481,-78,35
389,-6094,-3363,3501,1103,757,-636
390,2562,-4584,-529,1913,-50,-1856
391,-2516,6724,4391,-1055,1092,-928
392,-3175,-763,-2282,1329,1293,31
393,-7820,-5040,-2860,316,-1161,486
394,6124,-2794,4663,173,1810,-1799
395,3421,-4223,-1902,-352,-781,-1326
396,3329,1657,3942,1945,1076,208
397,823,-1910,6398,1202,1156,-1541
398,881,-5811,6677,-1352,-266,-902
399,-5202,4543,-3381,1076,-275,-613
400,4334,3385,7997,-238,-888,1106
401,4426,-4739,1772,-493,-961,-267
402,-1594,-3618,1655,200,1729,1187
403,5868,-2225,-7825,1887,-1084,-1597
404,-4625,-4225,3361,-515,1669,-955
405,-1981,-2618,-5231,1773,1860,1719
406,5833,-7824,5989,417,1389,472
407,-7720,7119,-6041,-1730,-389,-895
408,1880,6247,3544,-373,-1274,1732
409,-5368,4091,6539,-1281,-777,1449
410,1757,5655,-27,-755,-951,-1682
411,408,1994,7747,1375,284,1034
412,-303,6831,-3266,1393,-1972,-1101
413,590,7998,-2687,-405,1718,-804
414,-837,7116,3640,1135,-1040,-1408
415,-5165,-7667,371,-920,279,-241
416,7162,80,-694,-1960,-1105,-872
417,-3334,578,5517,-1047,361,-941
418,7337,5750,4310,-782,722,1511
419,-5045,5531,7338,1729,-510,-1752
420,-7903,-6983,6923,-329,734,-1573
421,-7846,-182,-4763,540,-547,-900
422,4733,-3225,1983,1254,-1505,1530
423,-6123,453,7009,-1996,-1032,-1680
424,1198,-7763,2992,958,1706,-1947
425,2830,-4050,-2626,963,-924,-1079
426,1307,-4790,-4503,-407,-270,-688
427,6408,2066,1564,1482,-1128,-898
428,-100,-1967,-2948,1942,-450,1451
429,4005,7977,-6778,-1822,933,-1359
430,2195,-918,431,-363,592,163
431,1536,2442,75,-445,-68,642
432,-2522,3529,7831,-1690,1657,-612
433,-1968,6244,679,549,94,-1210
434,2509,6097,4326,1664,1028,509
435,1706,-98,-1074,-659,1471,-389
436,513,-7399,595,1430,592,-954
437,-272,-2539,-4174,1874,1005,1085
438,-5621,5145,-4331,977,25,-1211
439,-5840,545,-2101,196,1712,783
440,-2773,-4437,3167,499,-539,1508
441,2526,-1873,3967,-932,1967,1787
442,-1593,3210,-1569,-647,1852,-1348
443,-3345,-2575,-1786,1369,-1220,-1939
444,-3876,5529,-6260,1246,-908,1517
445,4958,-344,-6329,105,1463,-1629
446,-7055,4637,-4783,1090,385,1531
447,4484,-185,-5956,1943,-1332,1309
448,6180,4520,469,786,1826,1738
449,5678,7277,-666,-1426,4,-878
450,3451,-7912,1462,1483,-1907,-1562
451,-1029,5726,-1230,-1612,1401,1119
452,-1244,1521,103,-1317,1806,-1906
453,-3579,-7732,-3045,-1806,-1404,1606
454,-2932,5840,3225,904,-1791,-397
455,7660,-3256,-5661,-605,312,-1092
456,900,507,-2195,1121,174,-1166
457,2542,433,-3988,-1850,1415,542
458,3505,2141,7200,-678,1825,1373
459,-5232,-3981,-7649,1411,644,-96
460,5110,867,-6466,1465,1572,-1042
461,-4240,-2688,5014,-1869,1457,327
462,2459,5165,7693,416,817,356
463,-6218,4001,-327,-1360,924,-1825
464,1946,978,5253,1256,-110,575
465,-1423,7961,-7169,1634,-1923,-282
466,7029,3380,-7061,469,-1984,444
467,1804,-2638,5756,1869,1190,1472
468,7472,-7310,6789,-1593,-1469,-1166
469,-5956,-2493,-3630,-885,-1901,-431
470,2244,1485,-6575,-904,-271,1845
471,-4916,6401,5409,-306,963,1163
472,4112,-1515,1696,-605,795,-853
473,-2810,-722,7879,1040,-295,-45
474,-7770,2150,5623,405,-1686,-1143
475,917,-711,5876,-193,214,-748
476,-3005,-891,1523,1423,1777,-565
477,-1495,4071,-7339,505,-33,1241
478,-2068,-6831,-784,832,-1366,189
479,-1841,3479,-5496,-968,46,-528
480,5412,4041,2587,-1053,-6,1585
481,-7628,-7219,1202,1479,-1077,-1344
482,7543,1829,-520,233,-537,-430
483,2772,214,1334,-965,-583,11
484,5333,-685,-5477,-295,580,1279
485,-5237,-2852,6332,-1783,1511,1508
486,3388,5105,-7009,-93,-273,-94
487,108,41,7158,1991,663,313
488,6050,-2740,-1719,879,1578,221
489,3539,2891,-5163,-1277,1476,1246
490,1631,2740,-6998,-1894,-411,-1687
491,1061,-5775,3760,238,1843,-1156
492,4219,5547,-4777,930,-247,194
493,-4195,-4763,1014,-750,-189,1742
494,1108,-7623,5644,-189,291,-1714
495,-6858,5898,5308,457,-743,-516
496,7470,-3999,-5066,706,-1500,1468
497,2769,4340,-7412,297,-1319,-684
498,347,3563,-1563,-145,1247,-1276
499,-5246,-2704,-773,713,-1913,815
500,-7819,-6305,787,1352,-1874,1829
501,6222,828,-1224,264,1661,1706
502,-2086,-7388,-5210,1968,-97,-968
503,798,3412,-3911,-1917,-430,-619
504,1249,3157,1455,113,269,1790
505,5279,-4507,6682,-107,799,486
506,-6219,-5507,-7953,-562,283,1709
507,2469,7999,-5712,1091,1860,1168
508,4682,1057,6665,-1649,-1763,-452
509,-3909,6146,-2831,1353,-1505,1481
510,2388,5548,4206,-963,1846,-1989
511,-2986,-5024,5525,-916,210,-684
512,7394,-2395,-1716,535,-1864,-1588
513,84,3595,5493,-111,340,1795
514,7262,5488,6390,-1540,-1832,-511
515,292,1586,-4422,-1956,1429,-1554
516,-5697,5815,473,-1377,1731,-375
517,-4614,5728,-2084,-1290,1997,419
518,-2254,621,-2950,-494,-423,1203
519,-4990,7650,6502,-1650,1860,-70
520,5777,5948,-2264,-939,1494,-955
521,6545,-6221,-2598,18,1808,-343
522,-3695,-2612,-1840,-587,1773,1162
523,4068,-7235,-396,-249,178,-985
524,-1206,3902,-1033,-1326,1538,39
525,-5658,7230,-201,847,-1704,-432
526,2684,-5325,-1994,1182,373,-1461
527,5337,-6820,-701,-1661,1356,-288
528,4993,-3114,3583,-1929,1448,-59
529,-5126,3516,4485,-1361,486,230
530,3494,-6138,6159,-1540,1708,-1879
531,-180,-4286,2627,1777,-556,-1295
532,-4000,7016,4179,1916,1732,-1912
533,-1799,-6251,1484,-1056,1996,1374
534,-7403,7937,7629,1082,-706,1027
535,-2322,-7835,5197,-715,126,613
536,3514,1751,1699,1704,-1781,-171
537,7740,5218,-4317,1062,562,1638
538,7840,5173,-4176,1525,613,-1274
539,5773,1205,-5450,-174,-1193,577
540,-4857,3863,6759,-362,426,960
541,-3510,-2998,-3750,-1210,1092,747
542,5277,-6702,2059,226,876,646
543,-6667,-3876,-2044,744,-1311,-480
544,-418,4677,-3723,-1353,-1317,390
545,-6344,118,6381,1620,-1473,-1322
546,3669,3180,7942,1013,962,-674
547,-5278,-2409,424,1730,1367,-37
548,-5389,-5641,5870,-1123,-1763,64
549,215,5202,955,1033,1573,1619
550,1581,7387,7735,1176,1012,494
551,7097,7388,-3909,616,-1610,1812
552,-3883,5620,-6321,-853,1694,887
553,2034,-6585,7805,-1455,-920,-9
554,870,2081,-4706,-1869,-1031,873
555,4563,2321,5868,1766,-294,184
556,3426,-5800,-2765,-1280,63,-1528
557,-5123,-4040,-6992,1877,-613,-1043
558,5083,-2280,2591,-917,557,35
559,7462,5360,4042,-708,-649,1368
560,4764,509,1060,170,210,-1081
561,-6399,3445,-6691,-383,374,1737
562,870,-1476,3063,-422,-1272,1546
563,-6049,2023,-4054,-545,1722,261
564,2942,4413,4462,-1854,-1187,-394
565,-2746,3779,-2496,361,362,-141
566,-3527,-3112,6225,1040,-1992,-761
567,-7832,-4506,-3427,-573,1489,-1434
568,-7403,-2382,7829,809,-1579,-721
569,1297,3201,7338,-1442,-890,1858
570,-7496,4186,-5579,785,-1805,-1448
571,3154,-1547,7934,540,-806,1999
572,-4577,831,4295,182,1372,985
573,2130,-3854,395,-346,-74,-761
574,5675,-5280,-5650,-367,-1900,1014
575,2308,-2007,513,996,-1999,-577
576,-3310,4953,-86,792,485,1187
577,6912,277,280,957,-1435,-1503
578,7391,-1725,916,-487,735,-1022
579,3410,4419,-4135,1182,-358,790
580,5432,-6531,4962,-110,1282,742
581,78,-609,1605,-317,663,1940
582,6091,-3767,-5398,-1333,-1164,560
583,3704,3812,-1025,-851,527,-1128
584,-6675,-1486,577,-1271,-788,1559
585,5066,159,-1590,1478,-48,-1123
586,-5714,760,-5048,-151,-1838,-660
587,-2555,-6387,-6994,114,440,45
588,-6770,-2286,-2589,-1772,-43,-1269
589,1702,-7161,-1536,-1791,-15,-385
590,7878,6007,3601,26,-6,-380
591,-3217,1439,4728,-1866,341,1953
592,-7662,-1584,4006,-545,1561,-455
593,-1739,7718,-5877,-1960,-914,1320
594,5546,-3395,-2098,1284,-329,1333
595,6257,867,-428,-28,-1291,963
596,-7266,-3064,-4453,1035,1825,-332
597,5197,-6886,7218,114,-1903,1893
598,-6765,6214,-2056,1309,-1637,232
599,2060,-2141,-3641,29,1875,-1887
600,5284,172,5480,-1004,127,995
601,3244,262,-5399,-1538,-403,783
602,-1250,2041,2107,886,471,-1077
603,3149,3886,859,-279,-1438,1166
604,-3156,-6884,4608,-391,-1656,-84
605,-4001,586,3530,424,1199,439
606,7760,6755,-3930,-487,1938,-1811
607,-3370,-7130,4649,-1387,234,-1200
608,3524,-4486,-2245,1822,602,1181
609,4903,-3925,-4848,-1249,507,-533
610,4811,-5339,-4029,-1130,372,-1350
611,-449,-3649,2767,985,1900,-943
612,4614,-6252,558,621,44,-867
613,2535,-6614,-93,1784,-466,944
614,-2145,-4668,-4786,1796,-364,-69
615,1389,-1792,-670,1918,731,83
616,-4881,3196,-7021,226,-577,-8
617,7562,-1646,-5762,-328,1622,-922
618,1602,-2435,2157,-514,1417,475
619,-1211,2828,5375,1522,319,-729
620,-3054,5940,6366,584,1676,-182
621,-1852,3664,-3463,61,1650,835
622,-5138,-4757,4835,-1585,-503,-1708
623,7168,-82,2248,1997,1050,-1709
624,-3416,-1221,-6527,1686,-427,1573
625,7053,6558,-4298,-439,-1661,1105
626,-1456,-7147,4882,821,-332,-999
627,7781,-6553,5350,-1730,761,1815
628,1069,-1144,7069,1987,-440,-1557
629,3557,6762,-4810,-1769,-320,-45
630,-2670,-4335,5102,1451,-1041,-1283
631,-1609,2046,-5290,492,-453,-1056
632,1404,-350,4319,-1369,1156,333
633,-6139,-3191,-190,-874,-1130,-56
634,1043,1303,-7844,636,1443,-267
635,-4821,1126,-5386,-912,-1419,-698
636,567,1770,4572,-851,703,1117
637,-6758,2728,-4169,-780,1829,-926
638,206,-2288,5542,-615,-1737,1195
639,-2328,-291,2848,-853,1778,-1169
640,-5735,-2969,-6280,-1596,1341,1627
641,5364,-1005,3826,807,-577,309
642,5745,-6556,-4281,1577,-684,345
643,-2443,970,3419,1276,1716,-1496
644,7184,7026,495,-1692,-1463,-1357
645,414,-1380,-5753,1568,1076,-1815
646,-2804,6201,649,-1318,1209,281
647,4689,1418,-3321,-1699,662,1915
648,-7698,-6149,3556,196,106,1024
649,879,3966,-4367,1928,-1612,-1752
650,2935,-650,4982,1215,700,1498
651,-4260,711,6669,407,1261,-837
652,7435,-4894,-7946,834,-533,1161
653,-1261,-901,4068,1882,-1701,665
654,3321,-7000,-7094,1133,-700,-443
655,3360,4428,-6480,1183,-628,1412
656,6569,-7254,-3480,-1091,1070,494
657,-1802,4015,6927,-372,-307,410
658,3165,-7200,2146,-1828,-1785,635
659,-3032,518,-5422,-387,1201,1761
660,6975,-3441,1128,1585,1864,-1681
661,7565,-3401,-174,-1812,-680,1535
662,-6732,-2883,7271,1438,-658,202
663,-3354,2165,-5688,-293,1321,584
664,3168,3134,-4360,548,1834,-134
665,-3403,2910,3626,955,1868,-241
666,4865,233,-6824,-564,264,-88
667,2100,-7760,-4821,488,-1904,-1169
668,486,4544,-1248,-1805,1000,499
669,4157,3260,4721,661,1342,-465
670,-5059,-1744,-7735,606,1043,1555
671,7189,-646,2118,1986,-1303,1351
672,5583,-3371,2521,86,-391,203
673,-4883,3912,-2599,122,0,-159
674,519,-4004,-316,-85,-1949,485
675,-7729,3007,-4747,1935,-255,947
676,-5796,5858,-4822,1777,455,-1296
677,6489,-3201,5259,-500,-1259,-1797
678,-403,-3987,4306,-1659,217,1545
679,-5271,-5205,-3660,-472,-1048,995
680,-6944,1127,4700,-1867,1228,497
681,831,6662,1831,410,0,702
682,-2127,1699,-3534,375,500,663
683,3162,-3590,3234,196,-859,1826
684,-779,-2228,-4234,-929,-1169,969
685,-1770,1822,-7283,1755,716,-1028
686,3358,-1855,-247,-1238,-485,832
687,-7208,-890,791,-1913,-663,-652
688,-2504,-5415,-7387,859,-203,-1342
689,7342,-4247,-1369,-1106,-1426,-611
690,895,24,-860,-1993,-679,1783
691,6591,4933,4166,1523,641,1205
692,7950,-7579,-5948,1828,344,-818
693,111,49,-1130,825,969,1681
694,-5464,2775,6602,-127,1306,-888
695,-2501,2325,6790,-1023,-226,1830
696,937,-239,6534,-1487,782,-1804
697,4212,5520,-7624,1517,1459,-1842
698,-7392,2602,-3834,-1016,518,1133
699,-3579,-2868,6129,-1277,79,680
700,7891,5792,3229,437,1861,15
701,5023,-2909,-690,230,102,1998
702,-5264,-5304,-3916,685,963,1783
703,-5528,2513,-7714,1344,-1799,1311
704,4951,-3927,2810,-1459,-662,-1363
705,-1091,-5960,-2768,-1331,696,1190
706,-6276,2413,-5079,-571,1436,-35
707,-7148,-3249,-7011,-611,1588,-1115
708,4513,-476,-2948,631,543,-469
709,-4360,275,-7843,1985,-1088,-981
710,-2507,3100,4372,-316,-724,455
711,5418,-7965,-6642,-665,-1078,1075
712,-717,7994,-6390,-1128,1477,1476
713,-2886,7427,-2094,1631,1731,-506
714,4947,-1976,-3238,1974,-1475,-1493
715,7780,-6610,7561,-1018,1794,-1970
716,7403,64,2243,-451,-896,-811
717,-5433,-7522,-2726,1754,-1489,1283
718,2502,-1629,7455,1659,1440,-699
719,-680,2480,867,-52,728,-1466
720,2623,7774,-852,1565,-1706,865
721,-673,384,1022,320,1373,-1496
722,-3826,-4911,-1315,1939,1455,740
723,6256,-2926,-1762,1701,37,477
724,-13,1145,-6969,-329,-535,-1091
725,4073,6377,-1634,135,481,650
726,-3231,-3275,-154,825,-776,-497
727,2376,5087,7690,-430,212,-272
728,-7780,7243,4979,-897,1597,529
729,3705,-2368,-3186,-890,1785,-1671
730,7751,-2163,7704,926,-477,1958
731,-1994,-3360,-6877,383,916,306
732,-4837,1775,-4904,-1106,880,1670
733,-5113,-1858,-1525,-248,349,1682
734,5095,931,-1966,1174,-1468,-805
735,-4593,3863,4448,-362,855,470
736,7111,7316,-6145,806,-936,1044
737,-832,-609,5923,-1320,-614,1259
738,3654,-3346,1010,652,1932,1020
739,-6477,120,-7360,1286,-1909,-1412
740,2324,2386,1576,-1232,-73,-591
741,202,-2413,-1156,641,-510,-947
742,398,5087,-3018,-1686,1369,-356
743,1610,-2485,-5897,-1331,798,1470
744,-6831,-664,-1955,732,-1199,-771
745,-2178,2701,6213,-5,-62,-1612
746,2224,-5647,1064,-1158,-58,-864
747,5302,-1519,-457,-1551,833,842
748,7625,-4920,6082,1830,583,-789
749,-6366,-5976,-3274,-1833,-1524,254
750,-3502,3814,178,-609,-1379,1835
751,-349,-5834,6943,-682,-1368,13
752,766,3264,-6493,-1245,813,823
753,700,5219,6469,992,-1145,-1958
754,1709,-1729,-6324,1403,560,762
755,4628,3109,-5668,295,312,1769
756,2028,-2484,258,50,-1483,862
757,-4032,-735,-5442,1961,-1268,-322
758,-1013,-767,-4696,-1178,-1203,404
759,-6578,6398,5076,1355,1446,-65
760,1628,-6998,2425,-762,-1266,-1081
761,1317,-2972,4497,-308,-1356,219
762,-6041,1311,-782,1913,471,1102
763,-4755,3545,7386,-1189,-396,-1732
764,5941,980,-1941,813,1253,-641
765,7570,-6576,-7156,1229,-105,1780
766,6641,2384,-6378,-475,-509,-445
767,4551,-1770,-890,-368,-1656,-1371
768,6237,3463,4763,-1658,-53,1461
769,3465,4230,-3599,-1129,75,-1681
770,4700,5831,5456,1305,-1136,256
771,6054,3701,1889,-435,-1273,-519
772,-2583,1870,-493,851,845,-658
773,-3141,3757,-6073,-1048,1777,-147
774,-2595,1159,5963,831,-1256,-1955
775,5219,-4603,-1746,-443,-183,1332
776,-7799,-2071,-88,-1769,-1293,-857
777,931,6004,-2921,238,-237,1091
778,6622,5269,1719,483,298,1644
779,-502,3103,1170,-194,-342,-798
780,2303,-4308,1612,1395,-1729,-57
781,-4082,2914,7039,1662,-1657,-1359
782,-3742,4843,7549,-307,-1900,-152
783,386,-2180,2243,251,-786,1973
784,-4160,-3923,-753,1395,1291,-1753
785,5254,-3036,-4150,-1086,1489,385
786,5354,3965,7174,989,-261,-1868
787,2459,-5362,-6375,1159,4,1304
788,-2551,3510,1248,139,779,-657
789,5837,-4494,-4526,732,-341,1394
790,1393,174,-114,1066,152,-98
791,1994,-3306,2444,1054,887,238
792,2949,6642,-2313,1761,117,825
793,-6345,-4104,7839,1571,-873,847
794,6696,-4182,7930,-1636,-1500,1536
795,3312,5097,-6283,-501,-130,-202
796,-2454,-5447,-7615,429,-1799,-982
797,-4416,-4887,199,-147,1167,1911
798,-7064,7860,3515,1754,-1021,394
799,2064,-7551,-7387,1884,-1853,40
800,2246,3260,-4770,-677,362,-1781
801,-3919,-7938,-5334,363,1175,-31
802,-5366,-7203,-6044,-1634,-578,-1096
803,2958,2766,6440,-1713,1191,1395
804,-3809,4335,-1552,1248,43,397
805,-965,531,-3707,-1476,1950,-322
806,2391,4648,7956,-1561,1006,1439
807,-4198,7025,5029,-216,791,1062
808,4093,-176,1302,-444,422,-703
809,3815,7448,1901,-1344,-87,-269
810,-2655,-2496,-4548,-587,-1400,-143
811,5823,1386,7976,-1966,-916,-413
812,-6759,4278,7368,-386,-940,611
813,2508,-2571,5303,-411,-623,968
814,4489,5280,-1882,725,-944,1788
815,-276,5474,1377,678,-622,-1302
816,-4369,7145,6776,-994,135,1138
817,7240,6044,-5771,1879,1403,1020
818,-3466,-109,968,459,-98,-1555
819,-3537,2335,4980,864,326,151
820,2506,650,-2688,78,716,1259
821,4058,-671,1956,-256,1725,343
822,-2520,3923,-6996,-120,-1523,-501
823,-1251,6120,-3562,-258,-415,-1387
824,3772,-1242,3123,1640,880,1276
825,-5205,5300,2467,103,-1984,1931
826,-5928,3828,712,888,-710,1330
827,4973,-5816,1136,-1659,-538,-1581
828,7913,-1923,-5026,-965,-1010,-222
829,-1266,538,-3666,-1034,-1056,1930
830,1114,3793,4120,-1981,-1988,1115
831,-949,722,-2727,-1411,1007,-163
832,3578,-1595,-3115,442,-1323,-692
833,4515,6751,-4513,-224,-6,770
834,-2836,5229,506,-113,-1781,740
835,2869,3675,7005,15,52,1266
836,-566,-1302,7716,-960,1576,-1021
837,-3719,3801,3081,444,337,-1969
838,2625,5830,-1938,-619,573,1131
839,5192,2783,3101,-196,-252,-554
840,4668,-6420,5374,77,-587,-451
841,1309,-6821,972,-1277,1505,-1827
842,540,3351,691,598,31,-1445
843,-6476,-4418,5007,11,-552,-1525
844,-2189,-4871,-3742,-11,1246,-231
845,797,-7671,2837,-1124,-1539,-340
846,7530,-7662,-4800,-585,881,279
847,-763,-474,4101,1019,1246,1792
848,812,393,3207,428,1499,78
849,6003,5262,6403,-781,-1322,709
850,-6083,303,2267,-1638,1284,715
851,-2573,1474,115,1626,1955,-1804
852,-5651,5096,4338,-453,-206,-850
853,-7043,872,-7640,1040,-291,479
854,3994,-6201,-3846,79,1719,346
855,3535,-4170,-3117,1751,441,-1721
856,-7302,848,4645,-1039,1907,933
857,-595,4543,-7368,-463,1079,1602
858,-4641,-3419,-5337,-1791,-1455,1204
859,2685,-5229,6675,-1868,803,1199
860,1452,3081,-7401,-202,1788,1060
861,-3631,1128,3748,-1790,327,-1924
862,4094,-874,-5655,-513,-1144,-1499
863,-71,7891,-5805,1325,1511,1800
864,-2928,-5408,7896,577,1483,779
865,-4609,4588,5203,-1031,-465,753
866,-3788,4600,4331,-769,-292,1736
867,4829,-7973,-5663,-1510,-786,1842
868,-3930,3934,-7186,603,730,1365
869,1194,-3063,-6365,-588,206,311
870,-959,-4950,3521,-937,52,1415
871,6865,159,2048,-805,1103,1164
872,-2819,2489,-1847,-1791,-1949,-851
873,7386,6136,-5084,1635,1610,1546
874,1756,5830,-1297,1245,-731,-669
875,-6056,-329,-464,1507,-1164,183
876,-7302,3734,4374,-110,781,1230
877,-2792,-2962,5159,-387,-1535,1758
878,1182,-5219,-3721,1060,1308,977
879,6775,2021,-6001,1648,882,-358
880,5782,-2310,-7303,666,870,1241
881,-6073,545,-1923,139,1241,-1476
882,-1322,-2735,-695,-1565,-1863,-1079
883,7122,-3047,4028,-455,1523,-1981
884,-5948,-692,3719,615,1662,1241
885,1139,-6123,-2979,829,1864,-1417
886,6810,-2351,50,675,-1656,-654
887,-1386,-3920,-3121,-102,656,1151
888,-61,-4382,7461,-188,-47,1176
889,1938,-2782,-5348,-405,1298,-1386
890,-5106,4227,-4171,311,-684,979
891,7720,1386,289,1674,-1518,153
892,5209,-4245,-7599,-1619,624,-1661
893,5029,-5922,-3835,-517,1825,212
894,-6363,-5134,-984,-737,-1597,1241
895,-6774,663,-6046,-1872,900,-1102
896,1042,2041,4934,-85,222,-824
897,6213,899,696,-217,-493,368
898,1189,2506,-2203,1360,437,-1491
899,1701,3157,-1346,1271,-284,1584
900,4220,-2806,-824,1298,-880,-641
901,-713,-2254,-1939,717,1588,381
902,6456,2843,-68,-695,1844,-1515
903,565,557,3384,1346,673,599
904,2296,-1081,-3449,-1613,1275,-1666
905,3090,3137,-7595,-1064,1940,-1574
906,6403,5513,-1702,1673,1857,-120
907,-6937,4164,2087,1515,441,-1663
908,5235,-2172,7523,681,634,-1051
909,3508,4398,4130,1234,-1448,-998
910,-3029,7703,1455,592,-338,-1472
911,-1543,-3779,-4013,-985,1582,-373
912,-228,-5598,-2060,-485,1357,-736
913,-4007,926,-7058,1882,-1398,-1364
914,7471,2514,3610,1008,-458,583
915,-6533,5502,483,1140,-1634,-1119
916,-6513,-1372,-1635,-1935,-547,-293
917,1419,697,-2814,1039,-209,586
918,496,-5688,1417,-793,-1577,-330
919,-6187,936,653,-1231,1102,-378
920,1094,7182,261,1479,313,-1860
921,3094,-1131,371,507,1580,-1572
922,-4342,5988,-2153,-1238,-1369,-1783
923,-5171,5869,3111,144,483,-1954
924,-6670,5437,-5413,248,-1793,-1316
925,-2492,4082,-3248,365,903,45
926,4442,-2147,-6276,736,448,533
927,-8,-6150,7893,1602,1023,15
928,-4658,-6431,-5165,894,761,1173
929,-983,7966,-1567,-339,-60,912
930,2453,-4667,7138,-104,532,1820
931,25,-7701,-2222,245,-334,1248
932,-5964,2467,6021,594,1092,1805
933,3041,4909,-1569,1952,1844,-1558
934,339,3642,-6977,-642,1740,924
935,-7167,7738,-2067,-1854,1197,250
936,6059,7223,-451,-258,-1841,-1943
937,-5908,4997,-6404,1412,973,1174
938,-3670,1501,3689,-36,-842,1391
939,6722,2391,3598,-1637,343,693
940,4942,3231,2754,1732,524,170
941,7372,-151,7824,-1027,-370,1181
942,5824,-6723,-5001,-1043,-1312,-292
943,-7135,-3264,4988,1979,-971,-1760
944,-1152,208,1277,1808,43,3
945,6991,4345,-6729,-287,1798,-13
946,6580,7184,-4484,1076,226,-1741
947,2538,3197,1479,-1997,605,1485
948,2278,1792,-4850,394,-1742,972
949,-7679,6457,-4218,1420,-7,950
950,-7090,3574,-2078,-1936,819,1870
951,-1736,3319,-3600,1835,1259,-1726
952,3252,3036,2096,210,753,-474
953,6889,-2754,-6846,-1074,-1096,-440
954,4860,-302,5952,-63,246,-882
955,-7126,4537,-7578,955,-52,-1217
956,5189,1358,-2761,583,535,327
957,-5447,-2265,3872,1510,-382,1638
958,7064,-4462,6364,-743,89,-249
959,6839,-5985,-7128,774,-1174,1475
960,-959,-6960,-411,-867,1540,782
961,-6837,-1161,-1382,-1162,1626,-895
962,4854,-3951,556,-863,1113,-648
963,-5707,-920,-6853,-1907,1650,786
964,6478,6701,-607,1497,-1396,-186
965,-3056,-2386,-2861,-888,-581,-1591
966,-2563,-1961,-5142,597,408,984
967,-364,2029,-6620,502,-413,1138
968,-6633,5935,2702,-1897,1714,1476
969,2306,5883,847,323,-107,1877
970,6951,4551,-1718,1057,1241,-1076
971,5485,4477,778,-592,1583,-1287
972,2241,7056,-680,1186,986,1306
973,-6092,6365,-4510,-1679,53,1735
974,-7784,-2479,5833,1103,-895,1913
975,-2254,-3468,-619,1544,-894,175
976,-7613,7149,949,892,945,794
977,423,3898,5456,537,1052,-131
978,-314,-5982,2791,1115,-689,1031
979,4288,5179,-7569,1648,684,958
980,6790,-2863,2854,-1726,415,604
981,-3990,2146,-5416,645,919,722
982,-1522,2650,3666,1327,-1781,913
983,-2994,7202,-6155,716,229,-1090
984,4682,2252,4049,-1336,-1668,-1658
985,-5874,2052,-1119,-720,-454,-1294
986,4450,3790,-5737,1246,935,393
987,2167,-2054,629,-1555,102,-1887
988,1042,-7457,-2245,1632,-64,-1071
989,-4991,-4142,7485,-1914,1365,1881
990,-2739,5762,5689,782,-1741,-526
991,5425,6374,397,1302,1453,176
992,-2300,-7563,3822,468,-840,1257
993,-5613,115,-2246,-1821,-53,-260
994,-6136,5213,7216,882,584,1633
995,286,-3140,3136,-1538,969,1263
996,-7559,1792,21,1446,1509,-849
997,-1945,-5192,6803,1273,-247,1377
998,4487,5543,4107,-1304,-101,-1423
999,-3107,1,3165,-1676,4,1207
1000,-595,3628,-7576,-1345,-873,981
1001,1307,-4697,1165,-1792,-711,-127
1002,-5497,-5765,7989,-1782,839,-166
1003,-4224,957,3766,-1805,-868,934
1004,-968,-2119,5466,-1069,1015,-744
1005,-6320,-3705,-2207,-1922,-735,-1722
1006,-2483,-6407,690,-1108,-1872,-1007
1007,-1991,7363,-7651,879,-90,648
1008,-5909,5758,509,963,-407,-373
1009,1445,3974,6647,1977,-1251,1659
1010,4328,2678,6367,916,-274,-1615
1011,-6756,-7495,7580,1397,-1314,861
1012,-5896,5908,3968,1021,-455,125
1013,-2874,-3251,-4916,1294,220,-603
1014,-1654,-613,-948,-536,-1871,-1537
1015,6236,-131,-4362,1645,909,1497
1016,-6307,435,6217,1838,-1972,-611
1017,-4962,-1057,3887,-990,-358,-1853
1018,6044,-5759,-1130,-1667,-1587,-944
1019,3639,-2896,-6147,-1497,-48,-925
1020,7016,-2069,3175,909,1487,-548
1021,3630,-5336,-1916,-1405,-414,1957
1022,-1752,-3567,563,-1782,-1304,1702
1023,-6897,-1147,6990,-1461,-1323,-554
1024,1941,-5199,2825,-1665,23,74
1025,4792,7401,-4196,-924,1990,-1238
1026,-7079,7306,4310,566,980,-958
1027,560,-5531,3182,-912,-630,1546
1028,3399,570,2129,-1125,-854,946
1029,-5897,2621,-7889,1388,1490,-164
1030,4071,5308,4986,-837,457,1340
1031,124,-4736,-7071,256,784,269
1032,5156,2633,-6798,1351,-1105,-1490
1033,1251,-6827,-1422,-400,-1576,-1168
1034,6600,-1522,-4353,725,-1101,285
1035,2640,3150,455,-194,-1164,-1796
1036,208,-7425,4754,-6,131,-1184
1037,790,2716,1754,-1631,-1403,205
1038,2720,-2824,-6878,1527,-468,-1678
1039,1174,-799,3079,691,30,1259
1040,-3792,2730,657,-114,-1595,-1550
1041,-1215,-2500,-2563,1242,1946,428
1042,-5522,2604,4613,-195,-949,-694
1043,285,-4690,5117,-1943,1814,-9
1044,6673,-6659,5100,-207,176,-1387
1045,7872,-1063,2191,668,-140,-1711
1046,3216,-6082,3434,-833,23,-1224
1047,4713,6280,383,727,-1411,1423
1048,260,-3266,-2518,462,489,-1304
1049,5839,-6910,-688,-1967,-1493,-1833
1050,824,-7798,-6036,1313,-363,-1535
1051,7487,-287,-6009,-1635,-1805,-481
1052,-6674,7129,6176,1564,68,601
1053,1281,-4824,641,-957,1917,1255
1054,-5050,1765,-6700,358,882,1764
1055,6004,-1950,-737,-893,-47,-3
1056,-6075,-115,2065,693,1992,1927
1057,1574,-2584,-7982,-1498,-1583,-433
1058,-41,-5458,-5101,-1527,957,-823
1059,1956,1055,-837,-849,-279,-5
1060,4283,2461,7996,-1955,1671,1076
1061,6837,-6817,2132,-1632,-326,1901
1062,-5238,-3147,7109,-1122,1992,-616
1063,1450,-6377,-660,-1548,1843,-1418
1064,6767,4206,-6323,-902,-860,1363
1065,-3324,-5566,4552,-363,-489,-1388
1066,-2108,391,6637,499,-1143,-872
1067,-3373,7817,7224,1602,-1558,833
1068,-4696,-7855,-1230,-18,278,196
1069,-3038,6314,2103,1720,-117,107
1070,691,6677,-3486,721,1749,1731
1071,-3706,2047,6862,-922,-211,-671
1072,-7193,-6659,-6834,1502,-1085,944
1073,296,-7547,-5681,868,-1089,600
1074,-2944,2434,-3173,-115,850,-1635
1075,1569,-329,1472,-378,-1582,-1769
1076,-2878,3713,-996,-1187,-554,-1172
1077,-925,-5551,6528,273,-1180,1870
1078,-546,4279,-7593,924,922,803
1079,5774,-1722,-140,-1480,447,1554
1080,4175,-1069,-938,-262,-616,-499
1081,-6511,5787,-2897,-1633,-810,-1218
1082,-600,-4916,374,958,709,-477
1083,3137,-3088,-7806,1915,1549,-933
1084,4157,-191,-1759,-1008,-230,-1703
1085,6499,224,2303,-1185,1425,-1344
1086,1058,-7753,6320,-205,612,-1255
1087,-6266,-5546,-2044,-1539,1691,-799
1088,3858,4609,2716,-1169,-1416,-1086
1089,711,2134,-5072,-414,562,664
1090,-239,2437,6743,-1640,718,1183
1091,7990,3834,-356,1653,-242,1882
1092,6390,-1531,-4703,-1836,-262,786
1093,5641,3767,-4059,-1636,-1622,-1461
1094,-2216,-5950,-684,140,1913,-1927
1095,-6110,-2336,-2363,-1199,518,1690
1096,-955,6344,-7936,247,-1519,-495
1097,5930,-6174,1934,-233,-730,811
1098,-2397,865,3205,-1089,-1579,-895
1099,825,3401,-1570,-1404,-481,1464
1100,-7359,6501,3887,1022,1100,-709
1101,2444,-2819,6087,203,-1291,-1169
1102,1251,2799,2479,324,1584,1026
1103,435,-4876,-6292,357,-1812,-1062
1104,-4091,-1176,2842,-295,-441,-851
1105,-3284,-4560,-6111,1819,-1496,1815
1106,-7498,1934,-6381,1264,1486,-189
1107,1372,4821,1835,706,-1031,1490
1108,506,6287,-2425,1904,1458,-1258
1109,2116,4583,-1696,336,-201,-1622
1110,3418,-5017,6981,-413,1562,196
1111,-5196,4688,5660,-194,163,-1887
1112,5238,-7185,2690,-233,1258,625
1113,3146,-3748,1787,701,1049,413
1114,-2049,40,-7077,-763,761,1239
1115,-6012,7814,3798,342,-688,630
1116,-6031,-1902,-666,1849,-944,1520
1117,-5608,-7749,-3789,529,409,1580
1118,146,7057,-67,1984,-1642,-1431
1119,7100,7102,-5216,1625,254,1044
1120,-3550,-6434,4667,502,1489,-543
1121,4501,3133,-782,-486,-578,-516
1122,4491,-1707,-4041,-1810,-1355,553
1123,-4447,-4209,4283,433,1850,-1282
1124,4552,2146,2164,287,-1368,1352
1125,-7705,-6329,1345,1146,-156,1532
1126,393,7268,3538,1834,-660,1292
1127,-477,-234,-555,1562,-492,678
1128,1092,-2582,-7731,1510,858,781
1129,566,-6333,2189,-1919,1738,1699
1130,1441,-1337,-251,-552,-863,888
1131,1840,6688,2961,1105,-1638,-295
1132,5263,-4576,2740,-1138,-1006,-1791
1133,-1188,3410,2600,-643,1466,-404
1134,-1268,-4093,2351,-1728,665,917
1135,4209,4283,-5646,-791,363,-94
1136,6802,-7693,3396,1485,-396,-1488
1137,5859,7888,1184,751,1592,1399
1138,-5515,5084,-7711,443,-1912,1080
1139,-4313,-3841,-610,-392,-858,-184
1140,5433,5106,6929,-330,970,418
1141,-7721,6541,5193,78,300,-812
1142,-6246,-1958,-5354,-439,-1837,-1219
1143,6043,7877,-3520,-972,-1722,1811
1144,5763,3827,5238,-49,-34,-296
1145,6247,-6409,-5781,351,1399,-858
1146,6500,1031,6416,397,1944,-872
1147,-2771,17,4214,1749,1051,-336
1148,2362,-3008,4315,-998,-112,200
1149,-4601,-4007,516,-582,1258,-1502
1150,-4241,2333,-532,1458,-827,-1546
1151,6853,-6933,-5691,112,1518,203
1152,1276,2640,-4524,-1305,274,458
1153,4030,3419,-4862,-1778,-27,1650
1154,-3681,6574,-3247,1596,301,-1459
1155,-521,7929,-4407,745,-784,1592
1156,7253,-5482,-1529,971,1085,1389
1157,-5564,-4324,-2466,-94,-76,-1664
1158,2760,5692,-3661,-1591,318,-1559
1159,-4831,-953,-5333,-1735,-1445,-1938
1160,3869,-1335,7791,-1126,-759,1091
1161,6364,30,-5260,687,325,-859
1162,2875,7252,-7360,-613,-540,519
1163,7624,386,1723,1752,-1639,298
1164,1764,-1128,4446,328,1885,-1423
1165,6527,-3289,-5159,1250,-327,-435
1166,1853,3111,7232,-226,-1200,1116
1167,7810,-2354,5324,-839,-1027,-105
1168,-3978,6194,-3338,-1984,294,454
1169,4758,-6968,4239,119,-1835,-1812
1170,1079,5051,-3523,980,-473,-1469
1171,487,-4267,7851,-1094,85,1133
1172,5471,226,-6023,-224,-1641,-1303
1173,1092,-3830,2967,1157,-917,89
1174,5230,1631,5210,-1622,-835,-1821
1175,-624,6919,4949,-1274,1338,1905
1176,-5718,6115,-1069,-1228,421,-1737
1177,2137,-4389,-4391,-1500,-1714,1516
1178,7702,-375,6405,-579,-1321,-1219
1179,2695,2579,-7764,1846,1427,-733
1180,-4574,-4076,3188,803,539,1712
1181,-7064,1317,7338,-397,-1751,821
1182,3600,4580,-2035,-268,69,-265
1183,-7937,-5133,-6675,1289,-1197,-456
1184,-1291,3032,-6675,744,1785,1584
1185,6430,-83,3877,-972,902,-1303
1186,-329,-4456,1537,113,-1580,-1553
1187,-2844,-6843,3080,-302,-811,158
1188,-2663,-4404,2958,-1790,149,-952
1189,-4056,-2649,5286,1596,-1299,-1733
1190,-2640,-1205,-2640,-1222,-1250,1980
1191,3084,-7673,4974,-477,1945,1830
1192,7847,6332,6406,-820,1387,1634
1193,-2109,3712,4247,1757,-221,-1456
1194,1966,4671,-3323,-201,-1745,-1408
1195,743,-6876,-2745,1501,-499,562
1196,-4906,6053,-5032,505,-1470,389
1197,4187,2692,3708,1164,-311,30
1198,-1717,-2207,-2139,-457,-1554,-385
1199,-1407,-1228,-1671,1998,-971,1841
1200,1280,-4770,7083,1778,-1361,1857
1201,-7933,1106,-6069,-787,941,-92
1202,2210,5882,-6151,302,749,-1830
1203,-5856,-5492,-439,774,702,779
1204,4180,-369,7256,-789,934,695
1205,-4386,-6028,4805,-982,-787,-124
1206,6349,7274,5398,1088,1325,-1023
1207,-1901,7658,4103,-643,1399,1849
1208,-1460,1948,-2538,-657,1142,-1037
1209,1028,3210,-4131,-318,1683,1459
1210,4138,-4150,2376,-1424,787,-518
1211,6248,-1379,129,-491,-423,-143
1212,-3760,-538,7925,-542,-578,1864
1213,2209,7928,-916,-10,894,860
1214,2319,-5738,-3829,702,755,-1120
1215,-2274,-6288,-6537,-728,561,-457
1216,6848,-3225,-5519,-891,-1960,692
1217,-3688,-5674,4790,-629,939,-1940
1218,480,-3815,-1955,-1133,-1344,-1088
1219,6686,-389,-6913,348,-1300,1280
1220,5378,4544,199,-1523,1891,-1035
1221,5807,-2041,1760,846,446,1952
1222,751,-3250,4278,-1657,-753,337
1223,7300,-7359,-7966,482,495,-423
1224,7515,5036,-7079,-885,-1034,613
1225,6928,-7792,-4898,367,653,-1048
1226,2142,-758,502,-1835,103,375
1227,-1088,-4293,1303,-1451,528,8
1228,469,-2661,6450,842,-189,-1679
1229,261,-6200,5582,871,-1429,314
1230,-4217,3712,-2409,889,973,1327
1231,4606,-6414,3511,-1127,205,-1335
1232,5789,5861,-6056,-1636,791,-1332
1233,-6310,3675,-4761,427,-1001,182
1234,-3619,-7052,4028,-599,-35,-730
1235,6594,-1902,7985,1773,-1994,-243
1236,555,-5337,-3926,76,-199,-685
1237,4174,5548,6428,1304,-1482,-727
1238,2511,-1426,3735,92,951,101
1239,-5401,-870,6048,104,32,1612
1240,7943,-4606,1298,95,1803,-1736
1241,-4998,925,-5353,-1422,-1384,-1929
1242,5660,2030,-3246,280,1751,-1268
1243,-6498,-4979,-3361,-395,-1142,-1582
1244,-3080,5742,3693,-624,-473,-616
1245,-7517,-2482,582,118,-1074,141
1246,-180,-3228,-832,1341,-1894,1722
1247,5467,4349,4935,606,1836,-1582
1248,1220,-6319,7949,-1224,-1173,595
1249,2159,1886,1180,-1147,756,-1288
1250,2834,-4073,3931,1918,1757,1177
1251,-5000,-4703,7157,909,463,1578
1252,-6857,5324,574,355,701,1956
1253,7359,6646,-7631,1358,1483,1985
1254,-3471,3917,-3821,967,917,1133
1255,-3530,1985,-4673,1417,-1255,1806
1256,7847,6976,6269,-963,-467,-1369
1257,384,-1725,3001,909,871,1147
1258,7107,-5483,-1822,-255,-1169,-170
1259,7231,-2935,6773,1144,-463,-1823
1260,-1113,6490,5236,-971,714,429
1261,-3500,-1858,-7021,535,-1578,-1137
1262,6142,2900,2904,-797,1711,781
1263,1928,2416,-2222,1720,-1739,1024
1264,-1199,177,2588,1771,776,888
1265,-6280,-3021,-4305,1237,-904,-112
1266,5446,-2156,1215,-735,-1963,1978
1267,-4418,-3715,-3976,660,-1886,-1664
1268,6253,7840,271,577,1412,-198
1269,4544,291,-345,1152,1856,-564
1270,-5892,1741,1621,376,-1410,-1847
1271,2201,2869,4919,708,-122,1998
1272,-2900,-2660,-5528,301,193,-1483
1273,-5256,2918,-959,-1062,1495,-839
1274,-4264,-3569,1090,-1609,393,915
1275,5676,6380,-1668,-1491,530,-1007
1276,-3114,3524,5493,1209,-451,163
1277,7373,-7885,4367,-1026,-431,-699
1278,6580,1555,6321,-153,1327,-1447
1279,-6034,-7598,-1591,-490,1344,-1275
1280,-1829,-7485,5214,-512,692,-1652
1281,6496,4936,-2398,-1470,1885,1649
1282,4918,3645,5323,578,1415,-1288
1283,3817,3275,7656,-1504,1259,-1358
1284,3287,2350,-3893,1717,666,-267
1285,1033,5906,71,-353,1806,-1527
1286,-3312,-4231,-3849,826,-906,-608
1287,-7205,-2636,1422,1398,236,-21
1288,-609,2727,-7210,-1232,1560,341
1289,6049,-6967,-3432,397,1257,1605
1290,-7106,-4237,-6275,-461,-398,888
1291,4101,69,-6419,1279,1302,-670
1292,280,-368,2968,0,200,1415
1293,-945,-3175,-3732,713,1767,1876
1294,2099,-1579,-5264,1001,-98,-326
1295,-4708,7293,4251,1812,665,-1351
1296,-5860,-3952,1701,571,1677,1568
1297,-381,182,-3030,-503,286,1092
1298,2715,1040,-5158,679,1165,-904
1299,3690,7980,6556,1613,1319,1935
1300,7213,7764,5304,1468,940,-1424
1301,-6722,4039,7154,1804,-1038,407
1302,-1508,-3416,5460,1515,79,-613
1303,-442,2083,2423,1896,1532,159
1304,-4183,-5498,548,-780,-1445,1738
1305,3001,7,-1044,-1755,-1366,73
1306,-2480,814,6842,1611,6,544
1307,2656,3520,5279,1708,461,565
1308,-2681,-1413,-184,-860,1524,-1117
1309,4387,3065,4803,688,-243,-1664
1310,4703,-4632,-1400,820,629,1569
1311,5121,5497,-6221,-24,491,1956
1312,3277,-437,3267,1757,334,950
1313,860,6520,6985,1107,-1084,-1334
1314,2590,-2219,-2442,188,-722,236
1315,-7533,-7275,2183,1534,-1079,904
1316,-1845,-7035,-4592,-162,-1811,1800
1317,2275,-1153,-5027,-1248,-81,-1655
1318,7313,7984,-4773,-1088,-396,847
1319,1312,3551,-7260,-1077,-55,-1524
1320,7987,921,-1030,111,-1268,-226
1321,-3068,2031,3452,1651,-1512,1386
1322,2742,3575,400,483,-711,205
1323,3233,5039,-6043,1877,1289,-1683
1324,-4200,-4774,936,1504,170,-698
1325,-975,-2338,2603,-1887,-1574,-240
1326,1357,-4698,-7170,-44,199,1756
1327,-1790,2039,-3922,-298,1174,919
1328,138,-2476,3296,-1626,-478,1500
1329,-4912,-6087,2995,-27,-1207,-864
1330,-1251,-4549,-6850,1937,-1984,-1008
1331,-301,-3296,5371,-292,1271,1700
1332,7740,-184,7789,-1995,1783,109
1333,-1337,5937,318,1416,1783,648
1334,225,3992,4507,59,818,-1102
1335,-5098,4992,-393,1042,-1450,536
1336,-1215,-2119,5939,-1594,-1452,157
1337,3288,3327,7119,-347,323,611
1338,-1737,2363,-5581,40,-966,1024
1339,5208,4016,5731,-1422,-1015,912
1340,7206,5876,-4285,-15,1249,435
1341,-5514,-3956,186,224,799,-393
1342,4124,1944,6003,-1984,1167,1929
1343,2225,-5541,4590,1668,-374,941
1344,6138,7151,-2980,-1297,-34,-762
1345,4963,-2415,6437,-1457,216,-1005
1346,7012,-4600,-6174,-1625,673,948
1347,7122,5161,-3674,1014,-871,1917
1348,3314,4069,-648,829,-28,1176
1349,1353,5644,-6197,-696,1707,104
1350,2733,-1724,-939,-1198,-469,1795
1351,-4381,2512,5838,-520,-872,-629
1352,-5912,-3668,3115,485,926,1625
1353,2004,841,1127,1211,433,445
1354,7331,7557,-3553,256,1930,-1152
1355,-6846,3627,7699,1359,-1840,1843
1356,-4810,-7013,6622,-712,-804,-835
1357,1134,352,-2195,-1425,-1313,-100
1358,-1837,-1513,-492,-190,1920,-1163
1359,-3545,4530,4773,728,-1610,-1980
1360,4435,151,3938,-268,-386,-157
1361,-4974,-1581,-1711,-204,-740,1298
1362,2965,3492,1428,-46,-1505,1804
1363,-5325,4405,1509,1905,-484,-1537
1364,-4863,6029,118,732,-26,-1481
1365,4458,1393,-2885,-1824,-1683,-256
1366,524,-4873,-1456,1495,715,-1468
1367,-2948,-5332,1910,-1994,501,1409
1368,-4711,4535,1080,-726,291,-1294
1369,1759,-2324,-3500,1808,-1968,-1509
1370,4441,5695,5569,1366,-1395,-547
1371,7086,-6054,4171,356,1778,-360
1372,-4127,329,3097,-1119,1990,1581
1373,4594,-6487,4532,937,-1282,-1892
1374,111,3595,-3580,-926,1097,311
1375,7336,-7391,4017,-1495,-126,-875
1376,2470,-1026,3411,1243,-1871,729
1377,1121,4170,5246,-1825,1399,-1374
1378,6216,-2424,7197,-1247,-1384,1010
1379,-4032,1473,4059,-1885,1646,558
1380,-6073,5016,-1150,-676,-208,-228
1381,-1197,827,-7771,501,928,-690
1382,7834,1521,-6035,1496,723,-1880
1383,-3709,-4513,6521,240,-1737,647
1384,913,7088,121,787,-297,-1213
1385,1443,-1624,357,-727,-1165,254
1386,4313,-6009,-1705,516,-1680,-1712
1387,5749,4350,839,-92,-1746,1620
1388,-1318,-5372,240,295,939,-1446
1389,1788,6057,6445,-1910,-395,-314
1390,3791,530,6119,1038,-1419,1096
1391,-661,-1851,-728,-1852,401,-1056
1392,-2942,4740,4450,574,-434,44
1393,5762,6993,-6941,882,-1449,-963
1394,-1906,-7402,6259,168,-930,-497
1395,4055,2953,7495,776,1469,1671
1396,2615,-3874,2535,-605,969,-1448
1397,2944,5543,6249,-1349,-1163,522
1398,-5568,5835,7656,-1362,1379,-108
1399,-7415,7807,-4740,276,1496,-1015
1400,-3265,5596,644,-1942,1632,-1203
1401,3731,3953,-3629,452,-903,1738
1402,6722,1209,-6479,-1736,1024,835
1403,-299,7071,4962,-621,743,1902
1404,-5417,3092,-6952,-1932,790,605
1405,4439,-1294,6348,-1020,1266,-495
1406,1654,-3587,-586,-372,-1114,-454
1407,4863,-1901,-6060,766,1644,-1982
1408,4130,1658,-2428,845,504,-53
1409,-6403,4986,-3203,256,-3,-210
1410,459,-1705,4265,-212,1830,-380
1411,-3609,189,-5289,-1883,385,-1326
1412,-53,-2544,-1771,-1335,-862,546
1413,1897,2638,6563,1331,-605,1752
1414,6685,-6615,-2062,1843,-50,-1135
1415,-4593,5220,411,-342,-821,1096
1416,636,-1676,4174,-866,-1375,1548
1417,3470,2740,2067,331,-952,112
1418,4891,-1773,3965,1214,1865,-318
1419,5571,7244,-6014,-432,1019,-764
1420,-4332,-6274,7126,-1754,-1105,1703
1421,-954,3411,-6509,-98,-1701,-267
1422,-216,7322,-2955,-1626,-872,108
1423,5802,-3835,2133,1778,1763,437
1424,-4607,5575,4068,671,1969,1139
1425,2635,5293,390,-1549,-1822,157
1426,-5459,-3318,7190,1985,-1052,-141
1427,-4165,-3264,-281,567,1937,1509
1428,7558,-2641,3564,316,-1646,-1179
1429,2580,-1802,3188,-1042,124,1529
1430,-2508,990,598,728,673,1791
1431,6588,-4974,-773,-1179,974,-597
1432,4825,2515,7290,1343,1014,-1967
1433,1566,-7501,-4475,-1244,1971,228
1434,6149,4904,6172,-600,482,287
1435,-7043,-867,3147,299,-915,743
1436,7978,2785,-688,-1309,-1643,216
1437,6382,-3030,-5515,758,-1672,-1079
1438,7209,373,5285,662,-1148,-1059
1439,-1859,2388,968,1578,1845,438
1440,-4126,-4223,-7428,301,1915,657
1441,1174,4570,-1287,1548,-795,-726
1442,-69,1369,2645,1226,254,-833
1443,2884,7644,-170,227,-1573,289
1444,3927,-1232,-2884,1365,-1166,1175
1445,-5513,-5552,-7178,-361,-117,1201
1446,382,676,-6545,1679,1226,71
1447,7905,0,-4154,-983,-640,-1481
1448,-604,-6414,4214,-916,1205,-1965
1449,5186,5202,3516,-279,184,-805
1450,4417,1701,-7939,-445,1816,-101
1451,1276,7673,4760,315,1395,514
1452,-2919,4833,7739,-245,-1392,547
1453,-4387,6843,3243,1977,-1954,-1183
1454,7605,171,-7675,855,1063,104
1455,1734,-2255,834,1750,1792,-208
1456,-2999,-978,-17,-124,1817,-1576
1457,5604,-4322,-6940,-1947,1437,-107
1458,-2440,5056,7283,-801,963,780
1459,988,-7325,-4048,520,1786,250
1460,-1759,-1069,1348,187,1212,1311
1461,788,-2569,-519,347,237,-886
1462,-1145,5432,4826,-382,-850,1312
1463,5205,6752,3381,845,458,-1658
1464,-5845,-5491,-7463,1408,835,-1863
1465,3229,626,3472,1295,420,-651
1466,-6739,45,-5398,682,-305,-458
1467,3126,1925,-6164,-352,-26,-1974
1468,7856,1083,2482,-1611,-362,1943
1469,2834,-7493,-653,1355,-638,-1935
1470,-7711,-4947,2165,1582,-203,-1620
1471,7716,6539,-6675,1330,-526,979
1472,777,6966,-6884,-812,796,-1138
1473,-5898,2866,-528,211,-57,-716
1474,-1791,-2826,-7612,-33,-1606,650
1475,5749,6153,2533,-367,-1325,-581
1476,7095,4602,-2244,-1317,1407,-1934
1477,-4839,-3926,-6188,-513,-1898,859
1478,6289,7570,2510,-1616,1822,-755
1479,-1682,-2750,-4403,-269,361,306
1480,-7297,5278,-277,1133,408,-1942
1481,-5114,-809,-558,1538,-1836,1055
1482,-4246,5691,-5216,-1639,978,1563
1483,1821,4901,1317,631,346,-56
1484,9,-2986,-1106,1581,334,-1499
1485,-4304,7365,5747,1101,282,1837
1486,4629,-2251,-2452,1632,128,225
1487,-4534,7159,-2186,-1376,-1835,321
1488,3236,1571,656,631,-797,1242
1489,3680,4514,1021,1894,-738,-703
1490,-3252,1865,1830,-1462,-1561,-206
1491,5109,1088,3034,-1788,16,-666
1492,-3042,-3119,3254,-1786,-180,-1595
1493,1935,-639,6633,792,-697,638
1494,-3623,6762,3744,456,1877,-1769
1495,-1760,-5722,-7310,1890,-189,-584
1496,7796,1713,-662,-185,-1112,1482
1497,6217,-7912,7428,1713,-565,1159
1498,-407,1143,2188,378,667,509
1499,-4415,-5936,-3641,1707,1848,-1161
1500,698,-6425,3356,-1073,936,1746
1501,5042,5655,-2918,-1503,-49,-1412
1502,-5774,1694,-3567,1960,-780,-903
1503,2250,5055,7383,1794,1435,523
1504,-450,-6435,187,-1745,1328,-804
1505,5349,-5800,4964,1594,674,-353
1506,6728,4403,-7937,-1411,88,-29
1507,-2332,3505,7970,1275,-836,15
1508,-4627,4151,557,1680,-1037,-159
1509,-3046,2383,-2776,828,915,1354
1510,-2550,-2310,-6726,-585,-639,-1374
1511,5424,-3887,-7606,1421,-1386,643
1512,4389,322,1356,1792,1730,-569
1513,1108,6394,-3309,-759,206,-1492
1514,-7497,6239,1013,-1617,-511,-875
1515,-1602,-6545,-2185,2,-1323,-176
1516,6336,5500,5915,-727,1473,-1338
1517,-5241,-4470,-5132,-886,38,-440
1518,-6983,-4953,2633,1517,1779,-718
1519,5714,-1838,-4152,1307,-1765,1222
1520,1824,-6626,-3332,1289,1369,-1060
1521,-1869,7168,5152,-80,1674,641
1522,3412,-4787,1307,-574,-1045,-669
1523,-4286,-7437,2256,-949,136,-1879
1524,5512,780,-2547,257,1286,70
1525,7589,-7713,-6857,-27,1498,1997
1526,-5646,-7276,1862,1020,1520,794
1527,-7352,-3887,-6121,-1628,-1181,777
1528,-7708,2273,-1158,621,-792,107
1529,2368,-294,-1014,-360,-664,-1910
1530,-3620,-7745,877,-837,-1970,40
1531,454,-6623,346,-48,828,-281
1532,4341,-4074,-4752,755,-1647,502
1533,-6499,4477,5684,-1727,-1872,-1306
1534,-1228,3581,-4020,-545,-1418,190
1535,-4537,1547,3779,-1849,1769,-914
1536,7150,2869,2605,-304,-713,-1375
1537,-6774,1260,-4241,401,-1821,185
1538,6883,-851,-7553,-295,-1987,455
1539,-5603,-5320,3584,-1650,8,-1936
1540,-6678,-7,-5577,1998,778,891
1541,2042,-1938,6246,-131,1700,-1400
1542,6226,4639,-6905,-1578,-1130,-309
1543,-257,6685,2825,1078,515,-1430
1544,7461,-4095,1846,1532,-1556,-35
1545,-6820,7672,-5055,-477,1285,-465
1546,-1239,276,-1354,-1245,19,-1731
1547,-4060,3197,-2885,619,-1298,1588
1548,1056,3821,4432,-1712,397,1612
1549,-4514,6695,7103,-1784,-1304,478
1550,935,-913,-626,-1459,-1036,-1701
1551,-5659,5779,7440,1549,1914,1844
1552,2567,-4069,1257,-1418,-1925,1579
1553,-3872,1856,7767,-1328,1273,653
1554,1007,7506,1509,-889,438,-574
1555,7404,7957,1476,1562,454,-1758
1556,2717,-1507,861,209,-412,-558
1557,-4016,2642,-7375,1860,362,-395
1558,6686,3901,6051,974,1643,1276
1559,-4029,-2644,-2827,-174,1981,991
1560,3064,-1212,-2388,597,-1239,1903
1561,5661,-4459,-4312,-1939,-579,1276
1562,6789,-3265,-5607,1940,934,-488
1563,-1745,-2399,-970,-1459,-10,-541
1564,4295,-7001,-2157,-95,746,443
1565,-3480,2472,7594,1003,984,-173
1566,-3692,-5782,-6893,-593,-72,1694
1567,2654,4889,5174,-1075,1125,-969
1568,-5984,-5292,1322,-998,385,-1750
1569,6170,-7346,-2482,-1579,217,138
1570,-2944,-3915,1193,40,299,791
1571,841,-4385,5240,-1354,1796,-410
1572,6802,3051,-5888,1942,-1862,-1195
1573,1091,4217,-545,667,1514,406
1574,2220,-4746,-5430,1427,-59,-1976
1575,-935,2791,2916,812,-1168,1215
1576,-5353,-7401,-5109,-1896,1332,-1930
1577,2748,-5888,6019,1,-1657,-343
1578,6523,-3545,-199,1490,1410,-1995
1579,-5383,-3473,2102,1160,814,-218
1580,-4982,3501,6782,673,1066,128
1581,1379,-5735,-3480,1879,1372,-1383
1582,2684,-4317,350,1537,-8,-481
1583,2261,240,3512,-414,-1106,-792
1584,-7302,2134,-4959,-391,440,1585
1585,-7196,-5500,-2644,-1433,-951,-1385
1586,556,-957,5879,147,1304,-458
1587,-1101,2832,1273,-1415,-1617,-327
1588,-1155,6171,6455,662,1824,-556
1589,-5899,-2179,-3653,-104,487,755
1590,4010,5590,-7907,304,-1082,-956
1591,6927,-640,7654,-1901,1641,1653
1592,659,659,897,864,451,-368
1593,-7989,7029,3393,-470,-150,-1947
1594,6539,2827,6644,237,-1302,-1764
1595,4758,2089,-2557,-1701,1298,868
1596,4880,-2871,538,1689,-1620,-1570
1597,-1988,1633,1528,-141,1353,1090
1598,6961,6012,1956,-1591,-1822,1050
1599,1127,-652,-214,1748,-1284,1519
1600,6788,2102,551,-819,-1023,1678
1601,3039,7003,-1586,-1192,-408,1065
1602,-2533,6609,1201,-1680,1621,-113
1603,-4823,1076,5757,4,1744,-893
1604,-7983,727,950,1944,-1779,-1458
1605,-5216,-2707,7974,570,1487,-826
1606,-1076,-7649,3750,-291,971,-1773
1607,5020,-2640,6663,-1861,1509,100
1608,-3041,5785,4830,1069,-1131,263
1609,-3832,4067,6524,516,-1642,1579
1610,-4067,7813,-4622,-1347,-415,37
1611,7689,-4836,-3838,-1129,1537,1645
1612,6527,-4827,311,-428,1634,565
1613,-231,7558,6154,-35,1902,1033
1614,-5931,-4078,3735,265,1365,1600
1615,-131,5657,1579,-1567,675,-999
1616,6860,5330,3236,527,1552,-1815
1617,-954,-1773,-7049,1071,-405,-719
1618,6885,-7494,-123,1391,-1454,289
1619,-3184,-992,-1670,290,-156,1814
1620,2640,-1769,-4692,1443,274,-1139
1621,632,1475,-2153,506,1343,-48
1622,2815,-6173,-4736,515,-729,1493
1623,425,3571,-904,1540,-1071,915
1624,179,4664,-7745,-947,1624,-752
1625,-1339,-1184,782,912,-308,-311
1626,-3774,3644,7730,295,-643,-319
1627,1428,4405,-775,169,-689,-1979
1628,-4379,-76,-7952,1494,1307,-687
1629,-5423,1194,3158,-968,-1942,89
1630,-432,7903,5471,96,-1375,1281
1631,987,-7226,1114,1472,1339,-671
1632,3970,5576,5966,936,1815,-1657
1633,-2361,-3671,6995,-1991,205,828
1634,2352,-7851,3111,1493,-25,-1664
1635,-1497,-1075,1696,494,-1771,1601
1636,5158,-190,-2277,-747,-1782,1780
1637,4084,-815,-2789,593,-1537,1521
1638,2814,6157,1754,1073,-401,-70
1639,-2688,5884,-5134,555,212,503
1640,2955,-5793,-119,-1654,-410,-585
1641,-1700,-2809,-3995,-1429,768,713
1642,2526,-3983,7520,1214,8,1853
1643,1845,4127,-846,-956,-1057,1044
1644,215,692,-2123,1097,591,119
1645,-4055,-1848,7732,-1868,799,1264
1646,2420,4173,5609,-1555,142,938
1647,-2788,2540,-840,1610,-1176,-1378
1648,-7713,6695,-3731,1126,-668,381
1649,-2426,-1612,-1653,1278,-1081,-1858
1650,3691,-3205,-6279,-604,-936,1683
1651,1507,3702,-6601,-802,1650,1665
1652,-5781,-3023,-1015,-476,317,1930
1653,-1074,4749,-4036,-313,959,1656
1654,6876,-2454,3651,1176,136,-931
1655,2251,7187,6356,-1282,1928,676
1656,-1972,-1721,5537,74,1042,1114
1657,6544,2391,1026,-1090,1585,452
1658,-4877,-1473,-2550,1876,-350,886
1659,4872,3382,6813,54,433,1289
1660,-7132,-4718,6880,392,-598,717
1661,972,6842,7762,-1260,-922,785
1662,-484,4531,6918,949,997,262
1663,1207,6976,-5650,926,756,1702
1664,1555,-6381,-2771,1917,1292,1804
1665,1756,-4222,-5632,1910,1024,807
1666,-6107,2813,-477,-450,214,467
1667,-4990,4915,-5286,481,-1729,1285
1668,7455,-3213,6784,1779,-964,1674
1669,896,7974,-4250,968,-1831,-1476
1670,2514,-2154,-611,-1700,-1287,1081
1671,4271,2563,-1104,-789,886,1735
1672,4430,-5065,-4256,1089,-1253,227
1673,-1567,-5397,4458,-1456,-957,1625
1674,-6454,4564,2484,-1780,-38,-1701
1675,2308,7921,6612,1910,499,1832
1676,3785,4165,3138,-137,1794,1299
1677,2575,4205,-7093,-443,365,1443
1678,7021,-6611,2390,1224,561,1703
1679,-7446,-3269,5186,-317,1892,-433
1680,-26,7458,-7345,1376,179,1452
1681,7165,-7459,3281,1357,1977,42
1682,-1783,1530,3817,-768,218,-889
1683,-6587,-7425,-16,1438,1920,498
1684,-2629,7839,7385,1021,885,-475
1685,202,-6610,5804,1605,1530,-1928
1686,6296,7790,7528,-394,-1381,1384
1687,-493,-2737,-6805,1871,-1566,1404
1688,-3411,721,-4888,-984,283,-584
1689,5693,-6761,-2273,-644,1165,-1861
1690,-3420,-1460,-6540,-1122,-783,-470
1691,-1231,-5878,-1962,523,-1616,-366
1692,-69,-1340,5839,578,-1572,875
1693,5018,6421,-6412,1044,1837,-1953
1694,4576,-3986,-1901,1220,1453,-1085
1695,-4906,409,-7803,1344,-1002,982
1696,6893,7617,-163,-1070,-350,251
1697,-7421,-1193,-7650,2,1172,676
1698,757,-6032,-4320,134,-1557,-1857
1699,-5437,-1534,-7714,-1500,-882,472
1700,-256,7175,6183,75,1073,-1580
1701,2782,5116,-1988,388,-90,863
1702,2015,1537,-3831,-586,1555,-766
1703,5257,589,2106,1850,231,-212
1704,2639,4722,-5140,736,-306,-238
1705,6937,5201,-2832,744,-1876,1674
1706,5975,-6684,-4026,1301,-57,-1030
1707,-5824,-1397,-5907,1447,-1641,590
1708,1346,5683,7482,-1596,-528,-1851
1709,3581,-6805,-560,-1413,-1116,-571
1710,3926,78,-3148,-699,1414,382
1711,7246,3752,7444,1902,566,-1932
1712,-5720,-1797,-1901,-1189,-458,1957
1713,7169,5703,-1931,-1341,-156,810
1714,4024,5022,-131,-980,516,-1770
1715,-1330,2633,817,1216,111,1898
1716,-4763,5996,4772,106,-67,-1098
1717,2399,3423,-2551,818,-1677,-1714
1718,-2067,-2505,1417,1596,590,-1572
1719,7881,-3593,-7926,321,1716,-1103
1720,270,-444,3710,-1283,-1727,1388
1721,6421,7797,1298,1475,1947,-472
1722,2867,358,-976,724,722,-1110
1723,841,6169,-3435,-1010,853,-185
1724,4635,-1807,-249,1299,-1336,-1195
1725,1126,1273,-6256,213,353,-1894
1726,-1419,6475,2374,-1453,-33,543
1727,-829,861,4014,-325,1828,1395
1728,5572,-3172,-6210,-1779,135,-64
1729,-2296,-4215,-2635,1726,1635,-778
1730,-3059,-6393,831,354,-324,604
1731,-2758,-4334,3279,-1347,795,-895
1732,-409,7123,-7976,283,1329,1717
1733,-5958,716,-5789,-698,-799,98
1734,-7272,5600,5203,-445,652,-1745
1735,-2143,33,4098,532,-1695,-518
1736,-1836,-3022,-6521,-1774,-1154,239
1737,-4968,7649,-5995,-1865,1732,606
1738,7757,5324,2688,-785,-1061,-191
1739,756,-2728,-5665,1158,1377,1799
1740,-3555,566,192,377,-99,1456
1741,-1837,5307,3796,583,59,-1089
1742,6191,-3030,2904,771,169,-228
1743,662,1361,2520,1198,254,1016
1744,1280,1539,3772,-1682,-755,369
1745,-4231,847,-6643,-771,1101,-178
1746,5834,1574,6202,-753,866,-404
1747,1862,-2891,-261,-634,1632,-1953
1748,-2844,3967,-3360,-223,957,1870
1749,-1667,789,7858,527,1202,1952
1750,-1925,7055,-7118,328,-1755,-1703
1751,2851,5708,3207,-1921,-273,653
1752,-910,3752,-7102,-731,693,-1739
1753,2349,-5931,1472,1313,1586,-1286
1754,6879,3801,1289,-1093,710,-841
1755,-4611,1672,-1437,1891,395,-1689
1756,5973,-2320,357,1413,393,-1215
1757,340,-6695,-2018,-1344,-359,-1390
1758,-4427,5685,-227,1235,724,1268
1759,4255,-3088,4012,380,-1914,-1436
1760,5206,-1218,-870,-838,1916,-1635
1761,-2674,-2279,7554,1011,-163,704
1762,4545,-391,4536,-1742,-479,10
1763,-3710,-3318,7460,-643,184,1298
1764,-4872,-5552,-4567,-212,1868,-210
1765,413,4214,3599,-596,-1936,-1704
1766,-7777,2280,58,-511,1225,99
1767,2585,-7044,1438,366,1716,-464
1768,-2086,-4747,-5797,-286,-1385,-1232
1769,5038,7117,-430,941,-1777,-739
1770,4497,-7579,-7694,1360,-1935,-158
1771,-332,-6170,-5570,1452,1056,1423
1772,-6833,-301,-4927,312,-1209,-1603
1773,1191,7007,3360,-1042,1601,-101
1774,-7521,1802,-4186,204,1469,-48
1775,1342,2522,-7861,870,1947,446
1776,-6266,5075,-3529,769,-764,-424
1777,-7311,2180,-6549,-956,1033,-1424
1778,4764,1261,3430,487,1691,-100
1779,6151,-811,-62,1358,1240,733
1780,-5196,1475,-2379,1313,-1673,-1417
1781,-3979,7996,-4301,790,-558,-629
1782,4251,5061,306,959,-828,-452
1783,-2532,5476,2288,-1903,-1416,-1675
1784,-4376,372,-3374,-1861,1490,-46
1785,7379,209,-5785,-43,818,1283
1786,4510,-6036,1969,1959,-903,353
1787,4202,3097,-5249,527,-289,625
1788,-475,-625,-3235,-646,882,616
1789,-5421,-6591,-5154,-69,1773,-1388
1790,-1186,-6915,-7566,1399,1203,-1218
1791,-3007,-4574,6926,-645,171,1061
1792,403,-2510,-3332,-1231,1178,-989
1793,-5942,-7571,-5720,1321,-1115,1342
1794,-5502,-6904,7283,-560,-148,236
1795,2237,2893,3682,-522,1836,729
1796,7197,-2969,-2325,-658,1320,-103
1797,-2658,7897,6184,-1447,1175,-1405
1798,-2251,3626,3540,1683,-1454,1255
1799,-3150,-7769,983,-772,-483,691
