Sample,Ax,Ay,Az,Gx,Gy,Gz
0,7671,-5233,3274,-1538,-1319,1664
1,4915,6024,-3355,1992,-976,-1144
2,-6110,6803,-4112,-1904,-727,-1090
3,5439,-1100,5546,-666,76,1163
4,-2128,7263,-434,1636,1273,-1836
5,4351,5340,1975,-1347,-334,-1774
6,-1383,2708,95,-1991,-410,-142
7,2251,3394,5206,1646,-762,-1838
8,3514,4161,-933,1945,29,1384
9,-6612,-6476,-7502,511,528,-914
10,3912,2232,7446,-1969,1098,1905
11,-5006,-989,5868,-356,1442,1690
12,261,6630,-4389,1820,-642,-1350
13,-5492,-720,5822,1292,-1685,-306
14,-1872,-4467,-712,-1868,1675,-410
15,106,-2416,-5874,1023,-1102,907
16,4502,-2717,7151,-378,492,-1368
17,-7963,-7081,-6371,-1391,711,98
18,2959,-275,462,-1435,128,1734
19,-3760,-4315,4335,37,-417,1674
20,607,7868,-7994,-1510,-510,1734
21,-7885,-7232,3736,628,-243,916
22,4253,6014,-1008,-1915,-970,1561
23,6450,-5598,2965,-742,-919,-557
24,-4440,6468,-7385,-1692,370,-1775
25,6383,-7367,-4937,-164,-1670,-319
26,-1156,-698,-4953,694,1014,-357
27,-2318,3184,4251,-857,-846,1786
28,-2634,-3468,-5965,-439,-1627,291
29,-5883,-5426,486,-1360,-1056,-31
30,-4639,-5894,-1966,-1582,1927,-133
31,1353,-7805,1492,1844,1332,-1785
32,-6808,-2780,-3233,857,-1887,-1396
33,3375,3380,2329,-58,-1304,1386
34,5743,-2775,-3462,-687,772,-1952
35,-3309,5309,-4519,-1873,-1388,-1334
36,5888,418,-338,1187,-759,-279
37,895,1030,-7827,552,-251,970
38,5695,33,-6817,1824,1341,127
39,-6866,4766,-2145,1891,951,-1079
40,-3385,-4006,5671,1784,894,-1798
41,-4958,-1416,-1268,-1362,1987,-1672
42,-6225,2853,1251,-1323,1466,-1287
43,-335,2758,4808,786,397,-1475
44,7533,1892,-6674,-1808,420,-945
45,-3444,1542,-7247,1664,1793,1739
46,3699,118,6686,-1807,-1754,1307
47,-5466,-7991,1645,-763,383,-1555
48,3645,-3695,-6470,-420,-1823,-175
49,-6306,1268,1118,1415,-779,-21
50,2594,7517,4855,-1106,-894,-765
51,2820,-4465,-4207,-1753,-1117,658
52,-3352,6756,-6193,-424,-1831,1226
53,-3052,-2788,4833,1063,246,331
54,-4431,2674,-2667,1642,-1815,-678
55,-4483,-1597,-3378,-341,-1370,202
56,49,-142,406,-1989,1674,-417
57,6580,-2670,-6317,64,-536,-1049
58,-4997,-282,-5533,-1490,-1228,-1022
59,4850,4227,-4615,110,558,-389
60,-7596,3113,-5155,1200,1166,-79
61,-2134,6179,5101,18,611,-1576
62,-6817,-7654,-6520,1718,833,-1294
63,-6340,-6667,-7909,862,526,1102
64,-6095,260,-5918,1718,-1949,-469
65,-1102,5361,6495,479,-809,1705
66,-1250,4185,1078,-1173,976,-673
67,4425,-5728,-544,-1445,-1660,-1836
68,469,-5322,1663,-783,172,-14
69,7157,5016,-6222,-1837,-301,1287
70,-5211,-3561,1553,166,-1625,172
71,-1605,1305,840,-1438,1620,1387
72,1125,3407,-4631,837,329,288
73,1170,7251,-6292,457,1751,-745
74,-1159,4831,-5292,-351,-1524,976
75,-1606,-5359,-4266,-1317,1213,1800
76,-4747,3866,-3855,-1643,-1967,-637
77,-1298,2176,436,-1500,-1188,-266
78,-963,4421,4012,1404,950,-1623
79,1677,6751,-970,-1403,909,-1390
80,-5173,-4049,-3112,1382,-421,1815
81,-6661,6853,-3474,-830,-59,555
82,-1466,321,-6830,1490,-1814,1346
83,-5323,-1548,-7894,1687,497,639
84,-5878,-7267,7504,1495,309,-255
85,7645,4232,-7351,853,155,616
86,-7507,-3128,3708,-720,-605,761
87,7831,-1609,-2186,1957,-1962,883
88,-1091,4225,-2127,1876,-402,1729
89,4271,5463,2788,-296,1060,-131
90,-1179,-6500,7919,340,827,1129
91,-2748,-344,3559,-1520,-899,-913
92,-6640,-4369,143,-475,-327,-112
93,-3158,-2507,-3335,-480,-554,-1779
94,2732,86,-4009,-994,1203,349
95,-2000,3654,2506,-1374,1335,-1819
96,3628,1035,7906,1462,-916,-725
97,5773,6514,2582,-652,-1904,1530
98,-6839,-5830,3806,214,1354,-312
99,1575,-2067,-1713,1086,1152,-472
100,-1332,-1128,3012,944,-393,-120
101,3409,6294,7293,1511,1231,1105
102,-233,7729,-2278,112,984,-107
103,2820,5858,6490,-1925,-601,-753
104,-1414,2531,2770,465,-902,818
105,-768,-7788,5462,1258,965,406
106,6734,-1139,-4880,-1557,225,742
107,3854,7486,-5651,1487,1473,-456
108,1167,-2306,4195,1781,71,1662
109,-5916,2946,-4803,-1471,-1793,-1583
110,5325,-4518,4186,624,-802,239
111,-3344,-2110,-2774,-1285,381,-781
112,-3668,-3985,307,1430,-160,-1984
113,4118,-900,350,-146,-84,-1061
114,-554,4877,-7653,-1772,-186,-215
115,2650,-1057,1876,93,1025,-1293
116,4836,5042,-746,-357,1795,503
117,-1672,2543,5542,932,608,113
118,-2036,3278,6617,1198,1303,1854
119,-1408,2789,-1927,-864,-1378,1059
120,-482,7572,-2610,1037,524,703
121,-5684,-702,7803,1755,1339,-1855
122,-4758,-1748,-7731,-996,-1859,-1406
123,4684,1402,-7122,1563,49,-1463
124,3442,1097,646,-1973,-43,-1597
125,7701,-83,3931,-315,-1141,1482
126,-5497,-4825,-7191,816,-1740,828
127,5362,-1040,-7333,-228,-1748,835
128,2399,-2354,-5251,1802,666,-1830
129,5293,6133,4043,747,-1139,-544
130,-5205,-6157,-3962,-69,875,-450
131,3650,253,6398,-1891,-1409,519
132,-2749,-3771,-418,-1574,-1729,-1511
133,7215,625,1700,1982,95,-168
134,-2243,-7275,3870,1395,-622,979
135,7214,3177,-6535,1829,-1418,-1208
136,-6454,-2685,6726,1335,-926,1098
137,-6374,127,-4949,169,-1210,855
138,-1676,-1875,3303,-897,1756,1627
139,-1058,-3805,-6151,173,-1980,359
140,6133,1592,-3554,-1914,-1721,328
141,4415,-4791,3921,1202,1304,38
142,4320,-5693,6847,-1962,-692,1767
143,137,-874,3421,771,-1665,-1452
144,-3127,5822,-3834,1966,514,279
145,6315,-4515,7881,-562,-912,1085
146,2456,2451,-6084,-1138,1064,84
147,2477,6564,-1820,216,-1900,-250
148,-4683,457,-5892,1080,1431,-792
149,-5886,3741,3072,-578,1840,-290
150,-4441,7692,-6177,1741,38,125
151,-5252,1810,-4419,-1665,-759,-1572
152,4850,3986,-6470,1349,-678,123
153,5022,-7283,-4419,-472,411,-1896
154,1539,143,4544,403,-1430,323
155,3589,-3925,-3069,-1297,1324,1655
156,5856,-3679,-49,921,-1654,1560
157,1848,4964,-4588,-323,564,-1014
158,388,3927,-5023,1471,-180,289
159,5442,-1586,-4598,-867,-1695,1254
160,-2484,-5392,-5990,-1641,1598,-117
161,-7596,7584,3552,-1699,1336,1569
162,-391,-6549,-4740,1408,1853,-686
163,4047,2881,2126,669,-123,193
164,-1484,-4643,-4956,-1262,437,-496
165,-1572,2223,634,-1836,88,1343
166,5688,-7670,3919,-536,1182,-1511
167,-6385,-4968,7797,393,-1361,894
168,-163,5254,3366,1475,1818,143
169,-3823,-4932,-5207,514,-820,1628
170,-1155,4663,3516,612,1135,498
171,-145,-3375,553,-1120,1502,841
172,6242,2263,-7379,1230,851,536
173,340,1403,-7987,-1202,492,330
174,5698,623,-1720,895,277,1840
175,-1678,3979,-7568,908,740,-1373
176,-1837,3299,3723,1883,1086,321
177,-431,-5429,-6246,360,-259,851
178,-838,-3240,4908,1348,-642,72
179,1882,1101,297,-650,1065,1434
180,-1922,1427,608,-1359,381,-904
181,-1772,732,6216,827,751,283
182,-1524,-6904,6299,1392,-1693,-897
183,-2034,-660,1252,1610,-917,-1899
184,3398,-3113,-5232,-592,1301,713
185,-7130,-2496,-6188,-1848,692,-1975
186,1860,-6148,-6411,-1613,-1385,1496
187,-188,2477,7033,277,459,-922
188,-3230,-3,4075,-1234,347,-110
189,-7882,3634,3123,-590,-439,1181
190,2414,7392,-1252,203,1786,775
191,5114,-7634,-5511,-187,1045,689
192,-3201,7583,-3935,-1481,1315,-792
193,-6227,-7906,4612,1849,891,-217
194,-5491,-1140,-6045,-985,-198,-1955
195,2304,4454,1370,-1219,1485,-1159
196,4412,-2314,5935,-1241,-1950,1918
197,6456,7021,2521,1247,973,-497
198,-1651,-5993,1462,-841,-1645,977
199,-5887,5439,3494,-1217,-1564,-88
200,6750,593,-922,547,-24,773
201,-2632,-6780,-5023,368,428,1099
202,-2947,-6702,719,-180,1120,1781
203,-6866,778,1336,1780,-998,-73
204,3644,2723,6250,-788,1912,-548
205,-650,4331,1773,323,-1630,396
206,6861,7833,-6417,1247,848,181
207,-1417,-2915,1574,-203,992,-1913
208,38,637,7941,-304,-851,-1845
209,-3061,-1895,-4033,-26,621,-806
210,5569,-6402,-7763,967,-652,726
211,-6716,7252,-3336,190,1582,882
212,-7383,-4058,3556,-1960,-1805,-368
213,2272,1711,-1802,-536,-1093,-1877
214,-3063,-7686,1492,-1594,-577,-628
215,-3565,-1083,1873,476,1451,1510
216,417,-1,-5872,-665,-424,-1323
217,949,-1918,-6816,1289,682,257
218,3768,581,1312,-1983,244,1401
219,2374,-5136,-4916,-1031,-408,444
220,-7816,2907,1605,1108,-778,578
221,-3792,4955,7841,169,1547,1870
222,-1234,2963,4858,-1963,1469,-45
223,2049,160,3326,959,298,-1475
224,359,5883,-4486,359,1378,941
225,736,-3858,-789,-464,-356,-878
226,-298,2195,-4461,489,-225,-1126
227,-2625,-7084,5703,-420,76,407
228,1367,102,4847,1218,-1941,-1119
229,330,6063,4492,538,1191,1377
230,3096,7359,-1091,866,1285,-1990
231,2447,-5924,-7308,-1266,-521,-1816
232,7934,6236,1404,450,1513,1680
233,3482,-1951,-7349,-612,-1891,-1039
234,-4379,5104,-5184,-773,1,1435
235,-6617,6061,1666,-626,1860,-644
236,4688,2847,3340,1898,-857,-413
237,1282,7845,4463,-372,-173,970
238,6116,-2220,-1160,142,573,-439
239,-4989,7612,-4409,1491,1144,1957
240,-6514,3078,-1008,-1037,-727,-165
241,-6782,463,1517,130,-1689,774
242,-5150,3988,3077,-1968,886,309
243,-3022,6105,-1374,-146,1113,-1443
244,2000,7176,5600,1036,-1536,-823
245,-7915,3017,-7697,-1346,-277,-1376
246,-798,-1174,1361,-1332,-590,-1190
247,-2727,2113,-2908,1481,-611,-421
248,7925,1294,2975,-1837,989,-1979
249,4541,-1276,1899,1524,654,-1291
250,3577,3316,-1350,1336,-1049,-1754
251,-7069,-5228,-4646,-548,-1141,705
252,1720,-3698,1073,-859,1674,1056
253,7750,3098,3369,69,-1992,-689
254,-4005,-3512,-5539,38,1035,507
255,-2888,372,7218,391,-616,897
256,5590,823,-7681,4,-583,160
257,7870,-2919,5177,1236,-1333,-1991
258,-3241,-5784,5176,-1249,-1071,246
259,-2690,3919,983,789,259,-267
260,-2382,2267,3776,24,1941,1382
261,-233,-2885,-6302,1766,690,1024
262,1096,5300,4168,567,1323,1883
263,-5326,-977,-3015,-174,-1827,612
264,-3679,-7230,1778,1420,1136,159
265,-7770,-694,466,-564,-56,-338
266,-3193,2323,-2182,-1708,-1950,768
267,1830,2057,-855,248,1009,1357
268,-557,7358,4255,215,-1276,-499
269,-2854,2632,-456,-1267,270,58
270,5957,-5445,5545,1787,-389,1410
271,-3329,377,1508,539,-1383,-570
272,-310,-2457,7532,-1450,-1341,1096
273,-5735,-608,1649,-1196,1631,146
274,7863,-4176,1327,-393,1936,-1619
275,-2265,6569,377,1150,633,1128
276,1567,7646,-5475,20,-1192,1581
277,5147,-3433,1356,-1367,1432,-98
278,2199,-7640,-5723,-288,-741,-1858
279,-2256,6093,5136,-1818,-1111,1987
280,-3434,486,-7984,-1969,-1546,1210
281,5817,-6951,-634,-855,550,-860
282,-982,-4137,-5036,-602,1935,-336
283,2469,-6556,1233,1999,-1519,1672
284,6926,3906,5442,-1747,-165,1889
285,-6255,7335,2993,-1878,787,350
286,2189,-6196,3721,-1248,-523,-1564
287,138,3756,-3496,674,-1038,420
288,7604,2943,1671,98,338,1430
289,-3699,2227,-5082,758,478,1578
290,-834,-423,-1143,-409,903,-671
291,779,6068,-2493,-866,-1422,-336
292,-1749,-5531,-3689,-458,211,-845
293,6558,577,1864,-462,1347,23
294,-4750,-7226,6477,-506,1704,-1996
295,-1340,-572,-7516,-1538,-810,153
296,7471,6574,4317,202,1815,-1276
297,-7235,-3060,2434,-477,1764,717
298,-5880,5363,-4464,1829,807,779
299,7805,3183,-2414,-964,1122,1296
300,3208,4510,7855,527,1302,-235
301,2623,35,1789,-1298,-862,-677
302,-5260,-7788,-2450,-1632,1044,1815
303,-7756,-4843,4995,-1159,-890,520
304,-5729,1441,5779,478,1066,1418
305,-7139,-1438,3099,1728,-411,558
306,3602,-7128,-5366,802,14,-1337
307,3073,-666,-6476,-1405,-1520,1530
308,-4781,6822,424,1492,1413,-1743
309,-5855,2247,6730,418,824,-602
310,5863,-6253,2690,1398,32,-1081
311,-4392,-2988,-1035,-744,-420,-1738
312,7276,6802,-494,-1441,1503,-1238
313,-6304,-1040,-5849,-1895,947,-1089
314,3838,-114,-692,-1158,-1147,1056
315,-3149,-1892,-4228,-361,731,-894
316,2879,-493,-7014,905,588,-1597
317,1864,4488,-3018,1638,-1246,1423
318,-3300,6525,-522,50,-1516,-1294
319,1997,6174,4034,-1009,171,-860
320,1316,3574,-5697,-136,369,450
321,-2950,-3161,3648,1453,1998,823
322,6913,-3673,7611,-1280,1572,-811
323,-6249,-4192,5924,974,-1400,-918
324,-774,518,3203,316,-699,762
325,-4750,7530,6300,839,0,-842
326,7349,2467,-6316,842,-198,-1329
327,-1563,-5501,6615,550,940,-725
328,-2204,4102,3618,-1580,-991,722
329,-844,-857,348,637,-1856,-1337
330,-5109,-2166,5094,508,739,139
331,2490,-5468,-5035,-423,658,1867
332,3786,-5372,1368,1087,354,1053
333,3706,-4937,1749,1258,-219,-237
334,4484,7735,-2218,-249,14,-123
335,5781,-4322,706,-1330,1213,19
336,5317,-1457,-7350,1902,225,1238
337,4331,1220,7202,-268,1152,-1868
338,-3964,-2186,-7101,-1309,498,835
339,-2885,6235,-4714,-1085,-904,1587
340,7155,1211,6297,131,217,1408
341,-5262,6187,497,-1947,-1874,1271
342,-7741,-794,5090,-60,1693,621
343,-7966,1523,-678,-774,-689,-1488
344,-7054,-6914,3994,1462,1113,-421
345,-3097,1351,-1758,1078,-1061,52
346,-2324,-14,-347,-527,-887,484
347,-7154,4829,-1836,1494,-778,-97
348,-2718,-2659,-2014,-142,-419,1150
349,-5339,-6065,-2406,856,238,-1331
350,-1463,-6125,7197,414,681,1645
351,-245,-6997,-6531,-1630,1067,-469
352,-7798,364,6060,-624,-747,1613
353,3950,-5954,4602,1856,34,1391
354,-6018,6412,-2033,1088,623,-103
355,5125,5902,2143,-1690,-645,-211
356,-5264,4836,2946,-1865,1874,-1236
357,730,-7164,-422,-1238,-501,1752
358,-2525,5539,-7434,-1183,369,1455
359,-1406,6676,-2982,1968,1816,-1541
360,-7509,-3322,4364,-800,1568,-1654
361,-7671,6927,3681,-717,1496,388
362,2801,-2841,-4072,557,-1221,1367
363,-6173,1496,4957,833,1805,1426
364,467,2004,-7689,1289,1078,1537
365,-2473,-5347,-6055,-1452,629,565
366,182,6727,-7037,1706,1927,1216
367,-6826,458,5267,583,-1250,-743
368,-366,-5571,-4279,-675,-1428,-555
369,-6079,460,-4375,594,-664,1550
370,-4746,568,2706,-1805,444,-670
371,2694,1051,-35,665,52,354
372,-6109,-6979,1517,-1666,240,-1913
373,-213,-3160,1126,-547,-1481,800
374,-2547,6661,-4125,-381,1471,1492
375,-1500,5296,-4002,1328,709,923
376,1031,2120,-1954,-792,-1427,-321
377,-637,6260,5906,658,-832,-1525
378,-5193,-98,2853,-444,-1298,-1683
379,7119,-5498,1589,91,-1022,108
380,5804,1700,2701,1895,-1099,132
381,-4973,1653,156,-1698,383,-518
382,3824,3049,-1541,1740,-1228,1681
383,2277,-7024,7319,553,889,-203
384,592,5426,138,536,-1410,-999
385,1978,2753,6545,-187,-1305,1176
386,7849,-6820,-910,1351,-1184,-1411
387,3926,4787,6695,-1738,-892,-211
388,3537,4327,1863,1828,296,1609
389,3992,2855,7368,-1914,-733,-1322
390,1639,830,2989,-81,-392,840
391,2610,-497,3234,-102,-403,-250
392,124,73,-654,-338,-743,1185
393,7690,-5112,-6704,-1546,-1028,-1394
394,3732,576,-4474,-1728,435,-433
395,-4687,-7175,5994,-1217,-667,1755
396,-6318,6443,4129,236,566,-1835
397,-2729,-1011,-2011,-106,218,1931
398,-1614,-6371,-6045,1096,-1807,1764
399,-7668,1253,3487,154,1748,-975
400,7908,2732,876,-1843,274,-1150
401,1978,-1246,-4356,-1020,792,1956
402,-6460,-4812,-7086,-471,-714,6
403,5530,-5773,2154,-1377,-1616,-1271
404,4232,4080,-6066,945,1864,-1738
405,-85,6620,-3562,-667,-488,499
406,3993,1651,-4358,-153,1078,401
407,3757,3311,-1577,-1958,-1010,-986
408,-3786,4980,6901,-1800,-1759,-375
409,-132,4314,5695,620,-475,-317
410,-2364,-5996,3737,1309,281,1600
411,-364,2021,3133,-229,145,453
412,-4072,-1515,6867,1336,-1270,1111
413,2682,-7828,3172,1517,441,-777
414,-4389,4880,-2135,5,392,-1348
415,7028,7824,-653,-494,1943,-223
416,1002,-4234,2657,-673,-944,-332
417,4204,1884,1630,324,0,1303
418,1644,-7109,6369,-1370,-1365,925
419,1797,-1523,5493,-1271,-677,334
420,-574,7893,6781,1339,-1470,-624
421,596,-4818,7311,-1249,-1832,-709
422,-1098,-7594,2574,1810,1023,509
423,7203,613,-1824,1991,990,1489
424,-4375,1845,5483,-1577,445,1269
425,-4905,-1861,-7406,1173,-763,-823
426,-7029,-239,-2982,-1378,1594,1278
427,-6539,-7866,-3002,-1768,737,-127
428,5754,-7130,-2811,939,1213,696
429,7226,6711,1083,-888,-1685,14
430,1401,-7520,-2873,-1904,805,-1488
431,-3535,-2929,311,-1739,-1736,693
432,2838,-1068,-6191,-1444,-1016,543
433,1371,666,2604,1397,38,315
434,5577,-3191,-6064,1338,291,-126
435,5064,-4286,-877,-505,1831,441
436,2061,-6822,5308,-858,-724,1073
437,6363,-4892,11,307,-756,-733
438,5702,3122,5243,-1593,-1764,299
439,-1641,-3134,6600,-1015,-1427,315
440,-4551,3565,-7745,-1630,-818,401
441,-3364,1326,2614,-1158,1924,1108
442,-633,-7200,-6521,691,-1948,-281
443,1559,-5509,1430,-1142,-1418,-761
444,5035,6152,-7865,-1181,-1523,-231
445,1782,-5185,4973,-446,-1162,1922
446,-6549,7777,5865,-160,-425,1645
447,5350,1571,1674,57,-1308,36
448,2093,1745,5428,-1371,398,-1400
449,-3011,-4626,1788,1512,1447,-13
450,5890,-7838,7811,764,-1112,1216
451,-2883,-4653,3086,-652,-1208,-1402
452,4565,-2530,-3500,-675,-569,1769
453,5950,-2032,5291,-311,1888,-796
454,1406,7711,-2926,-1166,-90,211
455,-2322,-3730,-7047,1768,66,-1726
456,1305,-2762,-5007,1855,398,-1274
457,-3513,-4439,1268,-1751,1821,-1225
458,2522,-7633,6853,-80,550,-967
459,1671,-5126,493,367,1426,100
460,6054,5425,3577,-101,-695,-359
461,5665,-3485,6738,341,22,170
462,3209,-3888,-624,478,1799,-1998
463,2690,7198,-5081,1548,1275,-1613
464,-782,-5782,2375,-302,376,-1033
465,-878,5671,7822,-437,-960,881
466,4787,-6740,711,-1346,1919,-1264
467,308,-4507,-737,-1078,1848,1556
468,-2740,-5586,357,1792,-412,1603
469,2812,-2078,-3926,-1469,432,-1921
470,-5302,-1056,-699,-1628,-719,1816
471,-5858,4859,1261,-1742,763,177
472,-156,5324,-202,607,-622,810
473,4591,5814,-6445,-1425,1458,-250
474,-3726,7819,-3821,894,89,913
475,-2954,5432,6039,-841,-138,-1847
476,-6771,7836,4585,1369,487,-1409
477,-476,3556,2547,1423,-653,282
478,-6777,5559,1517,1714,1082,1047
479,-7753,2343,-7007,-152,-1583,1434
480,-7772,1797,4192,440,-640,-1499
481,-7067,-2376,-1782,1688,-1879,1446
482,4303,2312,2404,870,-16,308
483,4758,-6219,3162,-641,5,871
484,-5461,7553,-4862,-142,-1181,-1477
485,1881,-5918,-7597,-1532,445,-1635
486,5597,-126,-1896,-478,-232,602
487,-3781,-4574,1139,-1636,1274,-226
488,5317,-4890,-4470,-304,-1971,118
489,-6424,-1455,-518,-1047,507,584
490,-5579,-4955,-7401,1893,349,-1096
491,5699,4330,-6659,1287,1486,1244
492,-6104,3138,5356,-69,-1987,1183
493,4390,-2742,2781,-703,1532,961
494,-6172,7226,-806,-1254,1915,1069
495,-3675,-4306,-5949,1544,-483,-1715
496,-5556,6942,3705,130,-949,13
497,3267,-3506,-140,-658,-797,-999
498,-7110,-1530,-6652,-504,1540,683
499,1725,5023,260,-1453,-1347,1235
500,-4630,2191,-5097,-418,428,-1830
501,3200,3726,-3346,1378,1823,1523
502,-2822,-1275,6967,378,-18,192
503,-1585,1871,-2967,-1714,-374,-1106
504,4853,3030,7789,-302,-1713,-237
505,3689,-1023,245,-1315,1857,-215
506,903,-129,5080,1741,-640,1221
507,980,2784,-4648,-22,1472,583
508,6020,-3662,3308,786,-870,933
509,7073,-5945,-6490,-547,-1784,-1273
510,-749,-1029,-5618,-369,149,770
511,7429,482,-6933,1523,843,1712
512,3942,2652,941,-548,1239,87
513,7144,1569,-3116,-186,-894,1373
514,7954,3988,4958,62,67,-1978
515,-2948,-2620,-1356,795,888,1344
516,814,-3126,3822,319,1379,932
517,3077,-7535,6442,-1577,610,-1420
518,-1206,-666,8,-345,-1797,-637
519,335,6277,-6642,1036,-1283,-401
520,2037,6160,-6704,974,-238,-1818
521,1759,2656,-7122,1362,-795,312
522,7354,5247,5412,198,-27,-1228
523,2214,-2715,-106,1883,1195,970
524,-5533,-4573,-4756,-826,1886,858
525,-692,7001,-7799,-19,-218,-119
526,-3802,-893,-328,227,-1650,569
527,3819,-6151,-6604,-658,-1404,-1465
528,203,-7874,-4037,-1363,-1492,332
529,3688,7097,-1041,-1796,1677,956
530,3943,4467,-5338,-1661,-1472,1975
531,7282,-1069,-4285,-74,1481,-479
532,-4450,-4035,6564,-107,920,859
533,-4881,4189,-3070,420,888,1948
534,-4728,7673,-7322,319,-940,-1949
535,-1388,-7988,7764,689,-772,141
536,5290,7121,-7458,-687,445,1103
537,4963,-3262,-91,-783,164,-1225
538,7894,1693,-4263,-1838,924,1139
539,-1788,-1924,-3759,-791,-571,-365
540,4012,4853,-4480,55,-1142,238
541,-6594,183,1463,1582,-28,-1858
542,5059,-3082,-3699,142,-1270,-256
543,4697,-6246,4472,221,201,1627
544,-2361,7334,-1581,-1204,-1677,1525
545,-7668,-302,3204,1986,1280,1060
546,5325,3307,4400,-492,1001,640
547,2207,-7255,1960,1884,1023,652
548,-2453,7360,7265,721,176,1492
549,-3840,5406,10,-243,-43,-1174
550,7273,-6524,-4522,223,-1995,1442
551,-2488,585,-6077,-597,-2,184
552,-7582,-3180,-7796,-1818,-1409,609
553,-4839,3276,-2012,1057,-1558,-1429
554,2459,5802,-1701,-1380,171,-352
555,-4866,1641,-5291,-754,-263,1101
556,5664,1920,-515,-1898,1811,1535
557,-7092,-3642,2433,-202,-273,822
558,-7913,-2046,4812,-603,-486,-657
559,-2160,212,-2682,703,-167,363
560,642,1288,-5565,998,1223,409
561,7048,6905,5281,-263,164,-1107
562,3091,-3803,-7601,-937,660,1677
563,3945,-3168,-3742,1387,1184,1823
564,-142,2933,-6633,-539,1991,-1513
565,6627,-3561,7807,-609,-501,-1696
566,1991,-3555,-7876,514,-496,1150
567,1496,-1395,-1118,374,-1027,1105
568,-6420,4700,-7265,-124,286,-1514
569,-1006,-7664,-4251,-404,962,-1785
570,2995,-2207,-2225,1443,-283,74
571,-3681,4908,4792,1441,-1340,1916
572,-7249,-6332,-3427,-1304,-275,1159
573,6936,-6713,3493,669,1962,-705
574,-1636,5439,-5298,-1071,1381,-1114
575,-792,-4037,-3132,769,1465,344
576,-4082,6604,6057,-1389,1080,-782
577,-1883,-5040,3165,1159,316,1158
578,-5499,2263,-5502,-1042,-41,421
579,-5238,2736,5926,-843,842,-1121
580,-7545,-6068,-3902,1495,-845,527
581,7455,-621,-380,1601,-55,-808
582,4640,-7185,-5893,-142,718,44
583,-6144,3780,-2519,-297,-362,895
584,4862,1662,-7134,-1937,1372,334
585,1067,-906,-5066,627,-51,-893
586,-177,-3152,-1578,1925,-1822,-1503
587,-1144,6314,-6179,-1443,1922,262
588,-5745,4692,-727,-1293,898,-136
589,5986,4910,1760,-121,160,-1428
590,-7985,-4016,-6815,281,-1924,-750
591,7851,-3009,967,-236,217,-1540
592,-611,6008,1161,-1584,-118,485
593,7115,1043,4209,-1876,529,-1938
594,-2442,258,-4283,-1994,-1910,958
595,1426,7157,5599,1336,1978,903
596,6597,-1164,5,-546,1914,-1338
597,5041,-5369,3712,1278,-398,1942
598,1882,1785,5193,1337,1607,-1310
599,6183,7690,7450,-57,-224,-1847
600,236,6066,3362,340,-332,-760
601,241,-1111,4542,125,-1018,1422
602,-4105,-3637,2775,1033,-1643,1366
603,-958,5372,1691,769,171,-174
604,-4265,-1526,4246,1340,-986,-1465
605,-2178,-1635,-5961,707,-343,1161
606,1997,-4324,-110,1218,-899,-1071
607,-2848,7556,-4216,1529,567,1073
608,-1605,-3452,-4080,1280,376,-1201
609,-6976,3355,6165,-1825,-1647,-1691
610,-3531,6301,7356,1497,792,1
611,-5140,-5674,-6312,-635,1214,625
612,-7908,227,883,298,-1795,480
613,5892,7028,6294,717,1969,1977
614,5663,7627,-5574,-1805,1409,243
615,-5434,-873,6841,193,-115,665
616,-5410,7498,5219,81,-1003,1913
617,-1062,-4264,-6614,-748,-1443,-762
618,-2952,-7616,4043,34,613,1445
619,-4419,-2465,-184,-67,-49,893
620,-6753,-1642,-1389,766,-783,502
621,5435,-4572,-6738,-1149,1197,1640
622,-3932,6895,4298,-1286,-1065,-1651
623,433,-6521,3926,941,1078,986
624,3775,-5513,-6406,-1478,-512,-1794
625,376,-3399,7946,1287,1066,783
626,146,-4913,7716,-1238,-1444,1988
627,4329,-729,-5599,1013,-1708,-119
628,1597,-5376,7028,-250,1705,1858
629,1444,7428,7049,20,-1604,-716
630,164,-5502,-3196,-138,222,379
631,-5615,5295,-4221,415,-289,1953
632,-4414,2234,5628,-954,1296,1932
633,1679,262,-139,-600,-1469,1848
634,-2229,-1924,618,-1399,-1238,-1957
635,6618,3098,-1208,-1863,1423,-554
636,6767,-2251,7095,-1924,331,-481
637,3093,-7018,3319,647,972,1398
638,-3511,-2786,2223,1552,894,723
639,1758,4006,-5508,-109,1772,1852
640,-7346,5639,-1626,895,-476,-796
641,-1118,4025,-7758,-338,446,1329
642,6360,-3743,-3717,1095,371,866
643,6127,3357,7996,1148,-1197,-1239
644,4969,-4219,4936,263,-500,1784
645,6922,608,-2020,1768,261,-1287
646,7396,5785,-4111,1117,-550,1989
647,-1574,-6873,-3653,-288,1916,9
648,-3230,6640,-3543,-93,-1534,-517
649,5668,5277,5408,633,-567,1740
650,6970,510,-7823,1732,1004,-1682
651,1390,4908,-2607,194,-1333,-339
652,1840,1501,1309,305,924,-1070
653,4765,-895,3322,1873,-452,1668
654,7374,-4916,3564,-1229,350,-1425
655,179,-7884,635,46,697,-990
656,397,1440,3459,-1382,-12,644
657,-2758,-2549,-2583,-913,578,-1452
658,3768,-7355,2557,-889,-55,1544
659,-1018,-5992,-789,1852,-941,-98
660,7528,-1393,761,335,-564,-1302
661,-7881,-5811,2574,-378,-834,-1573
662,3773,-7978,-4706,707,1971,-1831
663,5009,-4958,-2645,-1082,-1405,538
664,-4779,2273,-5197,-88,169,454
665,5975,-4784,749,-917,1970,916
666,-3988,-6617,340,1550,447,977
667,2784,-7521,5926,1888,1769,-1506
668,-5906,5869,3475,-687,-372,1314
669,1450,-6032,-6175,1969,-1993,-725
670,1776,-2092,4288,431,-590,1817
671,-4157,-5579,-2340,1680,-1605,-1613
672,-2611,-6150,5210,-115,73,-1871
673,-7618,-920,-6870,-319,-190,-551
674,-3674,-603,3458,750,1326,469
675,-4356,-5168,-4687,-1674,419,1129
676,-946,4044,4823,600,-771,-630
677,-2419,2708,1539,-160,509,1632
678,7970,219,-5017,-368,-793,560
679,4724,3099,-7664,-1310,-263,761
680,-5321,-6322,3551,-472,-1869,-1740
681,598,-4490,7737,-1615,1357,-509
682,-3638,3146,-3412,1392,-1319,1384
683,-5168,7637,-4869,-1487,1939,136
684,-1330,-4123,-1565,1843,-219,1297
685,-6309,4577,-4343,86,1813,1941
686,-6157,-3098,1834,756,-829,816
687,-5378,-4608,-2959,717,-1743,-837
688,-2292,3322,4982,-1175,-419,-1552
689,3799,2454,-617,-799,1677,-959
690,7365,-4200,-2422,200,-779,43
691,-3358,180,6749,343,-1556,661
692,-5020,-141,6299,-988,794,1604
693,6039,1574,7145,1045,-542,-476
694,-3952,-6706,-7317,1682,-251,-965
695,-6596,-5533,-2418,1571,1900,1071
696,6834,5827,-5699,602,-625,1817
697,2247,3036,-4282,-1654,484,-779
698,-6242,6443,7391,50,-796,-1468
699,126,459,-6765,-1955,1164,-1165
700,-321,3569,-5203,-877,229,1691
701,949,-7064,-6330,233,1952,867
702,708,-6668,1554,1178,-957,326
703,-7091,-6958,2096,-249,-494,-1492
704,-1309,5033,7932,-1084,1202,-1013
705,-6549,-5788,540,56,1804,-876
706,-6863,-2091,3210,-437,1320,-864
707,6113,991,-7364,653,-1786,-1254
708,-1304,-824,-5904,-916,1818,-914
709,38,-5908,2423,1892,683,482
710,-5124,-3407,-1945,996,1709,836
711,-2814,-6587,-5096,-1616,591,-933
712,-1017,5703,-5484,1314,-1729,-248
713,-4690,7748,-517,1875,192,1338
714,-904,562,6644,-739,-1684,732
715,6522,2424,1915,-1623,1348,-1452
716,3403,7921,-6702,-1837,-827,-518
717,-5537,7771,-4739,-1614,-99,-24
718,-7041,4143,7454,1138,-880,-1690
719,-7112,1696,-5861,547,1942,-948
720,-6779,-6645,-4706,367,955,-1792
721,6994,2372,-298,-1752,1508,-954
722,7062,880,-323,-749,869,-1228
723,-5802,2390,-3729,1543,1953,599
724,-3464,2035,2847,-228,-1450,-1837
725,4330,3416,3214,-1636,-424,1212
726,-5619,-6228,-2436,449,321,871
727,-4797,-2694,-3888,-181,1134,-251
728,467,389,-1618,565,-292,-1750
729,2982,3063,-4912,267,546,-1629
730,-4185,-4824,4719,-1624,1443,523
731,7987,1922,2962,338,374,1351
732,-5789,4894,1430,-754,1969,-864
733,3532,5422,-2069,-1628,819,223
734,-485,-6462,-5381,1753,-1787,1868
735,1713,7266,-6241,1223,-1491,-398
736,-3820,-3331,-282,1098,-1164,493
737,2313,-4367,-5621,773,-1324,-695
738,2322,5036,-541,-589,-109,-1211
739,392,-1047,7118,-1919,-1627,378
740,-4739,6504,-111,1172,-1590,-483
741,5188,-4841,2046,1797,188,1052
742,-391,2607,-6595,-1149,-1767,182
743,-6758,4862,-7052,-171,210,-1200
744,-7389,-2225,-1110,1722,-75,-1936
745,-1739,593,5709,252,-1880,716
746,-1728,2097,6548,-462,-723,901
747,-7973,-3414,-4921,148,1322,1630
748,-4261,4211,-5916,-1824,-1153,-1366
749,-7875,2985,2436,454,1074,617
750,3828,-3274,4325,-1474,-264,-870
751,-7138,-4734,140,-1084,-1518,-1597
752,107,-3160,-2101,1417,-1298,-605
753,2364,4719,3942,-1285,1294,1738
754,-7225,-4874,3283,-675,139,1621
755,-1593,-2018,4182,-1421,587,-1242
756,5628,-5539,3898,1173,-1403,384
757,3317,-3087,2129,1823,-667,837
758,-6189,-4281,-186,-1281,1587,1633
759,-7145,815,6919,-44,1185,-1903
760,7552,6408,-7370,255,-1505,-1077
761,-6536,-1947,2844,870,957,587
762,-1401,-1823,2463,-1442,-1498,1697
763,-5086,-3434,-2475,-589,506,1617
764,208,3177,-6379,-1004,-1679,438
765,1267,4931,-1383,985,910,-749
766,-6882,-7523,-3499,582,-1519,403
767,1287,5265,4829,480,1692,653
768,-7128,6415,7036,845,55,1623
769,6614,-4702,5954,1796,-578,-347
770,-6100,-1983,-5,-397,922,895
771,-5861,653,3686,1910,-1516,-1741
772,2208,7248,54,1752,-1175,854
773,-2687,3802,4935,904,1371,1324
774,5700,5516,-7101,-1641,892,165
775,-4408,1992,4355,1418,344,-664
776,4327,-2080,6751,742,-90,-449
777,6161,-4646,1947,620,-1116,494
778,2342,-449,-3492,877,-279,655
779,7300,-664,490,-843,-1668,1007
780,-4813,4626,-792,575,466,430
781,-240,-2639,6608,1950,110,1198
782,-4740,2857,-7712,-1606,1283,-812
783,-5081,-3835,-3957,-601,-690,-1486
784,-4860,-3977,-1320,-1151,-94,-1322
785,331,-2135,6509,-1170,1295,1231
786,-5118,2989,1998,-1009,-890,1204
787,5178,5614,5709,-1206,1280,1130
788,-6766,6675,440,-1935,1121,593
789,-6017,-2385,2462,1481,1208,136
790,5108,-6562,2483,1324,1774,454
791,6381,-5435,4566,-518,481,-537
792,7136,4358,1130,-123,144,-1319
793,-3663,7409,222,850,574,-1807
794,-1985,-5007,6837,576,1758,496
795,5855,-7923,4740,1427,1907,1336
796,1700,-5727,-645,1658,-333,-13
797,1547,3478,6948,744,-169,-896
798,4490,3001,5270,-1841,-443,-1558
799,4318,-7771,1230,1516,-1077,-1332
800,5524,-5327,5910,-1968,897,-890
801,-5023,7535,6387,402,94,637
802,-5650,1095,-1750,1768,-850,-1469
803,3116,-2431,4953,-98,1251,398
804,-7656,3685,-5665,1091,-1964,-1782
805,-7680,-1183,-2681,87,-84,-913
806,-1563,-4351,6698,-171,-653,1745
807,7696,-2266,-751,159,56,1575
808,-7207,4618,7770,-1287,1650,1888
809,6540,4178,2041,-1865,554,1061
810,-4362,2244,-6182,1253,523,1622
811,212,-1173,2027,773,-939,756
812,-6638,4390,7291,1229,-1496,-1823
813,-641,813,-3348,1164,1574,-1182
814,4187,-6319,-2633,72,-124,-415
815,-1711,-511,-1058,-1639,-1461,-1071
816,-2184,5451,2203,509,-874,1829
817,1522,-2850,207,46,-412,-371
818,-2977,2235,1078,1950,903,-1864
819,-7648,7233,7156,1624,-803,1594
820,-3731,-3644,-312,1754,782,-393
821,5298,1559,2801,1803,1089,-259
822,-3329,-4361,-4970,-327,-1892,1517
823,-4206,1214,6517,212,-665,-1383
824,-273,-6407,5480,-135,451,-956
825,-1414,-6366,3169,-284,-178,-1469
826,-3286,3936,4773,62,-709,566
827,5672,2697,-4435,1734,-1436,-1137
828,-6966,5053,-5186,165,-913,1680
829,4735,-404,-420,-107,481,-706
830,2495,5392,2265,285,-1791,-1637
831,3994,-4297,-7016,-114,-1522,492
832,3311,2799,-7721,-1936,207,-666
833,6413,-404,-6145,-247,162,1251
834,-1794,-4065,-25,38,1207,1012
835,-267,2691,2952,-836,-684,840
836,2951,649,-7928,-1562,-939,-1974
837,2898,-5354,2516,1166,627,631
838,7406,-3483,-2048,-644,-1207,-760
839,1479,2221,3716,-1839,1347,-390
840,-1357,3328,4315,-537,465,-178
841,-144,-12,375,-161,129,1196
842,5483,735,-573,-1875,-1019,1566
843,-949,1541,4461,1105,-1750,-1929
844,6529,-1665,-2344,379,-30,731
845,-4452,2491,-5394,1974,-1519,577
846,2911,-3055,1688,120,-833,197
847,-5664,1222,-2707,1961,1104,1592
848,-7863,4124,-1711,-591,-1480,-1775
849,6748,-4847,-6099,-326,823,-1066
850,-4650,-659,-2074,-1729,1892,532
851,-6602,-7081,2920,-1367,482,1765
852,-7038,5289,-827,1614,-224,1266
853,-3622,267,7157,1009,-1397,1558
854,1312,-2116,898,-582,361,-897
855,-4938,7294,2913,601,360,47
856,-5308,5112,4266,476,435,-161
857,-2103,6392,-6367,-1985,-920,-1936
858,-5479,-1229,7283,595,-322,1343
859,-3057,3791,4849,-310,-723,-1692
860,4169,591,-1180,123,1714,1610
861,-601,2978,1130,1559,1626,-615
862,-5270,-2795,635,1736,-1293,1960
863,1260,-3528,2902,-37,432,-331
864,1584,-7190,-452,965,436,-777
865,773,-3931,-2012,-830,841,-1006
866,4574,1002,-3308,1099,658,689
867,-265,-1100,-4696,-1241,50,-1107
868,-2248,973,-1549,-1980,533,-998
869,-848,388,-354,1866,1484,-1891
870,-3701,-3017,6219,196,-1811,838
871,-4602,7686,-2934,-822,-1612,294
872,-3698,5216,-2417,-320,-1614,534
873,5987,6109,-5816,1958,316,-375
874,7788,3223,-763,-1072,-215,986
875,-5711,5244,7683,-1036,-631,-411
876,-4039,4569,-2188,-129,-10,-576
877,-3,-1399,3437,-1714,-1858,1329
878,-1330,-4767,-6859,1902,903,1682
879,2935,-678,-1488,615,-278,465
880,-2730,-1924,-2999,-1780,808,-1812
881,-5028,7849,5629,-1091,281,873
882,2436,7888,-2736,-1579,-1608,-253
883,37,-6935,481,-160,1208,-1950
884,-6366,2846,5358,1238,1810,-471
885,6789,-3250,3657,-977,802,-1802
886,3587,7923,6773,1312,-305,-695
887,6826,6906,4251,-1954,682,1120
888,1245,-6757,7232,74,-1860,-1472
889,5633,-2686,7860,-1887,1300,-516
890,2303,-2088,5756,1610,1277,1050
891,-5370,4530,3806,-1200,1344,-1094
892,332,6357,1445,-1390,1604,1530
893,-4776,-4782,5966,477,319,-1916
894,18,3360,-2251,-827,1906,450
895,-7042,3073,2704,-1285,418,938
896,7751,-2949,-7766,-1517,-1205,-196
897,-51,7547,-259,-1360,490,252
898,2979,1190,7455,-1316,-51,-472
899,-3648,-1817,7224,-1496,-220,-1985
900,7284,-6376,2279,-729,1606,-243
901,4788,715,-1444,-784,402,-1928
902,-3175,5539,-5631,-1449,95,1790
903,6661,2533,6088,826,-1504,746
904,-6100,3762,2471,-1198,985,589
905,-617,-1540,5250,-1919,734,-1967
906,3130,6001,145,1740,922,779
907,5826,-1001,-1315,53,1332,-1255
908,-3704,4608,-624,1281,1291,1298
909,-2157,6687,4363,-871,916,1563
910,-2247,-3572,7211,-516,275,588
911,-6375,3190,6975,1903,357,-214
912,-2652,1572,4683,184,1244,-297
913,-6581,4832,5411,271,-210,-598
914,-7090,-87,5098,-770,331,780
915,2366,-4185,-3270,-1819,1062,1246
916,-3457,3862,-2869,-1972,1948,1675
917,3622,-938,1127,-1835,788,-854
918,-5934,-745,940,-338,-1874,-1478
919,-3638,6376,3879,-1607,-797,1414
920,-7588,2705,-7521,84,-77,201
921,-6383,-2382,-5571,1141,1439,-878
922,-4646,-7553,3527,-1738,-265,-442
923,-4705,16,-515,597,-253,-1117
924,3285,-3293,-6670,1572,-571,1188
925,-1991,-3860,3824,1353,1331,1466
926,-1710,1186,196,-1902,735,778
927,-2200,-5458,-689,-43,-264,417
928,6687,587,-5345,-1994,-178,1068
929,5299,-832,7141,-1781,-1010,-1798
930,4445,2346,7089,1341,749,287
931,-4659,-1358,1841,1740,-195,591
932,3806,-4216,750,442,127,844
933,5697,7516,6672,-1259,264,36
934,4845,1033,2024,-1341,-1319,-1925
935,-455,980,2014,1476,-1230,-711
936,-4012,5458,-6765,-1777,-500,894
937,-7717,-7555,-12,-1124,1863,1702
938,-7627,3313,-518,-1241,1272,1216
939,-6550,-1152,649,10,1327,-1159
940,6577,6277,3658,-1226,347,1324
941,-2519,6831,6417,-1625,1021,1743
942,6039,7758,7043,-484,-179,-1390
943,-5615,4331,-6114,-1175,-1336,-1818
944,-4404,-6671,974,1555,1752,-1376
945,6438,2715,-4496,-916,98,1615
946,-1257,-3526,4973,1068,1981,-758
947,-2732,7876,-1469,1661,-1087,448
948,-2943,-7662,-7843,417,-546,-1187
949,-4553,5983,-4716,1891,-365,-726
950,-3932,7452,-1306,1285,-441,366
951,-2708,4281,-6412,985,76,-423
952,3828,-4124,-5340,-1898,-1559,1696
953,-3400,-6115,-2480,1216,849,120
954,4624,4728,-4837,1973,724,-1573
955,1660,7911,-875,18,913,-475
956,-6736,-2944,-1917,517,1784,804
957,-1217,1227,3650,1893,1440,659
958,-5099,6388,-7444,-1273,-1222,1716
959,7585,-5761,-1163,1781,757,1014
960,3044,-5916,-3013,-1841,-81,1794
961,3929,5477,3286,1805,-1706,1990
962,7867,-163,-5663,1269,310,-711
963,-5230,1898,-3623,-344,222,1997
964,-6145,-573,6388,-1119,309,1867
965,-4053,4236,1276,-1628,-1590,-1994
966,4934,-5724,4700,-981,-1834,-903
967,6275,1720,7353,1194,749,-1118
968,-4862,-4006,4615,-7,562,-1803
969,4453,-5654,-2774,-1357,-825,948
970,1590,-2331,7783,14,529,-635
971,-2210,-5271,6849,-976,-53,-1414
972,-4147,-5418,4489,1068,-859,-347
973,3370,-4290,5923,-1235,337,-1008
974,4909,1861,-3070,119,-120,1380
975,4048,-6999,7833,945,579,-1879
976,2979,-1850,-5729,1957,-897,-908
977,4889,-4982,-6719,-995,-1010,-1277
978,4973,-6817,6141,-1272,-378,138
979,5372,-768,-3124,1687,1810,14
980,5389,4379,-3831,1890,897,550
981,4915,5987,5921,-311,-21,-1368
982,-2809,-4172,-1690,824,-857,-788
983,5885,-5061,6322,-1475,1333,-1827
984,-4573,-6922,-1688,-1744,-878,-1132
985,-2034,7402,-6486,1431,1334,-991
986,-7525,-1510,4264,1506,729,665
987,-1741,-5413,7834,-1428,109,94
988,847,-3679,-4985,-563,-787,353
989,438,526,7233,-397,1509,1177
990,-4568,-4081,6359,1279,-987,-137
991,-2598,3439,6171,-560,-1113,-1442
992,-6788,3497,387,-1541,-1785,-1625
993,3937,6775,2363,-719,448,509
994,2134,6482,-4467,1342,-1150,55
995,-1001,1788,-1671,882,1105,1459
996,356,1543,-7031,108,-1440,997
997,-2595,5383,-6940,-1060,-607,801
998,-6827,-1201,6404,733,1467,-2
999,2920,-89,6997,-1943,951,964
1000,4727,-6994,-5730,-713,-13,-1906
1001,2444,-5093,5096,45,-1573,291
1002,6953,3895,6177,957,-755,-838
1003,-1035,-2766,-1037,981,1237,-1413
1004,-1446,-965,-2818,1121,771,24
1005,5439,-4301,7193,874,659,-1532
1006,-2161,-2587,5805,1920,358,388
1007,6072,881,-6584,-1167,111,1057
1008,1412,-3359,-2665,1772,-1416,1199
1009,-2050,7533,6795,1124,668,1189
1010,6952,4903,-2322,398,-1219,1512
1011,3414,-2922,-4832,52,511,1353
1012,5356,4537,2240,-447,-1091,571
1013,-109,-862,6030,-409,1823,259
1014,-50,-7720,-5947,608,-889,-558
1015,-2064,-781,-6932,1038,-381,-1995
1016,3644,1177,2944,1662,614,-772
1017,996,7425,-5548,-1496,-128,1502
1018,-4420,287,733,949,1628,-1473
1019,-4041,1330,-5176,-1656,899,1431
1020,-3332,3407,7163,659,-89,-1656
1021,7842,-833,6339,1224,-1546,-47
1022,6286,-5301,4333,-569,1377,1159
1023,-6711,2029,-1148,1244,-116,982
1024,-4514,312,687,1358,-348,-904
1025,7848,-5331,292,-1708,-45,1498
1026,449,676,-6830,-573,437,1540
1027,5732,7187,-5021,-1932,-1861,1898
1028,2338,3519,7133,-1133,-147,-227
1029,1872,-136,996,1620,-1066,1231
1030,-4987,7879,-4220,-518,-311,277
1031,3156,3832,-4312,-909,1123,616
1032,-3641,824,7568,1377,-1787,1141
1033,6069,-2854,2850,964,-1315,-1063
1034,4210,1025,-1832,-1548,1631,87
1035,-506,-7287,-1916,1447,-309,-1246
1036,-7015,-4142,4656,-1486,650,1402
1037,-6397,5888,-5605,-1221,-1626,401
1038,7772,-1528,-5687,470,1854,1214
1039,3859,-4239,3044,1808,-1480,754
1040,3595,-5068,3374,-481,1119,-1971
1041,7798,1461,-220,1106,918,-16
1042,-133,947,-2276,954,470,54
1043,-1758,3849,4690,-989,1588,-1558
1044,-7545,7040,7231,-691,-206,1579
1045,1421,5212,-7030,1708,564,608
1046,-4917,1336,-6435,-1342,648,-958
1047,296,4340,4288,183,297,362
1048,5715,-691,-3713,-1635,-401,-1546
1049,-3501,-7005,-4935,243,1090,1814
1050,680,6173,926,1532,1486,-404
1051,-5522,-6360,-4926,-1579,726,469
1052,361,5295,-7037,1223,1585,1949
1053,-5160,-428,-2488,518,-1349,-1528
1054,-7402,5906,4094,1332,1725,-1232
1055,-4050,1074,7974,-992,-1952,785
1056,-6727,3247,3001,-1141,-436,750
1057,-6217,-3885,6878,-215,-1040,1008
1058,6051,-3881,-4456,-714,-1384,-347
1059,-4277,1796,1372,-154,-1114,-1922
1060,-6576,-6125,-995,3,-115,1223
1061,6866,-658,479,186,348,1578
1062,-1329,5063,1801,-196,-223,669
1063,-1057,-5516,6458,860,1773,220
1064,1153,-3993,-2105,525,1263,1441
1065,6628,1405,-420,-1156,412,1315
1066,-2038,4150,2678,-1901,1155,-108
1067,5552,2907,-2464,-1742,1126,-666
1068,-963,-158,-3626,-883,-76,-869
1069,-2430,-2166,6948,-1857,-672,980
1070,-3602,-3767,1471,36,664,-1575
1071,1732,-3708,7010,-370,-467,-200
1072,-4766,4822,-2692,186,-522,1638
1073,-3955,-864,4404,-172,697,-1436
1074,-819,368,-117,939,906,-1990
1075,4224,-7346,4286,-156,-781,-1310
1076,-1352,-5821,5335,1120,502,835
1077,-4436,3240,-7174,1786,882,-512
1078,965,562,-7217,-683,1892,1305
1079,7626,-1866,-3262,479,-204,1304
1080,-5630,-3383,-3179,1946,-1444,-221
1081,3294,-3701,-577,-298,-1024,1891
1082,5706,-2963,2583,-1965,-606,-1381
1083,845,-985,-753,1389,-1249,-1362
1084,-4988,-2226,-3458,978,-1595,458
1085,208,-3388,2830,-1218,1752,-592
1086,1434,6764,292,17,-1420,-1026
1087,-6932,-4034,3566,164,-1566,-1453
1088,4659,-2706,991,-1788,-1739,-31
1089,6941,2576,-7977,-686,-1059,-1089
1090,-4515,7087,-7796,-126,-1220,1010
1091,-5053,-1877,-7147,-429,1071,-1387
1092,786,6372,3247,-403,1364,1761
1093,3481,6677,5889,-1059,-1347,-1030
1094,1419,-563,1168,453,1042,-646
1095,-6022,949,-5017,-1008,-934,-33
1096,1982,4248,4359,81,1053,-1153
1097,-7216,-6444,26,-1559,-272,-663
1098,2169,-5209,-1381,-274,697,1545
1099,4985,966,-1274,709,1443,-1017
1100,-1997,6090,-5232,-1775,565,132
1101,7440,-4320,5932,1107,-1559,1798
1102,7804,6614,861,560,-816,251
1103,3553,-505,-3855,-1612,-1025,-56
1104,-4518,-3072,7424,-1572,1292,963
1105,-6509,5841,-6636,-573,-1010,1487
1106,-7636,-7175,-5918,-913,1327,-213
1107,5930,4760,-6911,-700,-610,-740
1108,4142,6202,6519,292,773,1778
1109,-5519,-2415,-4090,1179,-415,402
1110,-1200,7908,3821,1947,-616,-1959
1111,-6393,1067,7378,-1681,-1100,-710
1112,-7563,-923,4020,1145,1296,-494
1113,-483,5150,6855,81,606,248
1114,4842,6567,-6070,1412,75,-1137
1115,1921,-4396,2807,883,1854,-886
1116,609,175,-5111,-1232,-1324,-920
1117,3866,-6019,-231,-1521,-268,-486
1118,7516,-2994,3085,84,-744,-1933
1119,-7457,2767,-1918,-16,1,-987
1120,-3935,-3848,4442,342,1067,-245
1121,-5747,-2492,-7808,-582,1739,-50
1122,746,-4853,3285,-81,1559,-648
1123,6568,-4823,-24,919,-1462,-538
1124,7990,-619,544,1471,756,806
1125,-7587,6405,5496,561,552,1626
1126,5711,-5999,-7325,1418,-402,-1335
1127,616,-2394,-4833,-1496,-1014,-1655
1128,-7239,3364,7640,-1040,1209,665
1129,4461,-2417,-2832,1222,-785,820
1130,105,-2667,-233,-1039,1667,-1102
1131,-6080,-2564,-5194,-538,-264,-468
1132,-2127,-6128,3282,1403,-3,-852
1133,-4251,5600,6498,-750,-1234,-252
1134,3232,-6528,4333,441,-1377,-1616
1135,-6195,3925,7934,-1115,1435,1000
1136,-6055,7244,-2632,1515,1749,-1042
1137,-5286,4322,-1283,1325,616,-884
1138,-4737,-1360,-4316,-387,1897,-389
1139,3819,7138,3290,-504,-166,255
1140,-4217,-7269,4772,269,-565,685
1141,-6488,-3808,-4934,-1971,1955,-937
1142,-3892,6645,2935,311,1467,997
1143,7312,2514,4041,-1903,-1706,-1610
1144,-5334,6728,6048,544,1983,1617
1145,-3939,-3232,-996,-428,-1986,-1154
1146,3076,3328,82,-1453,-883,-896
1147,1094,7824,7485,1533,1919,-523
1148,-3453,6936,-1280,208,433,1719
1149,4745,6659,-3191,-1337,1187,333
1150,-4062,6121,7993,-1919,1268,-295
1151,2463,3411,-5924,1565,707,-522
1152,6213,4635,-3994,-1643,681,718
1153,-7833,7930,-1437,816,-432,1467
1154,5854,2804,1660,-349,1950,1905
1155,7333,6985,6641,-1084,810,863
1156,5504,657,2118,1989,1785,-1330
1157,6117,2760,-2745,899,-1883,-845
1158,4003,-7711,1062,-1581,764,-1509
1159,1265,-6241,-5778,-1925,359,294
1160,-6175,-6592,5672,752,-388,1355
1161,177,5410,6427,911,-1649,1613
1162,-3703,-2220,2439,1429,1634,-1637
1163,-5756,3975,-1478,1029,1465,-514
1164,-5488,-4740,-3812,-1958,-569,67
1165,7874,-6834,4239,-795,-927,-1925
1166,7497,7832,1828,1073,1727,812
1167,2090,3487,717,1914,-462,-145
1168,6657,-5692,-3437,1638,-1547,-471
1169,5620,6817,-3640,-1479,-272,1449
1170,-661,-6562,7035,-853,-44,-1160
1171,5488,-340,-171,1718,-1922,1357
1172,7827,-6393,-6663,1188,1291,-1633
1173,-4196,-5930,-2770,-1439,-1830,1203
1174,6981,-3255,-2256,1848,-720,-1093
1175,1866,5180,7096,192,893,688
1176,-117,5608,-304,985,-1698,864
1177,614,-7910,-2836,1190,-1872,-1861
1178,-520,-4891,-3183,-945,-1650,83
1179,-7417,-2155,-1200,-164,-1692,-1881
1180,-352,7019,6766,142,-838,1779
1181,-5708,-1250,2707,-1423,-885,-1252
1182,7680,-7714,4330,1007,-1605,1253
1183,-7708,-2906,-5650,-43,-1076,-1686
1184,-4874,-6861,4574,-1606,-309,-1349
1185,-3324,2783,-5874,-236,-379,6
1186,7,1280,-3392,-729,-1527,1504
1187,-7749,5382,-243,-570,-1557,901
1188,5552,-4477,4661,1861,1119,-1326
1189,-1815,-3544,-7428,151,-1420,-951
1190,-5567,5552,-2674,1539,-1626,861
1191,-4773,-4798,-3410,985,1203,-1351
1192,6064,4405,1567,-1149,1760,67
1193,5313,1816,-7593,-1071,-1352,266
1194,-7451,-1162,2280,-848,949,1671
1195,7577,-6605,131,1043,-111,-1716
1196,3277,-4542,4168,-1952,-1933,1758
1197,-1228,-5984,1517,1994,-189,1631
1198,-7923,7982,-6658,577,-430,1061
1199,-759,5503,6855,737,-1569,-852
1200,6747,3671,6265,-918,738,1360
1201,1741,2730,644,289,1545,331
1202,-7558,-3545,5884,353,309,396
1203,199,-6340,1664,-1178,-1986,-1322
1204,-481,-4600,-2207,35,-1436,-677
1205,-7496,5627,194,-1943,-1858,511
1206,2768,6900,2312,-768,1871,-1382
1207,5252,-1820,3074,1911,470,1170
1208,-1798,6537,-1886,589,-1784,84
1209,-2387,1154,7258,721,211,-1504
1210,-7072,-5012,-4103,781,1182,393
1211,519,4594,2828,-1813,-554,342
1212,1823,-5987,3535,673,1161,658
1213,5599,399,-88,1931,333,1664
1214,-2519,-4144,6257,-1268,1907,-1636
1215,7225,3360,-5711,1492,1716,1519
1216,-5600,-6238,4585,-1858,-1603,-1098
1217,5392,-2534,-6940,224,1399,1483
1218,7106,-3334,-227,-1557,1991,784
1219,5301,-4241,-6079,761,-1146,-734
1220,5033,-5424,5735,1834,701,1784
1221,6694,7979,-6540,844,171,100
1222,5108,-3109,6178,400,-1998,-971
1223,4557,-2486,4987,-1155,-828,1017
1224,-3754,2996,3258,1318,-675,470
1225,3955,6836,3316,-1787,728,776
1226,-6508,6876,7871,-2,-1606,1591
1227,3193,-4871,5340,-293,227,1233
1228,-2073,-1575,2428,1985,-667,-986
1229,-3269,-817,-1302,1424,-1626,871
1230,-3514,-7551,332,-704,-578,-1748
1231,-1837,-5340,-7101,-255,-901,294
1232,2181,7672,-681,-405,1848,1676
1233,-6049,-6350,-4523,547,1879,1268
1234,4491,-76,-6961,-1409,1661,1369
1235,-2826,-5121,-4055,-1734,-7,-632
1236,-5048,-1945,3369,493,1226,854
1237,-6036,-4942,2861,124,-288,-462
1238,3254,-3079,-4974,-1767,-1498,-828
1239,5809,-7678,5459,1106,-341,1905
1240,-6937,4929,-624,-1335,-101,-1112
1241,6257,7284,-138,1501,-622,695
1242,978,7401,7770,-808,787,-1904
1243,3505,846,2168,-516,989,1073
1244,-6147,6700,-3505,-698,860,415
1245,-6621,5624,5609,874,1265,595
1246,5975,627,-903,366,-8,987
1247,1072,1379,7638,1949,-136,1863
1248,-1985,2303,-7348,-177,-606,-1701
1249,53,-2787,-5389,1804,1310,-710
1250,-5380,-6284,130,-1152,-1659,1037
1251,1716,-2825,619,1085,1968,853
1252,-2152,6436,2352,-786,1298,606
1253,-2248,-1684,6121,1542,-1282,-649
1254,-1623,2252,4754,1831,-670,1803
1255,-2325,1829,5992,1011,1608,1877
1256,2029,-6300,-7750,992,959,403
1257,7354,40,-760,69,-60,-142
1258,-1012,7728,-2335,-217,546,-533
1259,6538,-6192,-735,1956,-1859,1866
1260,-6765,-1621,4528,599,-745,-1252
1261,-1736,3091,1807,-937,-1608,-1588
1262,-4177,6768,7769,-82,-1620,1984
1263,-6808,1385,-2445,1943,707,-610
1264,2217,-2174,-4355,-319,-564,475
1265,-6460,-3359,-1774,844,607,-128
1266,-4048,-5033,-1554,15,1979,1439
1267,-5954,-4710,-2722,-257,965,905
1268,2379,4394,1040,-1282,-1751,-1288
1269,-6369,-5767,3816,-898,1399,-1053
1270,5104,-6029,-2416,-96,790,785
1271,5647,1243,5012,1976,-135,476
1272,-5813,-4754,3408,-663,-1764,64
1273,-82,-4783,4690,1134,889,-1669
1274,-7136,-4098,2766,-1196,1523,52
1275,7013,-7389,-7227,1562,-418,1338
1276,1599,6426,4562,-558,1976,-333
1277,-3950,-2721,-5906,614,993,240
1278,-3201,5242,833,652,-129,-1153
1279,-6336,3268,3579,-719,1127,-669
1280,-5152,-4724,2728,249,-1087,1563
1281,26,3615,-6158,-970,-41,342
1282,-2561,-6085,-3229,1239,455,323
1283,-5009,2141,1653,-162,-52,-171
1284,-959,-2419,-7865,-264,1406,184
1285,-3650,-6683,7293,-1803,-1785,-323
1286,5059,7263,5231,508,-446,-1197
1287,-5260,4407,-4768,-1285,530,-1315
1288,-408,-2759,-6491,-112,-102,-1973
1289,2582,5372,2262,857,738,-1732
1290,-6542,2466,-2413,105,883,-547
1291,-386,-4040,-198,-1158,-1539,-661
1292,1530,-4738,1960,-509,-935,-1654
1293,-6400,-7343,-394,-1207,1632,-1651
1294,7918,7820,3975,-455,-875,1230
1295,-6128,2454,-1456,-1932,1901,-263
1296,6143,4067,7941,-624,1335,-1391
1297,-3380,-2819,5860,-894,1720,9
1298,2357,7142,3612,1500,-1598,-1918
1299,-6018,-979,1469,-1439,827,1890
1300,1938,-2102,794,-493,-227,181
1301,-5917,-1670,-5821,1636,-1398,769
1302,4170,2346,5040,-6,-581,-1936
1303,5592,-7474,1715,-1471,-1200,-1956
1304,-7948,-6453,-2608,211,-1558,287
1305,1852,5588,4433,-1661,1420,-248
1306,-5372,1036,6850,1543,1426,-568
1307,1717,4840,7333,540,-1968,352
1308,-6172,-3410,875,1728,1829,641
1309,4691,7786,3263,1152,-1054,-1059
1310,-436,-2087,6004,-230,947,-283
1311,595,6764,6104,1613,1907,-69
1312,-5584,-4113,7107,900,1182,-1742
1313,-4158,-5866,1859,-570,154,1643
1314,-3662,5292,7653,-1428,1920,-1335
1315,701,-2557,7423,-1975,785,-804
1316,-6686,7381,-6907,-1960,-93,-300
1317,-3387,-6043,7617,-506,-695,-1388
1318,2204,-5114,4807,-541,-1128,-1321
1319,1259,1645,2261,-387,-497,-808
1320,-4956,-6343,5554,-1451,-1407,-1883
1321,2209,-7805,-444,-1174,1289,710
1322,-208,6433,-7987,379,-1168,1640
1323,1598,-6232,4277,-1806,-300,-216
1324,-2045,4996,6753,-1664,-872,1987
1325,-6574,-4510,-6459,-975,-572,-1953
1326,-1783,-5559,1265,1123,1181,20
1327,-3289,-6989,-173,915,-1281,1122
1328,5585,-7243,461,-676,22,751
1329,6867,3548,4906,-1811,-1428,1345
1330,4662,-6131,-4991,-850,1431,-1293
1331,-24,3899,2588,1847,-719,-822
1332,939,6375,2044,-786,-1753,-437
1333,5643,41,-721,-1311,608,-699
1334,242,7637,7038,-14,675,1543
1335,-7275,3092,7340,178,-329,1753
1336,696,-651,6252,1825,-1525,-22
1337,2548,-3882,848,-104,-5,-1945
1338,3468,-1309,-2113,-920,1760,942
1339,-7538,-2911,-7813,-1757,-1468,1363
1340,-3257,5161,-3750,-914,1093,-1302
1341,2437,7064,3821,1838,44,1694
1342,-1258,4950,4191,-849,693,-1089
1343,5840,-3337,-1280,-414,524,936
1344,-3498,2507,3422,1145,-1992,898
1345,6168,1586,5319,325,-1483,500
1346,1721,7997,-2065,1069,1214,297
1347,-4291,-3036,2884,220,1662,1845
1348,7130,5564,-7174,-1457,-461,976
1349,-2939,-3118,6860,721,1085,-87
1350,4381,6213,1470,-673,1486,1521
1351,-879,5701,4791,-1831,561,1391
1352,5774,6544,5988,1630,661,1528
1353,-927,2902,-7474,-299,-988,718
1354,3527,7962,6090,1054,-961,864
1355,-3685,4278,2553,1894,967,-576
1356,-7202,974,-7773,-1748,-992,-1401
1357,6461,-5787,4503,684,428,-1150
1358,-970,5085,3739,254,-396,-1466
1359,-6300,-5024,-1601,-497,1787,635
1360,4446,-3325,2090,-1255,392,243
1361,-137,-7277,3493,951,-629,-1031
1362,-1036,4899,1064,1594,-416,660
1363,2369,3390,-5043,1077,-1888,-1036
1364,7358,-5437,1346,885,-811,-496
1365,3078,-5855,-5810,992,1681,317
1366,7237,-4716,-1851,672,-1956,967
1367,-2755,-7814,-5092,920,-261,-1921
1368,608,6965,6891,-711,-833,677
1369,-2483,-981,4022,1429,-1048,180
1370,1279,965,6920,1975,705,776
1371,3550,-6013,4809,-1065,-1394,1255
1372,2010,7534,7416,1250,1329,-1627
1373,-5583,-1991,-1989,-36,-1084,1438
1374,725,-1101,5733,-1392,-1399,-708
1375,1081,-6959,5303,160,-1561,-1831
1376,1072,1376,-1187,1971,-1430,766
1377,-3325,-7803,7486,780,531,-1862
1378,-6898,4653,-2825,-1636,-1531,-1192
1379,1243,-5720,-1943,-226,-559,1057
1380,-5231,-4159,-3814,1245,1523,-459
1381,6977,-5831,67,-357,92,723
1382,-29,-2703,871,-1880,1902,-1836
1383,2704,1549,3433,444,1620,-1784
1384,-167,-476,-576,829,-571,110
1385,-3074,2036,213,673,-126,-496
1386,-1569,-5989,4259,644,-678,-572
1387,-1664,-3920,-7161,-1506,113,-201
1388,4919,3423,-7611,-1944,-314,1296
1389,4356,1919,2433,-275,-617,401
1390,7734,-4559,7304,1843,-1119,-80
1391,-3299,1605,4169,1050,285,-1624
1392,4072,-601,3653,-1662,-1371,-854
1393,-7121,-4868,-4237,-426,1826,677
1394,-4449,-6144,-2532,752,-32,-24
1395,6980,-4877,2494,600,-83,1888
1396,-1436,3909,-1078,646,569,-293
1397,-1676,1602,-3620,1503,1123,1991
1398,-7294,3170,-1417,1665,-215,-1051
1399,2598,6824,-80,-1293,596,-760
1400,-7503,5313,-4658,1859,851,-758
1401,1695,-2491,4768,-1131,-1487,-159
1402,7074,-5040,-7270,411,1575,-1168
1403,6368,2228,4838,313,702,-748
1404,35,5755,2317,-1065,-889,1604
1405,5248,-6503,-3228,-224,-457,-661
1406,3329,-5876,1160,799,1043,-1819
1407,6401,1251,3609,1686,-1336,-1069
1408,-7889,3276,-3631,-418,-1345,440
1409,-2983,4003,7669,1253,-1015,-839
1410,-6520,1890,7609,1624,1929,-619
1411,-4297,-348,-6071,1718,1233,498
1412,-4293,-5054,3994,983,-555,930
1413,4868,5352,7276,-824,-1560,-1453
1414,7954,2397,2176,348,708,-1053
1415,3275,7273,-3439,-1169,-716,-1594
1416,1938,-5074,-1848,524,-281,217
1417,-4378,-3842,-6033,-242,1842,1423
1418,-5155,-2027,1841,-1139,1935,-806
1419,1311,6136,-873,-372,-944,-916
1420,-833,4821,-2412,-488,1941,-1338
1421,5232,2320,7893,-1723,-1439,111
1422,794,-3329,-1035,-655,-1185,1579
1423,-4552,6506,4826,1843,1753,1633
1424,1248,4927,-5055,-985,1862,1865
1425,6642,1997,3617,-1366,1479,-744
1426,-3826,1928,-749,1440,299,870
1427,-990,7896,4996,571,1085,1304
1428,-5829,2422,3384,1851,1031,900
1429,-4009,4653,-898,585,-1085,1440
1430,-2021,6549,4202,-1396,-142,1312
1431,-6075,-1635,799,1216,628,-431
1432,-484,-4166,2449,645,695,-1283
1433,-4640,1894,90,1715,650,803
1434,3914,-6197,4453,-827,231,1513
1435,-7705,-7922,1693,-491,781,-1036
1436,-6043,5330,-543,-400,970,-1036
1437,-5719,-5652,-7937,1120,1808,-1718
1438,-3737,-3017,5103,1543,135,-1615
1439,-1589,-6897,1605,-1670,722,-1459
1440,-1657,4970,-5705,-1618,-1076,-97
1441,7257,1741,-6674,341,-706,-421
1442,-1205,-179,-2595,1575,1351,-1067
1443,-7452,-2925,-5702,753,752,1456
1444,3670,-7316,7345,-1626,-476,614
1445,6392,-109,6687,-1594,-870,-348
1446,-409,-3834,-3957,1292,-86,1976
1447,1073,-7004,-3264,1291,1958,154
1448,4172,1702,-6662,-1180,1559,759
1449,7048,1519,-5185,1391,1026,-1151
1450,1329,-6341,-7160,219,-996,-1789
1451,-4290,-2699,6014,-966,-848,-1827
1452,-3368,7948,-5582,-1014,-876,475
1453,-3,1537,-458,-819,-1236,-1949
1454,831,1615,4726,-1554,172,1849
1455,-5735,-3735,7113,-1351,1403,1584
1456,-6582,2069,7792,993,107,-486
1457,1748,6614,87,-28,-1429,510
1458,-7470,5915,-798,927,1235,-1910
1459,7576,-4702,-6826,845,1903,-688
1460,-690,-7012,1671,-537,-1086,-377
1461,1198,-4960,-1091,1327,-1945,-1427
1462,-4996,-1314,-6902,223,1872,-1890
1463,1400,-2018,1437,1634,1673,-1319
1464,-3106,-2309,-2397,1388,590,-320
1465,5513,-300,-3615,1382,-1148,-1569
1466,-7990,5474,5875,-1622,-476,1670
1467,-886,6844,-2073,-12,984,11
1468,4697,2081,6688,-1660,1391,495
1469,114,-6751,7796,699,-417,1942
1470,6933,6745,7017,-1208,353,560
1471,5614,-1186,6696,-28,-1560,-1797
1472,-191,-5072,2055,-893,-1668,1448
1473,-1618,6551,-1323,-144,-1672,1549
1474,-1398,-6124,341,-1041,-451,-1235
1475,5770,4393,1457,1009,1023,-1883
1476,7252,-6839,-5937,1991,-882,1523
1477,7778,-712,7361,1909,-424,-1115
1478,231,-5119,-2180,-207,-1111,873
1479,-7440,-7630,4797,-487,64,-1008
1480,-1279,4363,2028,1466,566,-207
1481,-985,-7975,6089,-231,-403,1692
1482,5271,4570,7490,-1703,-936,1334
1483,4448,-2114,-3067,1143,-963,-428
1484,-3461,-3825,7639,1699,531,1944
1485,7213,6034,-6185,-1981,1177,-1809
1486,-5121,460,5434,798,-733,-1854
1487,-5790,4903,6957,1598,393,-609
1488,-3042,1295,-28,626,470,-354
1489,-7992,-5396,-371,421,-325,-800
1490,-4683,-2427,2989,-1561,-664,638
1491,6857,-6490,-7355,168,-1364,949
1492,2789,-7859,3792,-188,789,-1785
1493,-4132,-3811,6492,-989,-1510,792
1494,2993,2784,-4236,1298,-490,-111
1495,-3464,-911,528,-565,-1583,1559
1496,1419,4048,-6778,-108,40,-1058
1497,-2597,3699,-6931,-123,-242,1757
1498,-2238,459,5724,210,-505,1123
1499,1070,1791,-1521,-749,-1734,1169
1500,7783,-4348,3330,521,327,695
1501,4725,6603,-2179,1721,1249,788
1502,2867,-2687,6197,1437,1104,-160
1503,-3485,-172,6973,-146,332,161
1504,-6938,3547,-6135,1664,210,-1097
1505,-1268,5324,-3788,1831,-321,400
1506,-894,3301,7449,311,164,-1705
1507,7595,2214,6667,-1030,1415,1299
1508,-3338,-1404,-2598,1600,688,-1866
1509,3722,-743,-949,-1390,1941,-769
1510,5575,3427,-4817,452,949,1569
1511,-2843,-2725,6976,632,69,-1267
1512,-5379,542,1143,-23,147,-1701
1513,1676,2089,161,-1663,1657,-1581
1514,-1149,-4982,2659,360,322,1772
1515,-1536,402,-1209,-1742,1008,-792
1516,-4627,4869,5057,874,-1203,-952
1517,-2885,-7056,-1936,554,-1117,776
1518,-4931,2277,-3010,244,-756,-1222
1519,7856,2067,-7033,-402,-1427,-1567
1520,936,-1710,-1308,-220,-296,-1248
1521,-925,7320,-4769,-1818,-109,925
1522,2406,-2625,-1703,-808,-94,-82
1523,5026,1921,3990,-1030,236,1864
1524,-2710,-7394,2433,532,805,-1163
1525,7784,-523,-2517,1570,1723,956
1526,-1880,-2651,-2312,-284,485,110
1527,7997,6768,-1556,540,338,-886
1528,-4578,7587,-7558,-944,-33,-1261
1529,-1071,6132,-2122,-15,-1510,-977
1530,4345,3816,-289,1842,1328,-173
1531,6830,-6480,-2270,578,-793,264
1532,4172,5856,-1255,-82,-1034,-1102
1533,3435,-1264,-2959,1808,-489,1117
1534,-5152,2266,-5877,-378,281,-1884
1535,-1781,242,2573,1529,1683,1602
1536,6890,798,5314,-1220,708,584
1537,2587,1771,5888,-945,-577,478
1538,-6870,-6070,6082,-966,198,798
1539,-4980,-2674,6197,545,-428,-680
1540,2740,-6899,-7134,-686,-753,1960
1541,-2339,-2972,-2349,1201,-36,1057
1542,-3204,5680,-1225,-370,-737,1137
1543,6600,6735,-5041,1512,246,159
1544,461,-3305,6542,-1077,360,1900
1545,-4235,3223,-7303,458,-430,-1691
1546,2302,-3825,2550,-1305,-973,1230
1547,98,-4055,6138,574,213,1496
1548,413,-1022,-6593,-336,-826,-846
1549,4333,7959,-3514,-1151,-1038,1449
1550,2945,-6721,-7057,-275,1400,1828
1551,-3299,2854,6331,-1257,-669,-1231
1552,-838,-3417,7661,892,-1763,571
1553,382,2621,-4950,423,1548,-1459
1554,2625,3320,7438,-1560,190,-192
1555,923,1514,-6510,668,1900,353
1556,1763,3961,2066,-1009,11,136
1557,-3352,-5027,-1169,573,1693,-465
1558,-749,-1187,5903,-1888,-100,-347
1559,1207,6258,7375,-574,25,-765
1560,435,567,-5468,-1974,669,386
1561,4833,-7335,5899,-844,-449,-1693
1562,-2390,-5171,-577,559,1847,-91
1563,-6015,3512,107,656,1164,1812
1564,3989,-4913,-3216,1228,988,-338
1565,-3074,-7334,5914,1876,1608,-632
1566,5590,-746,2317,-1391,-1669,-1556
1567,-7677,3889,6610,1614,1101,-343
1568,-4225,-1395,-4597,1117,312,-1577
1569,-2851,681,6358,-1823,-1354,-1043
1570,7629,1879,-6684,681,-411,-833
1571,-332,-7135,7892,461,1393,-138
1572,-953,427,884,1016,-1075,-584
1573,-2827,474,757,926,36,1870
1574,-2446,-7329,7976,764,-651,-1226
1575,-2367,-6369,7317,-1676,-850,1224
1576,7657,-609,-2104,-743,107,-1279
1577,-4001,2220,7889,-323,-1400,-597
1578,-60,-5944,6761,970,1415,-878
1579,-1660,4082,5700,112,-454,1898
1580,6106,-6407,-7420,-433,585,339
1581,7950,-43,2891,1779,1284,-36
1582,4763,4281,-1168,-631,416,1418
1583,6785,3673,-4200,-489,-397,-904
1584,2015,5401,4511,1221,1641,-1912
1585,-3933,-6586,6632,-1560,-1169,-1681
1586,2789,7356,5950,1016,-1519,-144
1587,1504,-79,3896,-1950,-1766,292
1588,3593,4791,2685,-307,-521,-1979
1589,-2713,-4554,4400,1504,-1313,1728
1590,-2858,-7357,6611,428,-1322,282
1591,-3456,-7453,7339,1820,166,1911
1592,-748,1603,-1891,1210,-1716,-1475
1593,-6915,-3408,1580,-600,1168,-791
1594,4767,-4422,-5247,-503,-776,-1431
1595,-2811,3188,-5761,973,1056,-619
1596,-3239,1543,-2184,-1424,1105,-908
1597,6856,2021,6827,-1073,1763,-1434
1598,1336,-944,6242,-572,-736,-647
1599,7253,6399,-3168,415,138,-1315
1600,-3113,3907,-5389,382,959,-1638
1601,737,598,-5800,1173,-892,-499
1602,-1437,-2504,1093,47,-1025,1445
1603,-246,-7773,-6195,-942,-1752,-25
1604,-3569,-6331,2614,1760,1132,550
1605,-7566,754,2682,-1805,-1440,-1446
1606,2240,-6466,-6356,1,-693,-1879
1607,-3229,-7840,5703,168,419,1082
1608,33,2329,80,1249,1188,-88
1609,691,3439,-3694,-1670,-1709,-1706
1610,1978,5734,3617,-1138,-1891,-541
1611,1002,4981,5578,-357,1609,-288
1612,6498,-2088,-6602,-1758,1830,1224
1613,-5491,-1647,6650,-1,965,809
1614,-5253,-1223,-1407,-396,-504,-1330
1615,3523,6942,4939,-635,656,-1382
1616,1442,-6347,4591,-1108,1969,1124
1617,-839,3189,-3796,-44,672,305
1618,-4128,1160,-4125,-1415,1576,470
1619,-7675,-6756,-7791,-655,1519,-283
1620,5728,2945,-2777,524,-1497,1979
1621,-5918,1873,-2815,1319,344,-282
1622,-2949,-1611,125,-1511,1198,-1068
1623,-5128,-5876,2971,474,-1693,-563
1624,-7220,2294,4346,-1290,1393,1554
1625,1619,4617,6049,-1187,1017,1209
1626,-3186,2713,1135,1993,1747,-1418
1627,-6031,5992,-2469,1677,198,38
1628,-5805,-6165,3109,-750,-919,1207
1629,5520,-464,940,846,1900,-1461
1630,4200,6012,2472,1387,-1808,332
1631,4871,5753,-5544,-607,833,659
1632,-1388,1540,-4336,1432,1660,-1195
1633,4835,-426,5775,950,675,126
1634,-885,-3806,-3014,-1925,68,-763
1635,-1367,-2684,-1220,519,211,1882
1636,2680,-1841,2625,-1533,1796,1325
1637,3950,-486,2485,-1515,-1161,-1179
1638,7738,-6453,-2907,-772,-1765,1352
1639,4431,-1477,2691,-1377,349,-296
1640,-975,2780,-3477,350,92,1184
1641,-6239,2816,-1579,1508,1436,918
1642,7431,-6393,5311,-1292,-1305,-1328
1643,5638,1176,4457,-65,453,1066
1644,-6345,3285,6370,-53,-1633,474
1645,-1983,-5962,1670,1075,-1728,-409
1646,1693,5227,7001,682,825,-1592
1647,3085,-7575,-5787,-1247,429,1554
1648,-6349,2372,2266,-118,-1160,1609
1649,-6542,7094,4310,-1261,646,1333
1650,-1287,1574,-3207,-1399,100,-522
1651,722,-236,-4096,-1657,-1450,1004
1652,5236,-2070,-4841,-603,470,-1087
1653,-5008,-5644,3298,1849,-1969,-320
1654,-1188,7835,4752,-2,-738,-577
1655,2816,-6913,-3746,627,1114,-586
1656,3217,-4243,6420,-370,1101,1433
1657,-821,2493,-4427,1724,-1544,1855
1658,-3654,7490,1379,201,-803,137
1659,3689,4757,-7469,1588,686,-367
1660,-3997,3035,-4037,1572,-1922,1663
1661,-2406,1649,3090,-789,367,-323
1662,-1416,6838,1781,318,1252,1816
1663,-5079,7223,-6998,-1237,398,-1157
1664,-2548,1502,-6070,708,-1069,-178
1665,5385,3304,4156,-1834,-659,1600
1666,2499,7548,-6763,-109,-427,-684
1667,-5750,-6213,-7006,-1109,653,866
1668,6326,6460,5534,-1897,1522,859
1669,75,-3645,7591,-1877,-262,1376
1670,1533,-4382,-2389,-1432,883,570
1671,5585,2721,-7765,121,-682,-1131
1672,-599,4829,2012,-1331,-1629,1208
1673,-7554,-3917,-7820,-795,-1042,776
1674,6826,7976,-6189,-746,-705,1438
1675,1101,-5094,-5949,1560,-335,954
1676,-4457,-3825,-7729,-1774,1907,553
1677,5,1034,4592,569,271,1475
1678,-3964,6497,-2210,10,1710,292
1679,1636,1602,1706,-1033,1676,769
1680,7091,2731,4814,1855,-78,1125
1681,3819,4191,1279,1987,835,-473
1682,1280,-313,-4129,1067,-435,-598
1683,-3001,487,-3309,-918,152,190
1684,1245,4878,-3740,357,-1022,-823
1685,4832,7221,7499,689,885,-729
1686,-6091,1179,2805,1222,1569,-1067
1687,-3574,2118,-2042,328,1973,-1272
1688,7046,6871,-615,1370,-1958,-1682
1689,4692,-6563,-4386,-1686,-1869,569
1690,-2208,947,3412,835,1246,-943
1691,-7703,1357,-1366,-769,1033,202
1692,-4737,-937,4412,-1814,271,-1238
1693,-820,2329,6191,24,-558,-617
1694,-6307,-3293,2430,247,19,1576
1695,-2105,-5925,4455,509,-647,1269
1696,2117,7637,3541,1201,576,-806
1697,-4752,730,-6426,1353,-388,-1283
1698,-5856,1585,-5427,-1455,-1774,-477
1699,6725,-5606,-7889,-529,-689,-1006
1700,-182,-7705,-5697,1549,1223,742
1701,-7427,-4044,-4657,372,-1375,882
1702,-4797,5871,-7206,178,-43,237
1703,-3300,-5563,1818,-312,-99,-1755
1704,3810,5374,5827,-1736,-1152,924
1705,-2427,7929,4342,66,-1593,879
1706,4405,6676,6851,-1980,126,-1115
1707,308,1548,2676,-177,1326,289
1708,-5611,3707,2148,-1699,-228,-944
1709,32,1076,-5005,1308,1071,523
1710,-672,-529,6602,-1472,-648,-1041
1711,-7726,-1274,-577,1663,-78,610
1712,1203,-3062,-118,-309,-83,-1279
1713,1561,-280,1315,-1069,-220,251
1714,-351,-1676,5738,427,1128,16
1715,4424,-3628,7559,1777,-1423,-399
1716,2243,-6853,-7162,608,-384,-802
1717,7911,-4656,268,-1276,-1637,86
1718,6493,-4354,-1324,307,237,-1832
1719,4641,-5177,-3628,1245,1854,1742
1720,1244,25,740,1639,1566,-614
1721,1544,6155,-4356,-1037,-58,-611
1722,2148,3968,2616,-542,631,-1664
1723,3383,887,-7390,1154,413,1005
1724,1254,-6119,-5703,-1305,362,-595
1725,2043,-4471,2523,-456,-107,-1418
1726,3963,6539,-1125,-173,-1721,-1440
1727,4890,3965,4940,753,111,1581
1728,-1650,-7177,-1969,-90,935,492
1729,7195,5378,6616,-766,102,-1061
1730,4072,7696,2348,851,-351,955
1731,-2123,2064,732,395,1170,465
1732,1886,-5295,-6120,186,-61,1590
1733,6951,1716,-1542,161,-399,1486
1734,6693,-6890,4102,-677,-186,934
1735,551,1541,-5009,-1430,-650,-912
1736,-5300,-5282,-2957,-450,-1796,-238
1737,7983,3348,-4543,1892,-1771,1296
1738,6018,-1100,-673,-1539,1679,-877
1739,5882,5808,-5785,767,-1312,-880
1740,-2681,-6174,2501,1018,-1521,-1926
1741,68,5891,7107,1264,71,-1644
1742,4080,-5828,-2490,-1235,1443,-520
1743,-4199,1130,-5909,-1971,368,911
1744,-4959,-1165,4792,1675,-473,-1792
1745,-7692,-2103,-6995,1816,69,992
1746,4665,-2113,5722,283,1657,14
1747,3898,-1662,6945,417,-1498,-1494
1748,1401,2369,7888,-747,-1718,-1452
1749,5355,7715,-1802,-1503,-1362,-1632
1750,7910,-2878,-1837,1982,1228,-1511
1751,4265,-4185,-5785,1632,-1551,717
1752,996,-6671,5763,-1394,1937,-824
1753,5356,-6592,-193,-1681,106,1799
1754,-2437,-6243,-959,-954,-233,1647
1755,-2960,4974,7410,440,-1357,-587
1756,-6231,1836,6548,1335,869,910
1757,3355,865,3845,-25,60,-139
1758,-7649,-2710,5013,967,-794,704
1759,3227,7047,2277,1860,186,1532
1760,-3496,5260,-3149,-1315,-1294,-1903
1761,-2172,-5710,-3288,1555,837,411
1762,-823,-4402,2760,-1522,1568,618
1763,-5208,-7702,3436,-1788,-771,-94
1764,182,-7574,813,370,630,-1232
1765,-2103,2618,-3760,1031,-1219,-764
1766,3369,3476,6670,-1474,-433,1208
1767,4694,-6163,-2979,-1690,1653,-128
1768,-5354,-7430,3147,-1242,-79,1131
1769,-7793,-7340,1878,1616,558,232
1770,-1856,5096,7330,1465,1590,-894
1771,-6993,-1605,3073,1366,-154,-1446
1772,6555,-3515,4044,-766,1308,861
1773,686,-1738,4818,-1064,-654,972
1774,2269,-1330,-2056,-292,-1375,721
1775,6435,7933,-3373,-909,-1328,-1295
1776,5861,-3790,5685,-1154,-1557,-426
1777,7834,1383,3942,351,-1896,1989
1778,-153,-1814,6411,-693,1403,802
1779,-7120,6653,4761,-1025,449,-778
1780,4738,-5323,4441,-1294,1942,1276
1781,-5327,5065,3003,1052,-1751,-90
1782,2062,-6414,3390,1290,-205,-1918
1783,5027,-5466,2698,-628,-1555,-1449
1784,-1106,6205,-573,-29,-1961,688
1785,5936,-857,7048,-1196,-610,-286
1786,6337,3426,-1535,1346,500,1861
1787,7831,-3742,-196,-1605,203,1980
1788,-3512,7413,-110,1754,1068,167
1789,-964,-3923,4408,936,-63,1820
1790,-5180,219,4366,-767,-916,1312
1791,-3544,-1904,-4331,1609,68,142
1792,-1735,-7553,7303,1563,1082,-1464
1793,-3733,6700,2572,-843,204,-346
1794,-1894,1739,3393,-715,1735,1619
1795,-6215,1003,6436,1422,774,-1938
1796,-1822,5648,-1549,-1802,835,-428
1797,1636,7743,3520,-1426,-165,1717
1798,2447,-621,-6546,-478,1330,569
1799,2605,6497,7341,1367,-483,281
1800,216,-4138,-1802,1420,-199,311
1801,-1283,82,4956,632,1283,-652
1802,-2576,-527,2762,1513,418,-73
1803,3272,6142,-1710,347,-1957,851
1804,1652,574,1297,-235,308,755
1805,-4249,4324,6104,-723,475,1127
1806,-6560,-7905,1661,1171,161,-66
1807,-7325,-7070,-6262,-181,-501,-1687
1808,7011,2255,338,1700,170,67
1809,7913,-855,-7227,716,-945,89
1810,2322,-2772,-2272,1385,693,-225
1811,-7063,7531,6573,1054,472,1795
1812,-5290,-2861,-5939,1204,-458,123
1813,1506,-3557,-4398,403,-102,-1702
1814,1081,-5276,-1627,-11,380,1249
1815,4732,-1513,-2251,-1122,1075,-933
1816,-58,3373,3135,-1109,-1426,-1201
1817,901,-5690,2085,-541,483,-1062
1818,-7710,1976,2147,1238,-1223,716
1819,-7746,2249,-1948,-173,-724,1377
1820,-3423,-2823,1537,-248,674,1234
1821,-2783,6192,4455,-1096,543,-190
1822,-7722,2272,-5924,-1089,-848,-24
1823,4562,195,2352,1594,312,601
1824,5825,930,1903,-68,-874,388
1825,-3043,1418,-5749,262,1538,-154
1826,6860,-7224,-4520,-1771,591,-120
1827,-6785,-215,4132,-288,605,417
1828,2689,4769,-7720,313,650,-832
1829,3784,48,7719,164,481,388
1830,1089,7318,-7586,-1134,-1474,1652
1831,-5166,-4339,4607,1753,-1123,890
1832,-2982,56,-6924,1248,706,1842
1833,-1664,3681,-116,-20,1677,478
1834,-2082,-705,1088,-1209,1287,-1599
1835,-1259,2569,4975,-161,1547,-75
1836,-5497,553,1038,-1854,531,-885
1837,908,-368,-3851,798,345,-22
1838,-7064,1865,-1821,426,1743,1656
1839,-5737,-2522,7773,1299,-917,992
1840,-5753,7401,2689,1320,-217,-1462
1841,-6790,1776,-7878,-1842,1342,-1150
1842,7211,5276,-4619,-1689,712,6
1843,565,5051,-2583,1146,816,987
1844,1660,6726,7122,1234,978,-233
1845,1362,914,4834,-212,-1663,-712
1846,-669,-6969,-5406,-745,-280,-1285
1847,-1728,6377,5634,-409,-262,184
1848,-1435,4157,7917,572,723,-213
1849,-6344,-4878,2222,-716,268,1410
1850,3934,3091,-4437,1143,-529,1798
1851,3409,3640,3817,-722,-972,93
1852,2079,-1490,-6584,1938,-304,-742
1853,-6710,-7328,-5074,-143,-1962,1541
1854,-3872,-4504,-1302,-1437,-1132,-1344
1855,-621,-6218,4495,1169,-1032,-16
1856,-1697,-5300,2467,114,403,-442
1857,-2645,-6530,7091,547,-1349,468
1858,-6185,3664,-7753,-1835,-1153,1614
1859,6356,4651,-7800,1480,-1958,-1218
1860,-5898,4152,5072,390,60,-1209
1861,4035,6755,3913,-1560,-1764,-477
1862,1744,855,5408,-994,-1522,-1788
1863,-2335,-7384,-91,653,-1423,1306
1864,-6986,7252,-6099,360,170,-695
1865,-5010,1348,-3572,-1068,176,1649
1866,-5541,-3868,-5410,-1373,722,-959
1867,932,7344,-5253,901,-703,-1469
1868,-6657,5335,-2059,535,1106,54
1869,194,7689,-3667,-907,-62,1977
1870,-3355,-6514,829,-1586,1931,577
1871,7835,7983,-6383,-474,18,559
1872,4597,-6126,-1839,-327,-803,1283
1873,-7841,6567,7431,1993,7,-755
1874,-5142,2265,-4208,-1938,-1637,-689
1875,4775,-2408,5278,-101,-141,-812
1876,-7983,-6880,4127,-530,699,-1497
1877,5939,-2967,-4145,-63,-837,-864
1878,131,-4561,1960,859,-910,1990
1879,-1959,5231,4253,-104,-1205,1146
1880,1292,6902,4091,-1528,604,1612
1881,4202,-5780,-4528,1917,-1994,-1896
1882,-2886,-7682,-7459,-1224,-801,684
1883,-7008,676,5523,-1057,-990,-732
1884,-178,3221,3311,-509,1824,-740
1885,1506,6212,-1026,-407,-1645,-1082
1886,-3894,-6949,908,-620,1811,379
1887,-3631,6319,5127,1635,-1105,1491
1888,-579,-5036,2605,1309,1432,-1379
1889,1632,3585,-4958,145,-1636,1575
1890,7259,-7955,3367,158,-839,-760
1891,-6339,-1674,-4058,1448,1580,590
1892,3973,5222,7767,-1145,-1327,217
1893,1115,6234,-6588,321,-146,1824
1894,7582,6312,1759,89,1646,-1170
1895,-554,4510,1077,-19,-1116,-903
1896,-4070,-2497,4513,-935,-1776,1058
1897,4080,6985,3326,-723,-600,-414
1898,-7585,6318,-4919,-39,-606,777
1899,3816,1790,6804,-842,-33,-1052
1900,-2967,-4564,-4467,898,79,1062
1901,2748,-1144,975,833,-1939,-1719
1902,-7149,-3732,-6382,1750,1273,66
1903,-5325,-4449,5602,1583,86,-1575
1904,-6298,-3707,3495,-351,1544,845
1905,-538,4161,3972,1278,-1767,-132
1906,1581,-1988,-2581,1650,-1310,1177
1907,-5166,2274,7245,-905,-1907,1973
1908,-6507,-6333,-7468,1862,1845,1433
1909,-5163,-2060,-2873,-1580,-378,-1292
1910,5687,-5365,-2472,-161,1032,83
1911,4838,2692,-2429,-1312,-1865,-1935
1912,7581,3532,2600,-574,616,-1861
1913,-5438,-1772,-5259,689,859,1092
1914,-3847,2484,-2768,-676,-1510,-1493
1915,-5056,6928,-242,-1869,-618,-356
1916,3342,-2630,1939,840,-1095,-1685
1917,-5583,-4408,-2151,-393,1901,-1275
1918,-19,-2676,1380,1980,-22,-233
1919,-5457,-6446,-1104,822,-853,-1986
1920,-7323,1390,3449,-1432,831,412
1921,6403,7792,-6237,1954,-443,39
1922,7567,-6938,6259,1450,-1000,260
1923,2364,-4746,-6208,1341,1323,419
1924,-3022,-1891,-7433,-6,-1853,-1847
1925,-230,4270,-105,287,-1843,1838
1926,1946,-5198,6093,-1140,1845,796
1927,-2844,-7209,5951,38,-1410,929
1928,7458,2417,2379,1450,746,108
1929,7145,-5942,-5153,1936,-743,1755
1930,2698,455,1193,180,-728,-1038
1931,6982,6626,7123,1234,1953,-138
1932,-2127,6176,6510,-1963,-1305,989
1933,2281,5546,1203,700,-1813,826
1934,-3992,-1725,-1434,-1955,-35,-1945
1935,2880,-2988,-400,-864,196,385
1936,-1849,5803,3504,-357,-970,348
1937,-3781,-4024,1395,-1864,-819,602
1938,2376,193,-1323,1579,1641,183
1939,-3882,-6425,7829,-1833,210,1470
1940,-3684,7046,2286,1370,1648,1350
1941,4303,1752,5842,1400,798,1717
1942,-6984,2439,2869,1396,480,181
1943,-1159,-4056,-2595,-1018,173,1782
1944,-4355,-6946,2250,-1315,-596,-720
1945,-5985,-282,-6450,-611,-589,1056
1946,-5064,-1277,1485,-1122,830,-342
1947,-4943,-6719,-5012,1492,1518,1073
1948,7882,-1141,-152,956,771,-1423
1949,1461,-3353,1496,-1907,-1585,-589
1950,-7849,-3338,2298,-10,1655,1470
1951,-2989,-2785,-5476,-1304,-687,-1877
1952,-6337,-4759,-6997,-1203,-794,-496
1953,-4921,-4755,-730,54,356,1135
1954,1696,2169,3734,-1041,963,829
1955,-1747,-6042,4471,-214,-1343,1536
1956,-2135,-7899,-4331,-332,180,1228
1957,5103,-4095,-4562,3,-88,-1530
1958,-6222,6495,5644,889,-1619,-957
1959,6897,-6157,767,1554,-304,538
1960,-4131,1362,-2805,-1174,901,1365
1961,-4517,6259,-6061,-427,55,1158
1962,-5675,3979,-843,-1050,-466,-1876
1963,-7499,5752,1039,1130,1741,-1211
1964,-7189,379,-5612,-1267,-905,806
1965,-1343,-5984,-1660,1319,451,1263
1966,3291,3661,-1143,1258,-1123,1203
1967,-3303,5029,518,-1067,-62,1275
1968,-3413,-6817,-3868,1359,-1183,-1315
1969,2908,-6592,-6071,1315,-1687,13
1970,1496,7317,504,1029,772,1948
1971,3639,-2777,-5939,-191,-1129,-1547
1972,7882,1130,-7490,1143,232,-91
1973,4916,-7143,-4551,-1337,1628,-953
1974,4711,4078,-4545,1410,1656,987
1975,-3732,2130,-4262,-1848,1287,-272
1976,-2337,-2399,-7687,83,-1623,-1653
1977,399,4977,-1547,1034,-1783,1142
1978,-2533,572,-6972,-1476,-187,-1378
1979,-779,1556,6108,1490,-773,1587
1980,-2725,1370,-5368,-373,-1113,835
1981,-2371,3896,812,-126,993,1724
1982,5064,4366,4224,1804,-1048,321
1983,-3413,4176,-3146,-1315,427,1899
1984,-1989,-5647,3491,908,406,644
1985,-1194,-4250,-7757,1680,-1026,-337
1986,2950,-705,-1714,120,1017,-894
1987,1310,-7864,-6277,296,-1138,795
1988,-7220,-3628,2571,-925,290,1595
1989,-2972,1515,-6946,1349,-696,555
1990,3944,4839,5365,1478,1084,-1400
1991,7936,-5852,60,1772,1718,-1275
1992,3929,7476,1985,917,-1405,66
1993,933,1476,-6514,49,837,-1810
1994,5813,1698,-1207,-898,-685,-1294
1995,-1026,-7418,1494,-885,943,392
1996,1532,-2264,-5309,-579,1710,1244
1997,-1619,-1494,3144,-853,-1918,1989
1998,7524,-2312,-1331,-1352,1969,-1771
1999,7100,5792,6923,811,-1784,-1383
2000,-430,2553,-4998,-756,1341,-1652
2001,769,6768,2866,1993,1421,-366
2002,6322,-6553,-5589,577,1946,1101
2003,-5808,-2992,-2992,1441,812,1916
2004,-5925,-1567,5990,-890,613,-1572
2005,7410,3929,-5624,1369,-1342,30
2006,-480,6763,-146,404,-1725,1995
2007,3750,1886,1829,-1253,-1739,-167
2008,6151,3011,5267,768,532,-1422
2009,-1352,-5285,3038,-1697,1891,1824
2010,-7737,5719,-5569,-1810,-934,-937
2011,-2210,7873,-6346,-1453,1654,485
2012,-205,2155,1765,-1048,-752,-674
2013,6517,-4808,-4627,1651,-1405,624
2014,-6063,533,6231,-1805,-1494,-259
2015,3045,-1126,-3971,896,-777,-1254
2016,4277,5557,-5221,-816,101,-616
2017,6234,-7915,7622,-1790,698,-1025
2018,7175,-1770,-7017,-1951,-1932,-792
2019,692,7368,6802,1957,907,-1806
2020,-4147,-1067,-4223,-105,1474,-880
2021,-2730,-5194,-4485,601,-516,1349
2022,-609,5790,1682,1196,-375,-1778
2023,5208,412,-3841,-302,870,1922
2024,3914,-7738,-5537,371,260,-1919
2025,-74,5332,-4152,-1889,-166,-684
2026,-3981,7661,-980,392,186,-1504
2027,5901,4378,-2788,100,-1030,1685
2028,4106,7637,3890,-1819,-239,-823
2029,-4319,-121,-2626,1021,1347,-1849
2030,-7128,-4486,-1324,-1951,-270,-859
2031,-752,2629,-2372,-1107,232,-1260
2032,-4323,-6411,-1064,1426,740,-1119
2033,5252,-627,550,-589,1125,-349
2034,2159,-1412,7526,-1791,1316,-1173
2035,-6593,-5112,5249,947,1838,1763
2036,5592,7600,-5278,1818,-1416,-800
2037,-528,5940,-3186,-1807,267,1785
2038,-2132,-5644,32,-355,1131,-195
2039,5859,-2635,2746,1264,-1589,264
2040,-1114,-2265,2238,-1480,672,-1845
2041,-2606,5456,-7138,1704,-1500,702
2042,7590,5487,-3891,1675,-1650,538
2043,-6980,688,2253,-1819,-1332,-966
2044,-7904,391,1553,49,-1762,-1793
2045,143,-1375,7798,-947,1951,717
2046,7232,-2094,-3997,-1233,924,-148
2047,6148,-6843,-6988,-14,1048,1132
2048,4395,-4092,-927,-65,-920,146
2049,-6829,422,-4236,798,39,-1896
2050,5061,-3134,-5604,-508,1388,-930
2051,-3426,-6782,-3627,-1027,848,-1726
2052,-2061,4412,6453,-445,1082,1675
2053,4484,7152,-7243,-869,530,1647
2054,-4189,-1202,4647,-1544,-1254,979
2055,-7274,-3608,-607,-1346,-1249,-1875
2056,-7567,7201,-6300,-1908,-1397,-894
2057,5617,86,5858,-121,-328,-536
2058,-3752,-6179,-7717,-461,1387,-336
2059,-6478,6674,-7270,-973,176,1879
2060,5629,4079,4753,-1250,1101,-1556
2061,1410,3449,203,1094,-1365,-1046
2062,5043,1258,116,1689,889,1780
2063,6027,-6989,5635,-29,799,1762
2064,2305,-6879,7072,-839,-815,1306
2065,-2946,-3632,-3891,728,1081,1723
2066,-3139,-6576,6617,-1187,-894,-820
2067,-3907,-1453,-3011,-828,503,1929
2068,-7409,3198,2065,1011,1239,745
2069,-5912,-6141,214,-944,-1117,-192
2070,3591,-6006,-7726,589,-1158,-843
2071,-4880,-3463,-5386,-1835,-310,1037
2072,-7719,-3454,-7158,1204,-998,-1054
2073,48,877,6648,644,1222,762
2074,-7522,5255,2396,979,1201,1233
2075,7805,-7890,-5194,-974,1211,1038
2076,-3000,632,-7722,1022,512,688
2077,5154,29,2414,-952,-1903,-945
2078,4553,-1974,19,1017,1670,390
2079,561,5505,-6953,208,-1032,-687
2080,-7495,-2196,-7040,-1528,-774,-993
2081,5011,-7525,-950,-320,-1092,-1051
2082,198,3109,-1376,-1388,1632,458
2083,5237,-6820,-32,-336,365,695
2084,-649,-1097,-4898,42,-654,301
2085,-6191,-2970,-5616,-242,-423,-1216
2086,4758,-5524,1625,352,-1023,-1938
2087,-956,-7358,-3538,-1084,365,1752
2088,4491,-2183,1763,-1891,-605,-92
2089,5322,239,-8,-261,1921,-1721
2090,-2060,-5566,-3327,657,561,78
2091,-7383,2650,-2615,-1925,-854,-406
2092,-7764,5985,1555,-5,-1457,-168
2093,-5327,4024,-5991,1907,1251,915
2094,6861,6376,139,251,290,-1024
2095,-3218,-2245,155,107,778,1405
2096,-1029,3256,5320,-1488,-50,725
2097,-1238,-703,3408,377,139,-723
2098,-2500,-6593,6830,-1443,1442,1930
2099,-3773,-988,-6029,520,-1380,-1175
2100,7434,-4954,-2037,-822,1357,525
2101,-4823,-6456,1539,1352,-1530,-607
2102,-3290,1290,-2090,-1552,-654,1628
2103,7449,-5009,-2139,-627,-734,462
2104,-6403,-4288,7755,1675,-1790,521
2105,6734,7887,-6028,376,618,1511
2106,4199,-114,4423,-1511,1474,1883
2107,-1221,-1497,2231,844,56,-1569
2108,-2344,-4292,6051,-1159,-1517,325
2109,2526,2123,-7121,955,-1413,472
2110,-7948,3075,2879,1065,-120,1795
2111,1543,5118,7679,-729,-508,-509
2112,1312,-5351,1334,168,-446,1286
2113,-7581,129,3552,-846,-1800,-1618
2114,6529,-7593,6474,-596,-353,1680
2115,-1767,-903,1172,1298,-1515,1064
2116,24,-3539,2124,1976,289,352
2117,6864,7598,4884,450,-757,-854
2118,-3745,3608,5316,1905,37,67
2119,-1151,-2847,4253,1548,1407,1588
2120,-7744,694,-5105,-1094,1197,-630
2121,3380,-746,779,1144,-994,-1916
2122,-3713,5486,-6554,1950,1765,-469
2123,-6932,-6072,-6211,-583,1151,-1962
2124,-5944,-6688,-2654,-622,-694,-1215
2125,-826,-2770,2831,743,-856,-1275
2126,6285,-6426,6242,-1436,903,310
2127,1128,-3046,5041,-815,326,-1749
2128,7572,-6171,-7482,-1132,774,853
2129,-4908,-5160,-5382,703,532,-313
2130,-4724,-1283,1173,289,1022,-73
2131,2201,-744,5062,1218,949,1249
2132,4424,7337,7122,-1738,-1461,-1287
2133,4825,7523,419,-1055,-1229,644
2134,4417,-6356,2045,615,-1271,1854
2135,2932,5986,2170,-1574,-1984,1609
2136,937,-6943,1941,-1917,1907,1181
2137,-3770,3963,-7387,-223,-1870,-1574
2138,-5855,-5600,6293,-1789,1662,-381
2139,-4219,5918,-1018,694,1268,459
2140,-7092,7705,-509,-1481,-1028,1230
2141,-7662,-6481,-4931,333,386,-790
2142,-2812,-5951,-2296,230,-457,1805
2143,7861,-1339,4439,1229,1665,-639
2144,5036,6705,4096,1412,905,-167
2145,-3517,-7838,-3240,-181,188,-271
2146,-3706,330,-1112,532,5,1966
2147,500,4737,-4030,429,-1564,-909
2148,-6239,4998,-1203,1792,-1403,1125
2149,5344,-6423,-6054,1190,1019,1357
2150,5584,-664,6709,679,1487,1227
2151,-2468,1812,5853,1573,-1882,-347
2152,-7262,-1127,573,895,-1049,-1628
2153,5084,795,2873,-211,-1224,-1253
2154,6828,-84,-3962,279,-513,-921
2155,-7848,-2049,-1301,862,1718,-216
2156,239,-2627,-2875,-1611,-843,-202
2157,-4173,-5598,2389,523,-1400,1488
2158,703,-1555,6847,1056,1322,1349
2159,-2769,860,6719,-1245,12,-1765
2160,-7681,-1920,-4715,1762,1183,193
2161,-5985,6715,7893,-428,1257,1096
2162,-1656,7921,-2331,815,-1174,763
2163,6064,6259,-116,1891,-1406,-139
2164,-6053,844,7880,1030,-588,1766
2165,-7422,1740,-1429,955,-1227,-835
2166,-4829,7898,-793,1838,1392,683
2167,-1369,7487,-5919,-1509,762,-1923
2168,7650,2172,-1906,-1755,-82,1829
2169,5537,3407,-2126,-724,91,1663
2170,7321,362,-1506,-1364,1758,-389
2171,-4742,-4474,4198,-1897,1369,-1038
2172,991,3251,-2190,-1106,1452,706
2173,1923,688,4365,158,996,-1584
2174,6603,-787,-7755,1543,1684,1864
2175,-6835,5734,-2,-613,621,-1076
2176,-380,5411,2768,-509,524,590
2177,-6313,3726,-1052,1215,1581,1759
2178,-312,5839,-6889,-1301,1968,196
2179,1275,-3583,7828,1467,-832,943
2180,-4455,1832,2006,1506,-1722,-1196
2181,-5808,-1989,681,1790,-256,1361
2182,2405,-4259,6696,846,-1986,517
2183,-2857,7786,-2970,-923,-1953,489
2184,3553,-547,5451,1933,-185,1071
2185,-4904,7439,-6731,-206,-1706,1207
2186,-1719,-6889,1581,934,-118,-1705
2187,1387,-814,-3938,-1020,-1526,-248
2188,4501,4931,-7135,834,299,1155
2189,-3164,938,7699,-247,1675,-1724
2190,4365,-4696,-5775,1782,-1949,1677
2191,-7647,-3910,-4858,-1652,-762,-1904
2192,-3033,105,-341,-189,1048,-1783
2193,4009,2516,-6765,1182,253,1954
2194,558,5763,7398,-1279,1923,486
2195,3056,-3969,-2033,-1758,1056,-169
2196,-609,-796,-2287,-656,90,1895
2197,7029,6052,3519,84,676,1567
2198,-4971,5540,-1393,1787,425,-670
2199,2037,-787,-4348,1175,-1466,1476
2200,-2396,3498,2785,-776,1453,-626
2201,-6074,2869,279,-1814,81,1959
2202,-5376,-4058,-6742,1162,1948,216
2203,6684,7843,4952,-541,-1066,405
2204,279,-2104,4130,125,230,-818
2205,6222,-639,-6712,-1087,-294,-31
2206,-131,-7096,-1793,-26,-204,1811
2207,-1620,-3305,1511,-1589,653,-389
2208,3912,-5982,2632,1895,1525,48
2209,-2740,-2474,5921,710,1079,1904
2210,6268,-6105,4579,-1893,1817,-1259
2211,5013,-5684,-958,679,-88,172
2212,-2881,-2972,-6536,45,1808,722
2213,6079,892,-4402,1720,1355,-385
2214,-2836,-6640,-7498,-1116,-232,-1018
2215,5218,7071,-4124,1489,-916,-802
2216,-7636,-2321,5428,669,1312,-1444
2217,256,-6462,3881,-639,743,-948
2218,-1936,7530,2410,-1203,-351,-1907
2219,6048,-6390,-6141,460,-733,-1342
2220,-4728,7794,7820,-367,-373,-1817
2221,-3093,-535,1424,-1742,1495,-1787
2222,-1436,-3367,-2585,-1877,914,1633
2223,7220,-5545,6474,-1191,-483,-138
2224,-3688,7675,-1295,1398,-1611,1674
2225,4150,-4409,-793,535,915,1380
2226,4698,870,-5848,851,1086,-1913
2227,-900,7091,-4124,1320,771,-1087
2228,-2945,-7189,6824,1283,1049,545
2229,-4913,911,-1564,1918,1931,645
2230,-6607,-6814,949,-19,-1265,-1277
2231,-4087,5467,7101,422,787,-1542
2232,3354,2255,7866,-1319,594,729
2233,-7199,7235,4218,1980,1616,136
2234,2015,3751,-3997,-1583,841,221
2235,232,1343,5884,-1744,-1058,1270
2236,5279,2512,1635,1650,229,-237
2237,7630,-6358,2541,316,201,-928
2238,-6528,-4875,6012,-77,181,-333
2239,2108,7283,2529,-129,-1303,1473
2240,6287,3129,4668,173,-269,-666
2241,-1067,-1978,-7782,1736,-431,499
2242,5239,7503,199,-903,236,-1289
2243,-1579,-497,6321,-1101,-71,889
2244,251,1314,626,581,-1838,-1922
2245,-1761,2854,4439,-391,-111,501
2246,-3460,-406,-2714,118,-28,-1343
2247,-4913,-6180,4162,-1236,943,-90
2248,6170,1377,5106,-170,-1742,1314
2249,3655,-500,-2091,-957,697,-4
2250,-2253,-4097,1849,-1041,1031,-1236
2251,-3060,-7098,-1546,-1774,1907,1671
2252,-1665,2067,1743,1109,433,1733
2253,-458,-247,4413,1135,-1779,-709
2254,-4844,-6907,-6859,-668,700,164
2255,-2797,-3700,1873,-1910,-338,-948
2256,7933,-3168,2648,-1668,1056,-1452
2257,1876,-7247,-7169,785,-1225,-554
2258,-6919,2071,6766,1756,-754,-530
2259,5933,-1643,5484,1438,1286,1056
2260,-2744,-356,6932,1230,-1601,-1620
2261,-3566,-7482,3232,854,-1702,1377
2262,3411,-3089,4720,1715,1909,1937
2263,-7699,6660,6934,296,403,-160
2264,-1692,-2675,5086,-576,-1949,-1271
2265,-5529,-5197,-2888,491,251,-315
2266,-4994,6476,937,58,-606,-151
2267,959,-4028,2752,-274,1330,-406
2268,5102,-1996,-6760,401,629,1425
2269,-7859,4374,6037,17,-967,-1528
2270,5756,-6462,-7120,1543,639,-1933
2271,4707,4770,-103,-274,1355,1600
2272,-6211,757,-3598,-1769,1110,147
2273,-3867,3525,-6967,-352,1089,-1429
2274,2139,3369,-3718,476,-1302,-591
2275,-7311,3077,-4969,-1164,415,-1752
2276,7026,-876,-111,-1407,1274,-1455
2277,-5736,4116,3995,-1718,1158,-881
2278,7501,2565,7288,1347,-567,434
2279,-1877,-4697,-6421,-814,-991,-1752
2280,5256,2333,1479,-918,-1847,1131
2281,6972,-7629,-4576,1781,1992,-809
2282,2988,-788,3159,-196,831,-628
2283,-6956,-392,-2624,-1362,-1080,-187
2284,-4296,-7818,2733,397,-908,-1938
2285,4670,-2376,-7431,1117,1435,719
2286,1991,2340,4073,-362,1701,404
2287,-7931,10,4911,-1334,1543,965
2288,-1277,-2792,-5390,473,-1203,932
2289,-1977,-1377,3000,131,368,1076
2290,1259,3431,2638,662,-740,-1044
2291,-1744,-7977,-479,-95,-884,1993
2292,-4401,-5633,1743,950,114,-1224
2293,5535,-933,-7345,-261,-1721,-890
2294,-6133,2167,6466,986,1086,-1701
2295,-5164,700,1368,-794,1161,1784
2296,4257,5488,5718,696,846,-179
2297,3775,3170,535,-812,-1945,-1300
2298,-4310,-7138,-3418,1543,1698,1489
2299,2112,1322,-2615,-411,726,-1086
2300,-1444,944,-5385,-389,566,1951
2301,4833,-6370,7222,1339,-1367,-930
2302,-2276,-1619,-997,47,-1141,222
2303,-6774,6090,-6868,-18,-228,1526
2304,-3633,-2892,-4538,-212,-1956,-32
2305,-1002,7308,2056,-399,-1018,-1660
2306,-6315,1065,-2153,-1159,-348,436
2307,1286,-4363,1704,-1746,-209,-1949
2308,-6325,4459,-5845,-546,1182,211
2309,1498,-4590,56,-1277,18,-346
2310,5941,5457,-746,-1786,32,-254
2311,-5001,-6373,6428,-1506,-76,1910
2312,-1194,5323,-2048,-777,-1338,119
2313,6376,1164,-5345,-490,-935,737
2314,-420,2113,7681,1823,-1105,-1637
2315,5041,5860,-3711,-1446,1603,-1038
2316,2229,-6295,-5186,1272,173,-1026
2317,6276,-2638,-2926,-1173,117,1989
2318,-593,1947,3256,-393,-499,-614
2319,-2442,-3769,-6082,1832,292,-245
2320,-3253,-1495,-3309,117,-1251,-117
2321,-7063,4316,-185,-1161,1725,1556
2322,288,-4158,-7923,-35,1998,1241
2323,-2076,3724,6011,-1505,-760,1628
2324,7425,-5724,4817,-401,-1064,-580
2325,6852,-6552,497,968,1046,-930
2326,1283,1193,-2127,-1856,726,1925
2327,3433,-2713,-5077,-1826,-1738,-129
2328,-7331,-4521,5732,-196,1460,1705
2329,-803,7333,3877,701,1850,1945
2330,-1935,-4276,-6688,1344,621,-804
2331,-2150,-3476,-3395,1981,1381,-1852
2332,5167,-1568,5640,-1573,-365,1018
2333,4442,300,-3042,169,1356,-885
2334,-7252,777,954,-678,-603,-1600
2335,5232,3725,4287,623,1437,365
2336,-6237,7777,-1584,-978,1711,-707
2337,-3733,6807,4673,283,360,837
2338,3493,2491,448,-1430,-359,-1432
2339,-7749,2280,-6620,-775,505,907
2340,1367,2260,-4754,-241,1363,381
2341,5267,4638,-6104,1990,522,-1395
2342,3110,-4251,5385,1165,-455,-298
2343,-3174,518,-1866,-282,619,793
2344,2242,4008,3367,1125,357,775
2345,6438,-407,3701,-778,1286,-1342
2346,-5358,3220,5833,123,1150,-228
2347,-1988,-914,4374,-716,575,-1309
2348,-2464,6748,7294,-557,-927,168
2349,-6922,-7777,2192,-1884,218,-1218
2350,-5974,6612,-4699,-1077,240,1273
2351,4053,3391,2264,-690,-737,-149
2352,-463,1497,-6770,-17,401,351
2353,75,5861,-7295,-705,-301,351
2354,4882,4447,-4925,753,1977,-1326
2355,6969,5870,553,1886,-945,1592
2356,-7750,2991,-5284,-935,-842,-1522
2357,7142,-7479,6013,-1672,-393,1281
2358,1363,2090,-2974,-515,-1807,1485
2359,17,-287,6528,-950,-527,-1444
2360,1984,-5584,6993,300,-1846,-464
2361,-2238,5555,-6736,54,-1133,-674
2362,-1292,1046,-7249,-166,1979,1751
2363,-1794,-2164,-5095,-1557,-1774,-1848
2364,6496,5489,5066,-1343,-540,-891
2365,-4167,-860,-843,1207,-1782,-750
2366,1755,7258,1631,-869,1907,7
2367,3245,-3903,-2915,1005,-893,1359
2368,-5671,-4360,-5390,1236,-1061,-987
2369,3637,-6396,-1563,698,1146,-1810
2370,2434,-4039,-4181,599,-1542,-54
2371,2476,3353,-2236,1906,-295,-970
2372,6796,5460,-7209,-1730,-1484,-739
2373,-2717,1512,-7394,-1227,1942,-866
2374,1510,1380,2716,-135,-1704,1655
2375,-4442,4052,-444,-63,1453,-911
2376,-4379,-4170,-2676,1721,49,-1610
2377,7435,3280,6254,-953,237,1679
2378,-3656,-1248,7497,959,1628,-142
2379,-518,-2617,-1518,-634,-731,984
2380,-344,1762,6101,1190,839,-414
2381,1614,-3190,-1475,1841,-775,1734
2382,4380,-4838,238,579,898,-445
2383,5210,895,-1347,1212,-384,-163
2384,-3164,-7898,5435,-307,-1450,1301
2385,1636,368,3410,-1273,-1117,1146
2386,168,7664,128,-609,-81,166
2387,3030,6614,36,570,-999,1343
2388,-5588,-2042,2325,-1886,6,-465
2389,-7286,-1916,2300,696,-1109,1632
2390,5938,-2236,1705,-1001,-1223,476
2391,-3563,4886,-4504,1513,1828,-1848
2392,5324,-3859,-3525,-1746,-423,662
2393,-1377,-4200,-6638,1042,-1687,-1035
2394,-2613,930,-1930,1332,-1542,141
2395,5009,4614,6097,641,-669,-332
2396,-5538,-5139,-3053,-330,1818,-253
2397,-5133,6963,-5463,627,1707,-376
2398,6834,-3873,5320,-616,-1790,-1859
2399,1724,-6395,6094,683,-1530,1510
2400,-7312,-4194,-4036,-1239,216,1108
2401,-491,-7468,-7586,-1258,-1072,-1069
2402,-5469,7938,178,190,-901,-970
2403,-3289,5123,-5368,-796,-1939,670
2404,-4793,5451,3597,-1977,1517,-240
2405,5941,-2069,5391,782,-681,-466
2406,-5042,2436,73,-847,-11,1287
2407,2766,-5010,559,972,-1086,1361
2408,-5490,7496,1524,1529,228,1250
2409,6580,-1006,-1996,1724,1583,551
2410,3929,-5180,6690,122,124,1992
2411,1134,7089,3174,1102,-1635,263
2412,7645,972,2566,1813,1738,-1409
2413,-3215,-317,-6537,1705,-1347,-277
2414,2708,-6306,2583,185,-777,1182
2415,-5985,2356,-1989,-581,-106,167
2416,5553,5923,2704,1653,146,1154
2417,1054,6684,7747,98,607,-310
2418,4918,6382,7497,765,1454,1540
2419,-3408,7953,4993,1372,-1036,519
2420,-6822,-2116,7759,1268,1641,571
2421,-5230,-7986,4277,0,-586,1710
2422,-710,-7114,2705,-718,1695,12
2423,-6926,-5734,-3565,581,882,1419
2424,-4368,7913,2801,-400,1139,1881
2425,-6799,1402,-1818,989,1713,-1938
2426,7615,3873,3922,-1307,1555,-463
2427,-2022,2098,2103,1727,1978,-1365
2428,-5681,943,2825,-1189,-1366,1326
2429,-4796,3839,7469,1972,-1470,808
2430,1278,-7764,1520,925,727,-320
2431,3510,7081,-2462,1226,465,1222
2432,-7288,1478,-3370,1099,742,1755
2433,3402,-7400,6776,-1870,-92,-193
2434,2380,6007,5885,725,-1703,-1765
2435,-7450,2139,-1458,-51,539,1009
2436,-2368,2149,-5749,-1059,511,-1037
2437,6898,-3683,-6511,-1386,-1907,658
2438,-4563,-702,5254,1234,-1853,1239
2439,6923,-7403,370,-560,1900,-374
2440,1027,-7625,5821,285,-1696,-659
2441,2677,-1463,4176,472,1327,178
2442,-3233,6298,-6199,902,1606,1946
2443,185,-4652,-4367,-952,-1577,631
2444,-2185,4586,-6761,466,1316,6
2445,6932,7668,784,1104,-1804,1181
2446,123,26,-5385,497,-254,581
2447,-5135,1473,-6736,-862,1505,445
2448,7991,2611,2960,-1451,-522,948
2449,-1943,4531,-6166,175,91,1363
2450,2985,-5665,7075,-1804,-854,1851
2451,5929,-7220,-2301,1474,-1858,266
2452,6609,-1013,1849,-422,1062,-1997
2453,312,-3624,-6619,859,-1006,-1969
2454,-6925,-2866,255,684,666,43
2455,-3761,-2462,-4669,1489,404,-546
2456,-2435,2574,-5619,794,-940,-1762
2457,-5052,6640,241,-1802,977,-420
2458,5195,4946,-2005,-1669,1097,1270
2459,-6350,5541,6325,-521,-115,775
2460,-2473,-2818,2089,-922,-1746,-1533
2461,-2526,210,7422,-1526,1139,366
2462,-1196,-6423,7662,-172,609,-1714
2463,4271,5789,5116,1778,756,1880
2464,-7634,6021,-5358,-877,818,-1770
2465,2412,933,-2101,-1004,1224,-1867
2466,2,-1066,725,1780,1418,-1618
2467,1011,120,3596,-83,149,175
2468,-1243,2972,-6091,-572,1339,1299
2469,3520,4384,-7823,501,1990,-841
2470,1230,6467,-1054,1127,644,1287
2471,-1142,-5394,2704,398,-1986,-1839
2472,5785,-6501,6960,-1497,-166,464
2473,-2088,3422,-3311,1128,861,1498
2474,3632,4225,7598,1291,733,1699
2475,-2739,-4481,7576,979,-737,1978
2476,-4866,5562,7340,-307,-255,393
2477,6859,-4867,5736,-631,53,-769
2478,-1478,-541,45,-1745,1376,1780
2479,7599,1544,6621,-1722,749,192
2480,5623,3969,5635,-153,774,-1735
2481,2688,-2659,7585,-1946,230,-1887
2482,-7439,6849,-945,-1433,-1275,-338
2483,-1963,-2941,-2884,1023,-641,1463
2484,6042,4968,356,-267,1622,-747
2485,-3312,6314,3254,-1285,-1311,-1521
2486,-5803,1165,-4782,-755,-825,-1012
2487,1481,-7859,4483,-1303,-965,-1794
2488,2611,6397,-1290,-432,1938,-847
2489,-3646,-3412,5522,1621,844,1301
2490,-6894,-3611,1285,501,-819,302
2491,-5331,-2398,-1941,-1406,-1080,-48
2492,-284,5821,3940,1123,-1137,-1743
2493,4976,1609,6068,-2,1753,1334
2494,-3408,-296,-1598,559,-1063,129
2495,-2942,-5809,-4157,-948,-615,-1497
2496,-3080,-1895,-5052,-840,-1177,-1681
2497,1191,3147,4312,-1609,186,309
2498,4242,4165,-5570,-1813,-1514,-364
2499,-6980,5659,-4125,-1005,1491,1449
2500,-7884,5564,3754,377,1595,-916
2501,-492,6574,-6144,1284,-764,-161
2502,-7437,-2861,3619,1291,-1430,1091
2503,-273,3293,2192,-285,-1112,-661
2504,-2331,-3095,-2596,1822,-1441,308
2505,-1572,-2019,-2660,476,-378,-22
2506,5071,-2522,7308,339,-769,-1964
2507,6709,922,-4957,470,1410,-1634
2508,621,5519,-7557,1034,494,-946
2509,50,179,4768,676,-1141,-205
2510,-6858,-591,5541,-1702,806,260
2511,7562,-931,843,-764,249,-1393
2512,-4348,-6202,1609,1639,242,504
2513,1342,-2711,-5589,59,1203,1543
2514,5594,-7054,-1848,1621,181,-1161
2515,6028,-4691,-646,-1365,521,1550
2516,-4593,4996,7533,-157,1306,-637
2517,-7498,4542,-4261,-918,-1969,-806
2518,2129,-3887,-5209,539,-994,1479
2519,-7566,-6372,-4855,-1838,-1954,-1827
2520,919,2940,7347,-529,140,1348
2521,229,4908,-4652,-1809,-1465,-954
2522,-7448,331,-5373,-1515,1950,431
2523,3178,7255,2580,-1639,-1426,128
2524,-6646,3669,-4410,-1680,-1992,909
2525,-7815,-3123,-3008,1625,-1536,-238
2526,805,644,-7178,-982,893,-549
2527,2777,-2803,4783,-135,-1910,-866
2528,5520,2580,-1548,999,153,-1413
2529,6785,882,1008,812,-1705,-1924
2530,793,-2203,3758,-387,803,1417
2531,4716,6792,-418,815,-571,653
2532,1739,-4420,-552,1308,1221,1123
2533,-2455,1333,6688,-1686,-205,227
2534,6386,2612,2866,1191,195,1926
2535,-5194,-4913,-5187,-1062,481,-1191
2536,-1941,5724,-270,-1763,1972,1594
2537,-1570,-3111,-7743,-282,-726,1111
2538,-2213,2801,-7854,-786,-1287,-1631
2539,7495,177,-844,-1921,162,1614
2540,7703,3322,-2749,948,-1049,-423
2541,6242,816,1765,-1102,-437,1631
2542,2280,-3559,3507,356,996,1095
2543,-6857,-2725,4545,-418,1918,-785
2544,1557,2930,3746,1577,-1122,670
2545,-6319,708,-5638,485,516,764
2546,-5649,3144,3004,703,1252,-1950
2547,-3602,747,-4761,272,1651,-1174
2548,-5055,-452,5561,-790,-430,1973
2549,3294,-5678,6308,-1710,37,-900
2550,-2740,7348,497,994,-48,-40
2551,2631,367,-6759,521,563,-1323
2552,3138,226,-5646,-1890,1878,788
2553,5159,3526,1442,1882,806,-1387
2554,5542,7741,3445,1730,-876,-1938
2555,3099,1874,-5755,1788,-1138,-398
2556,1146,4652,-1296,543,-1114,227
2557,-822,-2942,-3290,-822,-1722,-1418
2558,-4828,-2782,37,-877,1047,1336
2559,-7599,3850,-406,1802,538,-1735
2560,-67,184,5357,-1090,-1039,-1434
2561,7762,465,7205,481,-1365,1162
2562,2937,3210,2098,-1948,1656,865
2563,1585,2667,-2181,-1148,-408,146
2564,3101,-7089,-3010,1714,-1606,1591
2565,7724,-6072,-3590,770,-1202,347
2566,2956,5286,622,1375,1824,757
2567,1149,4063,2294,-1191,988,-520
2568,4741,2508,-5628,-461,335,-1029
2569,-1906,1109,759,-430,-1311,-862
2570,-252,6647,7493,108,925,-738
2571,-6630,-6647,-881,46,1136,-1694
2572,-7401,-1261,5135,-1740,148,298
2573,1141,-7091,7523,1872,-581,-996
2574,-4086,6166,-1918,-117,-904,1928
2575,1548,2457,-3315,-1044,-688,706
2576,961,7130,4733,-617,596,884
2577,-6964,-4452,356,-1025,-613,517
2578,3143,3461,-6178,-587,658,-1750
2579,7625,5317,4637,-1476,-788,1161
2580,-7840,-5049,-5084,507,1680,273
2581,7809,7301,5918,1884,-1601,1187
2582,-1544,828,2853,-885,61,973
2583,-6892,1616,-1166,-959,1298,-1777
2584,5659,1925,-4126,-1346,-669,993
2585,672,-7016,-7047,-1880,1265,474
2586,7485,4888,5196,-256,-805,-1789
2587,5324,1602,-2042,-509,-971,-864
2588,4949,-1460,618,-1681,575,-1976
2589,-7,-2914,-6894,-326,-1015,-1841
2590,-1611,-4727,-3171,-1612,756,-1626
2591,6533,-6849,-4913,1312,1119,-588
2592,7812,2235,-2640,-529,-1227,56
2593,6506,7508,1998,-495,541,-1595
2594,2282,-3301,4405,-358,1722,-1017
2595,4100,-7302,-7733,-987,-880,-136
2596,-1689,-7059,-4370,946,989,120
2597,6006,-6166,-2933,889,-133,-1331
2598,-2025,7419,6106,-515,-543,-1595
2599,-2418,-558,2377,1873,1707,294
2600,-2818,-7457,-4369,-621,500,-1206
2601,4163,-5897,-2173,-329,-1933,1730
2602,25,-7885,-4761,-22,-617,636
2603,7252,6622,6963,539,-1461,-1810
2604,4708,6557,-771,1709,-1462,1692
2605,7759,-717,-2582,-58,979,-88
2606,752,1736,1328,-784,1235,-743
2607,-2865,-7739,-5681,-1573,-858,478
2608,-2556,-3608,-540,1480,507,671
2609,7095,-6748,-2125,1613,-1300,-1946
2610,-6905,-7498,2746,1680,-635,480
2611,-2097,5433,-8,-440,1301,-131
2612,-1308,3038,-471,1532,-1774,-1047
2613,-6451,-480,-3457,1409,641,-1412
2614,-4534,-3621,-6329,1458,1620,-881
2615,5056,6229,-3251,1821,-1266,-1190
2616,-7291,1918,1837,486,1872,-69
2617,-6208,-417,2869,-1175,56,-1228
2618,-168,5302,1583,1684,-1505,382
2619,5443,-7307,6602,290,7,1703
2620,6322,2584,3156,-301,628,-1156
2621,-913,-2278,-7912,1922,174,679
2622,5870,-4548,-5418,1518,-1727,-1727
2623,-2183,-7263,-2292,-1555,857,1537
2624,-257,7020,-6488,1385,1129,1077
2625,7735,-5065,3827,-1032,1119,-1895
2626,1731,6679,2246,-1437,-282,-1917
2627,-4918,-396,5505,1328,-1807,-1330
2628,3475,2940,-6964,-551,-1369,-512
2629,818,7434,-7545,468,-910,-662
2630,5847,-1394,-6008,1623,-1097,-252
2631,-5567,5619,3488,1794,1407,-609
2632,-3360,613,-4129,-1833,29,-971
2633,3211,-4413,-4595,-437,1813,1438
2634,1637,-234,5617,-1422,1051,-199
2635,7987,7524,4645,-339,-704,1410
2636,-6920,3819,-5698,-1261,-1657,-1764
2637,-6787,2821,-3587,1529,1051,691
2638,153,845,7357,-1246,1103,-735
2639,-5614,-2531,4971,412,-1944,1475
2640,-1497,2003,-308,-1546,-1194,1629
2641,-2700,1597,3783,-400,1691,477
2642,6360,-5057,-4041,-592,-680,733
2643,6848,-5907,-6213,-1203,-211,-1372
2644,-7056,6349,5746,-588,-1003,1682
2645,-6617,-1108,126,788,-906,-989
2646,-4593,-955,-3645,-1846,-479,1431
2647,1371,-7813,2404,488,837,1278
2648,5664,-1638,-4480,805,-229,620
2649,2157,-6398,3728,-1602,912,-1634
2650,-5410,2675,7935,1515,1636,715
2651,1151,6587,-5261,1541,-787,1633
2652,-3082,-4866,3402,-1325,1735,1939
2653,1054,4356,2288,-579,-1563,506
2654,181,6970,-5030,-876,-1328,1100
2655,-6835,-251,-7001,-1216,1358,1084
2656,433,-6199,7887,1018,679,-369
2657,-377,5670,-1424,-1642,-354,-1753
2658,-1782,3408,406,1056,-1414,427
2659,6906,-7577,210,-1407,-1563,-1272
2660,2777,5645,5201,611,244,-350
2661,4736,-5197,-3667,975,-1740,-267
2662,7200,6680,-7814,-1352,-373,1434
2663,6022,5565,5224,1254,1296,504
2664,-863,2242,6098,-620,-1473,189
2665,-6539,-2352,-2899,807,1142,1698
2666,4164,-2919,-5330,-832,956,485
2667,7030,7729,-7572,487,-1118,913
2668,5420,-1052,-6467,696,-1044,1642
2669,-5290,5180,4180,-638,-53,-136
2670,4758,-6433,7950,-1534,-1864,-1633
2671,2533,-6023,2640,1311,24,411
2672,5266,-5155,661,954,1611,664
2673,-7240,1791,6670,-1733,803,93
2674,-6737,3145,6332,1361,136,1494
2675,4125,3939,6193,909,1599,972
2676,1745,3094,1230,-1315,-1916,1991
2677,-4041,4120,6799,1033,-1246,-756
2678,-5143,3769,4617,1981,-711,849
2679,4326,715,2871,970,-733,835
2680,-1166,-63,-6179,-1382,-67,-428
2681,346,-3030,-4829,-1748,1475,1572
2682,-3473,-4232,1112,-940,901,907
2683,-3402,-4582,-4272,-2,-13,296
2684,1142,6341,-7661,-722,-279,-428
2685,4419,7723,6316,-604,-167,-1306
2686,7307,-4824,4354,-200,808,1858
2687,-5997,3202,-4044,-820,254,1539
2688,-4048,-3722,3024,-1512,87,-1691
2689,-7295,-5149,-6595,1372,-25,1900
2690,1558,-2107,9,608,1471,670
2691,-3703,7441,-7187,-1660,16,-1164
2692,-5864,-6240,5204,611,-420,1544
2693,-1136,766,-7390,-1495,1947,157
2694,-4026,891,422,-1612,168,-183
2695,1021,5629,3126,-1114,450,-1405
2696,2027,7343,-7852,1449,-213,1443
2697,4446,-2696,-3902,309,-1949,-1381
2698,-591,-1551,6147,84,-332,1358
2699,-217,1697,-4410,983,-1455,-687
2700,4713,-5800,3965,1750,-411,659
2701,-6884,702,1372,-1206,-1284,1810
2702,-2195,3329,6178,1419,-1180,-1925
2703,-7291,2688,1440,-527,-1605,-251
2704,7835,-2106,2584,-115,1634,-1238
2705,1976,3799,6468,-1161,1876,1204
2706,-1455,-749,4445,997,20,560
2707,2576,-4478,5501,1163,399,764
2708,1798,-2626,3022,-237,1083,682
2709,-2485,6806,2678,78,-1533,-493
2710,3623,377,5943,-792,-1712,941
2711,6534,6082,6943,-1918,489,-1550
2712,-6459,2661,-5932,-1554,-1026,-1340
2713,-4285,-4548,3815,-61,-1692,642
2714,113,-7108,-2906,-1466,1034,-1922
2715,-3287,2666,-6297,-1073,129,1964
2716,892,-6996,399,-198,772,1400
2717,3539,-4622,-2652,-1665,-1822,-947
2718,7582,5064,-1943,1671,826,-1658
2719,555,1434,608,252,921,-550
2720,6852,-7626,4915,-1802,-1387,1697
2721,5521,1660,3211,956,1283,547
2722,-1647,1470,-1099,-1650,-1835,-697
2723,-3981,-4189,3281,-1627,-251,-655
2724,3224,-2998,-39,662,1972,1542
2725,-1073,2904,-7276,1565,771,214
2726,-192,-2379,5552,864,-1041,456
2727,7064,4763,-5121,-228,-1022,39
2728,4169,-6398,-654,-893,-585,755
2729,2871,-4764,-591,681,968,-1035
2730,-650,5189,-1603,1690,-895,245
2731,3893,-377,-6076,933,1360,652
2732,5418,-1674,2050,-820,787,-954
2733,7137,7522,-1013,1575,-118,-674
2734,-7339,-661,657,1074,-1924,1865
2735,6275,-5617,6262,-1634,-1370,1874
2736,7346,651,-2898,-744,-1858,1619
2737,4681,-7217,-3188,1199,951,515
2738,1936,-4554,-144,-82,1548,1119
2739,4212,-3325,7926,1163,-1156,-201
2740,581,6712,143,115,-18,1640
2741,-923,-2946,74,-1894,-866,-1246
2742,-3965,-3073,4627,1231,-159,422
2743,-5700,4545,5876,1554,1718,-1373
2744,-4344,-2345,5374,-1208,1929,1607
2745,12,4768,4117,-1619,716,1075
2746,-2702,7475,-938,-1807,1260,1758
2747,-315,4685,4160,673,1316,-1654
2748,-3641,-2367,4471,498,1443,-722
2749,-1225,1048,-4819,-1384,-1446,832
2750,2500,-5873,-2687,-1801,1404,707
2751,3606,-2405,-3372,532,298,958
2752,-6097,-6415,4243,714,1196,174
2753,7144,-7929,-5025,1761,-921,-1021
2754,-174,-1567,3509,-1204,-1643,-273
2755,5899,6626,-2969,-1220,791,389
2756,-6800,5537,1852,-1617,-875,-1759
2757,6108,-1622,4999,1310,1940,166
2758,-780,701,4433,1822,1441,-519
2759,-825,2946,-5003,102,1543,-799
2760,-3678,-7332,3988,218,1942,-358
2761,7434,3867,-7192,-1968,-1306,-681
2762,-3026,-2120,2078,-1529,-162,734
2763,-2159,6895,2218,1016,855,1625
2764,2731,5492,-2454,918,-446,988
2765,-2797,3646,-1168,1821,-907,1373
2766,-8,-4304,-7158,-257,-709,-589
2767,-5612,5557,7563,-457,771,-1573
2768,-5512,-4165,3994,-1165,176,1625
2769,4613,2130,3894,-606,50,-1661
2770,433,-6561,-5528,-1051,-1135,1398
2771,-348,5300,742,1302,1317,-245
2772,4520,6418,6145,-747,217,-788
2773,-6431,4068,3157,-470,-1489,917
2774,3119,-2133,3712,-1152,-792,349
2775,-4670,6242,-2892,-1021,334,1671
2776,-6618,3591,7736,-690,1424,-267
2777,2026,-834,-741,1398,560,-1847
2778,-4955,-6976,-6872,-710,-1432,316
2779,158,6763,-3410,-181,-1351,1673
2780,1314,-4333,1726,-578,274,1878
2781,-414,3024,3221,-1320,-1460,1403
2782,-644,-674,825,1505,332,-1281
2783,5261,-197,5920,-249,438,-268
2784,2638,6987,3772,889,-1870,-1173
2785,2890,-6202,-377,-157,-991,1381
2786,-5760,-4346,-2111,1839,1560,541
2787,-6763,4792,2633,-420,583,468
2788,-6974,-7251,358,1055,-1304,1142
2789,1919,930,-6325,-1347,-458,-1449
2790,6886,7901,-4489,1108,1268,885
2791,-6820,593,-6474,-521,-1280,1505
2792,3038,-4233,-1371,562,-107,-965
2793,7861,-5955,1050,-1699,803,1739
2794,2412,6939,743,-1429,550,1230
2795,-809,7314,-4124,1417,735,-798
2796,542,6945,675,910,-1490,-247
2797,-2094,484,2430,884,-1175,-1060
2798,-4352,-258,3387,-1718,-174,137
2799,-2790,-3895,-4950,537,-595,1185
2800,904,3339,5869,377,-1288,868
2801,-1674,-2995,4886,683,1501,-1548
2802,-6577,1294,223,1120,-1874,-901
2803,4492,-2195,2282,1670,1626,398
2804,-3334,6519,-2363,-924,-115,252
2805,-487,-5894,-6091,-1828,-586,1125
2806,7930,-7027,3836,-1307,-853,-1467
2807,-18,-3318,-6149,-232,-733,-1493
2808,-1608,583,3069,208,-669,1447
2809,-1623,-1995,6918,-907,1253,-1436
2810,3922,-530,1386,-153,520,-1783
2811,-5067,2915,-1185,328,1738,1507
2812,-5588,-3314,-5772,854,253,405
2813,-5505,4299,1179,54,-1270,-815
2814,-1882,5392,4077,588,-1478,-11
2815,-7889,-2627,-87,141,-1499,-456
2816,-1191,5029,-6914,242,1382,-606
2817,4809,5177,2740,-1637,1622,303
2818,-6663,1128,2801,790,-455,212
2819,-3098,-5817,-2515,369,1888,1377
2820,7030,-5331,-4744,617,1809,891
2821,-4866,-4652,-7914,559,812,-549
2822,6523,3346,-5446,677,645,-1250
2823,-922,3329,5968,333,-1639,885
2824,75,-4053,-2146,-626,524,-1916
2825,2200,-7384,-327,322,-1520,-505
2826,-350,3095,884,1299,1556,-994
2827,6781,-1387,1302,-1263,-1829,-1179
2828,-665,-329,-5399,1946,-1165,-659
2829,6278,-361,5526,1379,506,803
2830,1731,277,-2564,753,-699,-540
2831,162,3419,6123,-687,260,-661
2832,1206,-4318,3902,1599,1772,-1866
2833,-2395,-2892,3021,-289,-623,-1889
2834,-3961,-7495,-99,-1605,-1155,985
2835,2481,811,3783,-1077,1571,1007
2836,6069,4139,3927,-597,1785,-1049
2837,2051,-1295,-2338,-77,804,-1488
2838,-6915,18,7416,553,858,92
2839,1895,-2368,-5566,1220,-839,-731
2840,6351,-981,3428,1737,1342,712
2841,7215,6914,-3407,-1052,1507,-945
2842,-5609,-3861,-3903,1698,-637,619
2843,6248,1616,-3211,1850,-218,1656
2844,-1605,-352,7926,-27,-967,299
2845,7244,-7915,6407,1899,1377,1540
2846,-3653,4853,-2328,626,-624,1506
2847,497,6362,-5664,1921,828,-647
2848,-5001,-2343,5055,-506,-829,-1134
2849,2333,-4065,-5400,-857,-1843,-1912
2850,2496,-5563,6663,-908,-878,-346
2851,-1695,2755,-1512,-87,-931,806
2852,-3518,6814,881,-1858,-232,417
2853,6665,-5119,7447,-1210,-144,299
2854,4719,-2389,5446,1266,1528,970
2855,5717,-6607,-3298,-1534,-1769,805
2856,-3725,5853,-7780,-553,65,-1268
2857,-7296,-6173,-3417,-1738,-1624,-839
2858,5639,351,-606,-156,1501,1735
2859,-7998,-227,-3078,-1109,1102,-8
2860,-513,-6692,-6200,-158,-345,-253
2861,3683,3971,-6335,-524,248,-1395
2862,-7276,-1870,1799,707,1325,79
2863,-4231,-4514,6389,724,-1199,-1958
2864,3710,-445,3100,-910,-57,1268
2865,-6964,-2066,-6358,1578,434,-576
2866,4669,3386,3153,-931,-1548,694
2867,1294,-5591,-6390,-861,241,-906
2868,-1428,-4683,2887,1663,-1573,1167
2869,1857,-6352,-249,-821,1331,1877
2870,-5088,1093,-7152,332,496,-1319
2871,-7714,3151,-4836,862,1573,-1851
2872,705,1653,7504,1164,546,403
2873,-3920,-2461,5525,1614,-1142,-1611
2874,-4323,-4625,-1296,297,1406,-1184
2875,-652,3079,5374,-1539,-1295,1933
2876,6010,-4423,-899,-771,453,-1569
2877,-6684,-7640,-2753,-857,-387,-60
2878,3009,-776,2776,-1314,919,-546
2879,-1046,4527,4096,-929,145,691
2880,-4881,2540,4022,94,-446,-1342
2881,-665,-1733,-3899,-128,281,651
2882,-1162,1919,-2004,-160,1740,1483
2883,-5613,-2907,-2398,-825,231,-820
2884,6363,-5086,267,-1093,-824,-256
2885,3618,1490,-5608,617,1712,-1983
2886,4940,-1274,6006,-1591,1776,1664
2887,-3787,-4896,-4763,-1021,-425,-966
2888,7252,7425,-4721,-211,1185,-314
2889,-4332,-3503,-6924,528,-791,11
2890,1239,1970,1191,-1360,311,877
2891,-5216,-6146,638,-1288,870,-808
2892,-6725,3354,-17,-650,412,-1459
2893,-22,-2852,-2717,293,-1699,1282
2894,-3312,5348,-3367,-1084,871,-1178
2895,-58,5367,-253,-1004,549,-956
2896,-7314,-1789,4828,-1149,-1505,235
2897,4209,-3147,3697,-295,-285,1839
2898,-2202,1103,-5739,-711,-67,-222
2899,7292,4214,3243,-22,-252,-538
2900,-4630,2431,1050,1441,-448,1358
2901,-4136,2161,-6791,-1923,-331,-1054
2902,5199,3131,7237,1518,-716,-693
2903,-4850,2643,2802,-417,-1618,-1205
2904,-1448,7932,-1105,-388,-1405,1015
2905,3228,-6108,-701,1929,1889,-1137
2906,-5139,7390,6318,-674,-663,-1213
2907,1439,4014,-2049,-1237,1196,677
2908,2,1829,1142,-110,17,1390
2909,5039,-4085,2626,350,99,1051
2910,1477,-7774,-3775,-1001,287,1093
2911,5235,83,2529,1367,1370,-263
2912,3744,-7918,7337,-1746,201,399
2913,-5903,-341,6079,-858,-1827,1515
2914,-1958,1897,4065,1189,1858,-1646
2915,1781,-5158,737,1611,1482,814
2916,-3949,7888,1036,-893,1944,-1615
2917,5609,52,-4641,322,-883,1096
2918,-6761,-7464,4295,1967,-21,745
2919,2151,185,-4377,-1834,1660,1588
2920,5130,-3247,6916,-1391,838,-1281
2921,2217,4538,-7461,593,777,-322
2922,-7229,-3143,6637,426,-1810,-1458
2923,-5615,5268,5377,907,-306,-1895
2924,-6629,-3294,-6054,1459,1480,-26
2925,-6029,-1773,5500,1896,-938,648
2926,-1125,6936,2623,-93,100,-215
2927,-5578,2966,1671,-1612,708,-1817
2928,1388,2489,-4650,-1899,1506,-622
2929,4687,-6031,7632,-1975,573,-149
2930,4376,-4802,980,-829,1938,1670
2931,2196,-1113,-3625,-1319,1481,-1691
2932,5831,-1584,-6118,881,700,1860
2933,-2498,-4106,-5889,-13,144,-808
2934,2647,-6962,4760,224,-829,-1707
2935,-2871,1473,-5787,666,-500,897
2936,-7725,96,1227,-1338,-654,508
2937,4093,7690,7194,548,-244,-240
2938,-4352,1990,-7162,1750,-1687,-765
2939,-1900,-6095,-2284,459,-562,20
2940,-2745,-5400,2522,-1279,146,1135
2941,-831,378,4462,172,-332,626
2942,7194,-2973,-4529,-315,-1990,1017
2943,-7550,-7240,4605,-1331,1886,-1555
2944,5981,-6355,4280,937,-1773,-1457
2945,-3277,2826,2262,1431,899,-180
2946,-930,7906,-1968,1356,1343,-1510
2947,-83,-5987,-434,757,1505,784
2948,-944,45,1347,-1192,-1809,131
2949,3760,-2076,6696,583,803,147
2950,-4770,7558,2150,152,-117,1799
2951,-5277,-4871,4578,1371,1931,232
2952,-3638,-4422,690,402,1645,-960
2953,-2171,7022,-6011,-551,932,599
2954,197,-1848,-3286,386,-1638,1535
2955,6704,1321,2896,174,-1448,-879
2956,732,-1295,-3628,-1780,-1906,-241
2957,-7891,2495,-2818,1290,-73,-1380
2958,2920,6375,229,1618,314,-31
2959,5191,5056,-3906,1026,-1553,806
2960,-7520,-637,-1854,-47,1072,1825
2961,-2992,-1508,1660,-31,-1830,1500
2962,1256,-405,-6457,-1401,-75,-567
2963,4324,6148,-4237,-950,-1084,38
2964,-2894,-5577,-2906,1746,-345,105
2965,-6157,-3532,7588,-1883,1507,116
2966,-115,-1192,-3408,-1372,917,-1446
2967,7198,-6463,1678,744,415,1437
2968,-6184,2278,4791,-260,1177,-1250
2969,-2090,5847,-7038,890,-1847,1649
2970,-3467,2122,1466,-922,-1955,1830
2971,3663,1712,-7417,-1966,-439,-1475
2972,1471,1119,7946,-1843,-1743,-1935
2973,-1287,5661,4163,190,1234,-1389
2974,7484,-1604,-3862,-466,547,-955
2975,-3475,-3150,-3647,-92,1909,-1078
2976,309,4675,286,-1824,454,-761
2977,-7701,7766,-685,1580,1154,-796
2978,3959,-1526,-6379,1263,1251,-1926
2979,1182,-5057,-1899,-622,-796,-723
2980,-7094,2485,-7172,-1563,1505,406
2981,4505,45,5109,17,-924,-406
2982,3165,-2009,-2481,-723,1590,967
2983,1712,624,1333,606,1674,692
2984,6683,-736,-1735,1306,368,1941
2985,-910,6678,-7548,1746,120,983
2986,-3264,-3781,-167,488,-1925,1847
2987,3307,-4570,3530,-1195,1542,1581
2988,4866,-5894,-4425,1813,1359,1690
2989,-7061,-4893,5490,1521,221,1660
2990,6750,1317,3091,177,-1696,-1829
2991,-7513,960,7979,261,-188,185
2992,-6623,7832,-815,1078,-1389,1517
2993,5000,2893,1865,-1030,1521,-489
2994,6608,6041,6733,-1884,-770,1083
2995,-34,7934,114,128,-1458,-194
2996,-5591,-3842,-4365,-1508,-853,-1872
2997,1191,-1173,4437,774,-893,-1916
2998,2338,-2410,3429,1225,1805,-1254
2999,-6698,-1937,6657,671,1267,917
3000,-5880,-2545,7745,-495,1065,97
3001,4792,7294,6692,-1528,1548,1978
3002,7901,-6059,4198,485,-146,-1636
3003,-2130,-437,-3015,-782,-393,-160
3004,-4209,-77,3857,-1679,935,1083
3005,-5733,-7175,-5076,1408,1758,162
3006,-2480,6591,5470,-714,1027,-442
3007,463,-1618,2382,-705,-796,-39
3008,4136,-5180,-7249,1321,-1736,385
3009,7221,-1929,3160,1970,727,-870
3010,4811,6318,7036,1640,-897,-1975
3011,-2797,1723,-1767,386,-715,898
3012,-1421,7093,2209,-156,652,1277
3013,-828,-3596,-5132,-811,-584,1074
3014,-4081,-7004,2390,886,1230,-103
3015,-4627,-7798,1652,-355,-119,1648
3016,-7214,-5285,217,-340,1632,-1220
3017,2817,6432,5388,-883,1652,937
3018,-6279,-7730,-3520,1522,-589,-214
3019,-4116,7302,5157,-1018,-1013,1505
3020,-6604,-7518,5033,-256,1676,-663
3021,-7699,-3874,-4851,440,1622,-254
3022,3125,-2701,2186,-1273,865,-503
3023,785,-2046,1269,-1266,1086,584
3024,4260,4757,-7698,-535,-725,775
3025,-4423,5628,-7052,1412,-1553,1337
3026,-6822,2939,480,-821,242,416
3027,-4226,-7531,-3213,760,-1771,-1957
3028,-7946,2845,4405,904,-827,-581
3029,-7220,4363,3803,1695,-1248,-1070
3030,4104,1260,-4934,530,327,-790
3031,-6471,-1553,-3805,-914,-1561,-1755
3032,-399,6831,-2668,-620,-1107,-1149
3033,-7228,2303,4062,-954,245,-236
3034,2349,-2380,-6925,-1185,1280,-513
3035,3668,-4709,-4708,1975,439,-1876
3036,-2978,-2800,-1970,1196,1944,-109
3037,-1452,6132,4683,-743,-1246,-1070
3038,-4079,3138,-5421,1830,-1804,1646
3039,7924,-5886,5021,-289,-290,1638
3040,3221,-2226,-3251,-32,1397,802
3041,-5494,5660,-7561,-1045,268,375
3042,-5559,1637,330,-1088,1271,-1929
3043,69,1734,3953,-929,-1953,-269
3044,2787,-4537,4306,-345,1399,792
3045,6164,-1344,-1115,943,-911,1922
3046,4934,1629,5830,609,-1935,-192
3047,-6448,6981,7238,1596,-694,-1404
3048,-7677,-6717,-7333,1431,1263,-409
3049,-7303,-3543,6139,567,27,-1589
3050,7058,708,-4933,-1145,138,-1008
3051,-7156,-7627,4059,-1481,114,1736
3052,-7271,-6547,-4358,1669,804,265
3053,-2649,-3119,-5170,140,-17,-118
3054,-3614,-6286,562,1828,-1407,-443
3055,946,-741,4505,35,9,-428
3056,962,-6509,-7537,-1250,1119,1262
3057,-6168,7956,-7661,605,449,-862
3058,6156,3217,1044,-1098,-1611,-234
3059,-6861,-4882,3762,708,866,-1302
3060,3000,4906,-2122,1653,1212,-834
3061,5256,-7739,-1316,1387,-84,711
3062,-4703,-7392,-303,-1384,-514,-1858
3063,-6704,1423,7932,1798,-299,40
3064,-6878,2095,-158,1954,1345,221
3065,2080,5983,5207,1450,-1099,1424
3066,-297,1680,992,603,603,824
3067,7872,1651,3624,-1212,-942,-1158
3068,5874,-3812,4931,482,-433,-149
3069,-5308,6929,7550,1809,886,-146
3070,-5785,7299,5110,456,68,162
3071,7582,-7725,2282,-1425,509,140
3072,1665,-4906,-1568,1517,595,-721
3073,1386,-1721,2939,-1704,-1891,-753
3074,508,-5146,-2149,1425,-714,-1660
3075,-4410,7214,-1665,-364,-635,-1113
3076,-5135,-447,-1055,-782,-49,125
3077,2565,-144,-4277,989,-1961,455
3078,1656,222,-5465,-123,-1157,1508
3079,150,7958,-7064,226,-1599,1267
3080,-1303,-7094,-2679,-380,-1790,1941
3081,4077,-2909,5006,1098,1782,456
3082,2916,-6026,-5489,-1295,-1176,852
3083,4535,-6630,-3315,-1277,1534,1037
3084,25,-2740,846,748,-1518,-863
3085,5619,220,-3573,-1175,241,1340
3086,-1740,-4679,519,295,-578,-1482
3087,-7935,2138,7,-1812,-1937,-1835
3088,-1535,6249,-6412,1626,-1089,1747
3089,4946,5570,714,-1352,1847,-724
3090,5389,-271,1631,-1693,-930,1741
3091,-4065,-2154,1026,-729,393,228
3092,-813,-2010,7865,-199,-1174,1849
3093,-3008,-5349,3007,1955,-1819,1919
3094,5932,-163,-2170,-914,209,82
3095,3224,2473,4110,1701,-301,1038
3096,3148,2860,-5306,1919,1033,-970
3097,-677,-142,-2063,-1703,669,1918
3098,-5218,-7794,-4434,-1142,1439,1651
3099,-1153,7077,6159,-10,1262,-636
3100,6947,-4381,-4971,1443,-1116,1065
3101,7769,-1067,6687,1541,1391,-817
3102,-213,6248,6645,-1316,-558,893
3103,6535,-6514,1380,1993,-1182,1500
3104,2843,-2090,-3166,-1639,-303,635
3105,4963,5710,1623,1892,937,-1844
3106,2223,4052,-507,-763,273,1783
3107,-5821,-2230,-6364,-474,176,1610
3108,-5280,-3574,333,-989,1858,-1524
3109,7592,-5048,-3757,-132,-747,-1594
3110,6600,-3012,386,928,79,-150
3111,1846,7573,-7108,-1050,-1822,64
3112,-3538,3127,-5220,421,882,-1238
3113,943,-6059,3382,-432,1006,-1828
3114,355,-4450,5467,972,1200,268
3115,1263,-6564,-3216,1706,39,-1530
3116,2644,-7969,-2383,790,-591,-1706
3117,-2493,-6572,3979,300,157,-1025
3118,-102,3522,6828,-656,1531,-196
3119,889,-1245,7682,702,1120,-273
3120,-7877,1295,1696,-1709,-196,-878
3121,-971,-5920,398,1269,949,-279
3122,6382,6463,3969,1516,1048,-1346
3123,5460,3150,-2072,1946,-5,-1239
3124,-408,-2370,2245,1236,367,1817
3125,-7502,7291,5928,1531,-1182,998
3126,1946,7161,3363,-770,1957,-1338
3127,-7485,-4507,395,-888,139,1160
3128,5788,7004,-6891,1563,-416,338
3129,4317,-5160,4926,-681,-35,1041
3130,-3166,-6043,-4320,-997,604,-197
3131,4301,1653,-1519,-1958,-566,-750
3132,-754,5791,2105,-1752,1664,1302
3133,-4608,3945,5742,689,-942,716
3134,-3112,-5679,5365,-1784,-382,1338
3135,-2069,206,-6758,558,-750,-129
3136,5486,-7920,-3366,197,396,-1422
3137,7053,-2487,4526,183,100,-854
3138,-5448,-7067,-3375,715,-1799,-880
3139,-3835,-5403,-117,-593,-1912,-587
3140,6017,-3088,-5151,1308,1742,224
3141,-797,-4733,-7812,554,-625,1170
3142,6543,980,-4967,-931,355,1158
3143,7308,-7563,-2266,-310,-1637,-994
3144,4158,7618,-7413,-301,1523,-452
3145,-5147,952,-4679,-545,708,-493
3146,2601,26,-4051,1636,288,1503
3147,5559,6995,-5996,1098,347,-210
3148,7516,-5617,-2856,-694,1371,1095
3149,4282,13,2394,1889,1483,-1140
3150,-421,-5823,5502,1631,-200,-215
3151,-3802,-6657,-950,910,1899,-426
3152,-3498,2850,-6595,119,939,1780
3153,5266,-6267,-7386,-674,1488,-1460
3154,-3864,3186,5494,-1179,-948,-1683
3155,-4560,5444,5448,453,-1083,-1750
3156,1102,-7939,-2903,-7,-320,-410
3157,-4661,-3157,2425,464,-508,-255
3158,-88,6136,-2962,199,665,-894
3159,-2399,-7023,-1768,-856,-1972,275
3160,-4687,-5229,5341,1219,1989,-1264
3161,-562,6059,-437,-1562,1340,1746
3162,5909,1268,4270,1084,-932,1234
3163,133,5831,3099,31,-1209,-1682
3164,5359,-1118,-3659,819,1097,-1955
3165,-4817,505,993,1681,-1675,-1720
3166,1392,3770,-1879,1789,-1098,-755
3167,2453,-4428,7490,-763,622,1771
3168,-7728,674,3101,776,82,362
3169,6832,1905,2463,-1462,1196,658
3170,108,25,1391,1530,-1284,-1467
3171,5587,2221,-1782,300,-1777,-844
3172,-7305,-2477,-156,435,1618,1580
3173,3920,5252,-1605,1109,777,1972
3174,1075,3895,-6482,972,-1446,1505
3175,2289,-1791,51,1703,1275,-158
3176,-6557,7127,4547,-1377,217,79
3177,5802,-6147,-7122,-1373,-551,721
3178,-4857,-2796,3735,-658,1122,-1190
3179,2019,-7799,-7062,29,-84,-438
3180,-966,-1716,-4697,419,-1596,1037
3181,5350,3466,-266,-1973,-332,957
3182,-7420,6942,2693,386,-386,485
3183,365,-2453,-3596,161,786,1208
3184,7407,3865,-5243,-645,701,444
3185,-2248,-7211,-2305,-129,946,1615
3186,-4543,-6046,4951,-1173,679,-1406
3187,6656,-5015,2950,909,340,1637
3188,4362,6170,6935,1794,-1078,-1786
3189,7162,1540,-7201,1635,1795,-120
3190,7013,635,-3364,-986,917,467
3191,1723,-1170,-6783,-501,663,-1994
3192,-6364,-2031,-683,-1893,-122,144
3193,6147,7590,6394,696,1402,-926
3194,-3230,985,-5108,-1641,-1508,-629
3195,-7914,1762,-7897,1686,761,1425
3196,1285,5641,2293,1057,599,-758
3197,5014,-4472,1493,1133,262,855
3198,-5797,5427,-204,-1859,513,-255
3199,7288,2314,-1306,1969,390,303
3200,-1518,-2316,-3345,1429,-1495,-849
3201,-1150,-1430,-260,962,20,737
3202,-533,-3805,3141,1719,-1302,-337
3203,2625,-2205,-3642,1616,-1097,-623
3204,4933,4976,1624,911,-1643,1819
3205,-6023,-1706,5769,-1204,1118,271
3206,3067,1608,1416,-418,-603,-774
3207,5539,-7575,-3853,-1065,-1535,1344
3208,-3358,6952,-257,1735,-1448,1132
3209,1250,4558,2142,1188,1640,-1753
3210,5351,-2796,-3394,324,1849,-592
3211,5680,3966,-6014,1321,1576,1701
3212,-4871,-7360,1704,-1440,-1513,-1216
3213,-2226,7379,6825,-602,-1891,335
3214,-4842,-7292,-7576,-1808,-304,-75
3215,-2624,2417,-1788,-519,538,-1225
3216,-4332,-5404,4220,102,154,1154
3217,3140,3978,-7386,-155,-855,709
3218,-5042,1263,-2951,-1009,-163,1432
3219,3921,-5317,-5465,-379,1902,1634
3220,-3866,-7430,-4444,1482,-1985,-1394
3221,1593,1521,2174,-1265,-350,954
3222,3177,3044,-637,460,1870,-70
3223,5195,1746,-2206,-1771,352,-1525
3224,-4173,-6831,-2202,1251,-1397,-211
3225,4416,2201,-7152,648,-244,-1007
3226,7538,-5454,6576,1350,-595,-1737
3227,3735,-5219,5725,471,-732,-690
3228,-127,-4706,2126,-143,1068,1492
3229,5325,-1698,-4335,-394,-1733,768
3230,-268,-6537,727,83,937,-968
3231,3470,-4184,3,-1298,219,22
3232,1812,1100,-6427,1863,644,133
3233,-3456,4034,-323,-1067,1072,-1341
3234,-589,-1027,7390,1858,1640,-1496
3235,3812,1463,748,1263,894,-1378
3236,-7772,7816,4214,1824,382,-805
3237,-5137,5259,-1020,-1251,-279,1289
3238,7023,1381,-4723,36,-1665,1101
3239,1831,-6308,2008,-62,-641,241
3240,-2480,-3968,5944,-192,1677,-1036
3241,3990,2278,2925,1751,-573,-146
3242,-2497,1890,7937,51,694,1733
3243,-5031,-7426,-2430,-874,-302,-228
3244,-1619,-2258,-589,770,-1762,-1292
3245,7121,3611,1592,-1468,-1059,993
3246,1855,-4067,-3499,-110,1595,-1834
3247,-4280,-4960,4185,-128,-1414,879
3248,1253,-7921,6940,1235,-1140,-1069
3249,7422,-1496,939,-801,-17,584
3250,5612,1209,1984,1978,1589,-179
3251,2001,-5764,-3471,-464,1645,-876
3252,-366,-7241,-7102,-1985,-1996,1585
3253,5032,-4740,5810,-1341,-762,1391
3254,-5936,-6661,5522,-1209,299,1794
3255,7967,872,3447,1446,-32,909
3256,5276,4117,5566,1150,-647,1777
3257,-1473,995,4561,269,1287,-608
3258,37,-4652,-1389,220,11,-1679
3259,5161,1820,4582,-658,1266,1523
3260,861,-775,-5419,1616,716,-1443
3261,4398,2007,-5677,220,-1698,-981
3262,-1809,-4352,2303,147,506,514
3263,1000,939,-4626,1510,1729,350
3264,-4212,-1264,949,1828,-1072,-1954
3265,-5565,2582,-7398,1479,1642,738
3266,7115,-7705,-7521,-1314,1444,1436
3267,-1613,7994,-4992,1298,317,1104
3268,-5511,7451,805,-1179,1143,1918
3269,-3979,6246,1449,1649,195,964
3270,-6793,-7247,2384,436,-119,-1687
3271,-7227,3187,1638,-1848,-1469,-1828
3272,5160,-843,-2364,-35,1794,1583
3273,2171,-7521,-3472,-1730,1774,559
3274,541,-5588,-7932,-878,992,-1511
3275,5764,4674,-3264,607,-1644,-280
3276,5085,550,-3178,1334,-1871,-1320
3277,-7925,5768,-6651,-1708,-1213,-1442
3278,6203,-5158,2652,1235,-385,1854
3279,1948,-4583,-1577,572,-232,1643
3280,6020,6560,5596,-804,818,1441
3281,-3408,5431,-2693,891,-279,1525
3282,-5556,-5303,1207,993,931,-1915
3283,2527,-1593,-5209,-1501,640,289
3284,-6221,-2555,1504,1791,-1604,-1747
3285,-3743,-2048,-7501,-408,-1917,1433
3286,2199,-3881,-7245,706,590,601
3287,-5779,-6680,3931,-1559,-1227,877
3288,-2024,1162,-7927,-687,-186,-1443
3289,-6723,6381,3656,-1493,-794,131
3290,7978,5216,2056,-1897,1383,-116
3291,-4543,3461,-6253,157,1333,709
3292,-6194,730,6545,-1749,1720,1974
3293,5834,-7455,-502,-1900,-1747,922
3294,935,-6614,6903,-147,1432,1982
3295,5111,-6804,5709,834,1501,807
3296,-5935,-7559,-1098,1739,1931,-881
3297,7415,6658,1568,877,-657,711
3298,-6947,-2880,-4356,-1549,1891,1118
3299,-4626,-3301,3456,705,1581,263
3300,7209,5788,2868,-71,-530,-1436
3301,-3650,790,-6734,-170,744,-1987
3302,2968,1994,6282,1485,-71,-220
3303,-5964,-4217,7226,-955,-1743,1742
3304,-1389,2475,992,1604,-286,52
3305,-6108,2555,6390,-1750,669,1256
3306,5542,2399,2609,-1035,-1460,1011
3307,6329,-3095,-7587,233,1797,-1596
3308,-2447,4184,-782,1241,-1928,1737
3309,6730,2098,2322,-1534,-1821,1897
3310,1711,6423,-4807,1319,776,1824
3311,-1706,4358,-6345,-1917,-479,-1616
3312,6832,-3756,188,1145,-653,100
3313,1130,-3665,-1916,1723,641,895
3314,5428,-1525,-6772,-1302,1808,-583
3315,-7573,-1320,-38,-589,-675,1652
3316,3928,2779,2743,-1364,-1319,1635
3317,-6153,413,7725,1475,-1492,1769
3318,7662,3338,-5016,-35,-302,843
3319,6849,5321,-2277,-1242,-44,828
3320,312,-6301,2910,-595,936,-415
3321,-6932,6650,-5369,408,-1335,-1672
3322,-2708,4519,-4356,1204,210,939
3323,-373,5860,3007,-1384,-501,1251
3324,-5346,4827,-4999,-1583,1390,-1922
3325,3210,-6428,-7206,935,-996,663
3326,-52,7282,7776,-227,-1696,1415
3327,-2642,5176,-3826,-1922,962,539
3328,-1111,3309,-7796,1394,286,1679
3329,6006,5438,-1792,1856,-1540,842
3330,-4886,6604,7262,-1577,1040,-971
3331,-5756,5147,3444,-1297,-1119,-1188
3332,-6964,7154,7391,-765,1599,-441
3333,4995,1121,4029,-563,-831,-1966
3334,-4927,-950,-3902,-240,716,701
3335,-2163,-292,-2135,203,1741,844
3336,-4130,-7340,-2452,-69,-191,-1267
3337,399,6926,-5342,1848,-1438,1782
3338,-1453,6674,-5088,-1296,-885,-678
3339,6820,-2066,-4808,1348,-664,-1158
3340,5408,4542,-4913,1863,-1368,1724
3341,-4693,-3012,-6418,-1686,1097,-257
3342,906,6675,-4568,-32,-1940,684
3343,-1106,3091,-6980,-500,970,-193
3344,-5035,6976,6785,-115,-944,1871
3345,-5412,7276,-1304,1242,-1880,640
3346,-2943,6756,-4552,-895,1638,971
3347,-3811,2489,-5849,-1513,-279,1723
3348,1802,-1321,1610,1753,6,1261
3349,2565,-1335,4169,-508,1973,1102
3350,-2227,-5309,3943,883,-1544,-1452
3351,-6531,1898,-3851,-1452,-590,-955
3352,-4511,-4229,2443,111,471,364
3353,-7994,-4922,980,-1056,1984,-1169
3354,6315,-3743,-6167,918,460,-1903
3355,6440,3107,2836,-1118,268,-505
3356,5123,2460,-4425,-1733,-1500,-660
3357,486,950,-1722,-420,-256,-1668
3358,6196,1484,-3283,334,955,311
3359,5913,5767,-325,-1564,1015,-976
3360,-4618,1871,5040,-697,298,-1044
3361,-1081,4797,-5098,1476,163,1989
3362,2000,2737,-7806,-395,1010,889
3363,-870,-1946,4793,-1921,-1211,224
3364,-7416,6746,5275,-1605,234,-336
3365,4973,2561,-827,-727,-970,-936
3366,3334,1624,-1324,-1739,-1817,-1671
3367,1407,456,7902,-977,-1477,1539
3368,-6112,5168,666,-1529,-1443,630
3369,-2024,-13,-2854,-852,-842,1223
3370,-2782,-1369,785,-1651,1291,-1262
3371,4596,-637,-2997,-1433,1170,-673
