Sample,Ax,Ay,Az,Gx,Gy,Gz
0,-4891,-7139,-3628,486,1063,1925
1,6547,-1940,6337,740,-777,1811
2,5255,-3032,-304,54,-274,686
3,3632,-3493,334,-1265,1173,-830
4,-1465,3565,5923,828,156,1971
5,4028,735,7753,841,1718,-255
6,-4802,-4317,7628,-650,1462,-1432
7,3393,-3431,3477,-985,-731,-815
8,1954,-1444,2307,1983,-92,-1550
9,6146,-3457,3995,824,1756,1093
10,-3048,5905,1803,-1571,861,84
11,7451,-2344,5104,-1652,-1823,-623
12,-5722,4584,3015,1027,-1397,-1961
13,-4632,-5974,-1021,-1291,356,-1949
14,-862,2160,3881,942,-878,1299
15,4055,-2526,7814,-205,-1134,1887
16,5117,-7866,-581,-891,-1773,-248
17,-6818,7493,2410,-700,457,1666
18,-3343,-7698,-5681,812,-1130,1863
19,5804,7479,-5554,808,294,-251
20,-4709,-6070,-5475,-335,-1402,-1392
21,4898,-4338,-7888,-1114,782,1204
22,2954,-4518,5493,1576,-1086,-341
23,-7783,7085,1831,325,-74,-1248
24,-1167,3136,2127,-173,-1047,1012
25,3688,-4515,-7194,57,697,1702
26,1641,-3272,-307,1727,-1942,-1978
27,-5356,-3596,-4853,1540,-628,926
28,977,7474,1366,-261,-1458,-193
29,5530,-7374,-1740,-499,-820,318
30,6987,7595,5294,-929,927,705
31,4484,-5300,-3528,-466,-1585,-931
32,-671,6412,4229,43,-1645,428
33,-6789,6647,-2398,1402,-493,-1010
34,-5796,4761,-6950,-1570,1997,1000
35,-56,-1030,2164,591,-395,-1645
36,-209,2692,-734,-983,890,-1844
37,1263,-489,7754,-338,-1719,-927
38,-2084,1817,82,836,-1406,-739
39,4757,6142,5383,536,-1444,1607
40,-4287,-4521,1173,644,784,1235
41,-5025,-3560,2629,-664,-205,1922
42,-6703,7149,3221,-692,1269,-1888
43,6422,463,-3736,-394,-1240,1037
44,4452,5270,7664,-1566,885,-1870
45,-2347,2501,5925,450,-1681,698
46,-1167,-7774,4956,-1039,-1919,325
47,4008,-6922,7280,-700,295,1968
48,5344,1821,1382,1506,-826,1179
49,2422,-4103,7770,1067,-1107,1100
50,4487,-5222,4504,711,37,475
51,-739,-918,7201,1055,-814,1496
52,-7085,218,3713,826,-454,570
53,-3155,22,-7135,-1940,-1243,1638
54,-6528,-6188,7644,-430,1978,-425
55,-3224,7499,-6315,-652,484,-597
56,-290,-1397,-1216,154,557,1081
57,-7946,-4875,7698,-332,-1393,-1312
58,1735,-4245,2813,719,-1068,-505
59,-4415,-3189,7769,1565,827,1648
60,-3796,2503,-1967,1431,-582,-1869
61,-3802,2091,526,307,-1764,-1822
62,-2067,7404,-3232,907,-1660,-1695
63,2357,-2256,4183,1944,1816,-1551
64,-3409,-3616,1770,577,-1724,-1437
65,-751,3109,-6253,1522,1676,-334
66,-7109,-1996,-7874,-1564,1765,1769
67,6906,-3309,2690,-1677,-265,-1592
68,-7788,-4469,4372,-1789,-977,632
69,1832,-5565,6284,-230,646,144
70,6645,7603,7623,506,-1944,-1301
71,2463,-236,6570,-67,1609,130
72,-1525,167,-5822,567,-21,1385
73,5009,-7127,-2136,956,-909,1529
74,-5817,-1876,-3862,1720,601,-321
75,6481,-2463,1060,34,-1657,1297
76,-2220,4485,1329,1912,927,-524
77,-5711,-6006,7657,1422,-1901,-237
78,-3280,2307,1426,-1741,734,-412
79,-3263,-4864,3842,-747,-865,1892
80,-5354,4422,-3226,-598,982,1302
81,-6485,-4365,5123,-1854,-1108,-1189
82,4765,-5807,-1057,756,345,1381
83,-3236,898,7325,1909,-130,489
84,-5415,-7788,-157,-409,-450,1618
85,5191,5702,-4427,73,-1931,-948
86,3065,-7983,-3472,1106,1084,-269
87,4524,7349,4970,1151,-692,-389
88,7463,6686,-4946,-1447,1632,-507
89,2787,-4905,2076,-425,-1793,1851
90,4301,-2994,3464,1161,691,-1619
91,-4162,-906,1388,1378,-1610,-336
92,-3193,-6490,-6765,-1041,-1862,1331
93,-3606,3221,2059,-1837,-1536,-985
94,7241,7982,5047,473,1459,-1061
95,-3287,-7224,2078,-974,1942,-1336
96,7016,-6133,1209,23,1245,-226
97,-1732,1510,5215,538,-768,1271
98,-7877,-4743,5034,-1142,1297,-1265
99,2621,-7433,-2241,1397,1161,-1467
100,6943,-1037,-2187,125,1646,912
101,5006,2579,-2379,432,1944,771
102,-742,-154,7806,-1898,330,640
103,2851,5287,3239,-1059,-1876,465
104,2069,-1704,-6944,-257,51,682
105,3187,-3028,-7330,-1505,-1516,-135
106,-4063,-320,-3487,168,-1407,-244
107,-2905,5030,1321,246,-852,1447
108,6221,2399,-4229,1773,796,-374
109,4343,-7274,5167,1862,1468,-534
110,62,5048,4714,1822,1801,-1203
111,476,5035,2455,1984,914,-1193
112,3510,-2819,1370,-1328,-812,-1982
113,-1485,-4167,-511,-1468,-381,607
114,-7425,-1932,-3250,820,1908,1294
115,4576,-3402,6365,-489,1877,-150
116,-7154,-1637,-577,-29,-1757,-1334
117,72,3358,-6135,1224,1338,-1113
118,-1406,4083,-2887,-1630,-1073,405
119,-58,-7253,-6897,798,1867,574
120,-4123,-4467,1897,-237,-1752,17
121,-2724,-536,-261,-1334,-415,1820
122,-1482,-3503,789,-1249,393,-1994
123,-4981,4812,1269,1965,-1745,-1709
124,7527,-2535,-599,608,-1192,-431
125,-3839,4728,-5576,816,-659,-654
126,-6957,4128,-2200,-1184,-1004,1773
127,4742,3504,-3614,-1721,834,-329
128,-4829,-5538,-6413,-118,-368,-100
129,-623,-3594,4084,1385,1773,333
130,-5485,-2546,-1588,491,-535,1485
131,7077,5686,2597,-430,1205,-1190
132,-6092,-2660,5503,84,-1183,1115
133,-3207,-1623,-6023,1150,-835,274
134,6898,-227,-4499,743,91,-1384
135,-968,2101,711,-1151,600,-1111
136,-5412,222,-3606,1136,404,622
137,-2353,-1038,4532,-518,1525,283
138,7008,3349,-1924,1600,1958,718
139,-6330,7872,-3265,-267,-623,-1220
140,-50,5411,-3107,-1971,1654,-31
141,1179,1500,-3814,-750,1925,355
142,-189,5410,2288,-148,-1005,-1279
143,2324,-1617,-222,-832,-262,-1621
144,6217,1490,-5612,1307,-421,-196
145,2156,6841,-2585,-1906,-115,639
146,619,-2826,7637,39,-245,-1565
147,5711,-5441,-7631,-98,1749,383
148,549,-863,4846,-1384,153,-464
149,-1624,3978,7988,-1769,-1534,254
150,4064,-3862,-4564,1746,-223,-272
151,-2747,4202,4256,-670,536,1195
152,-840,1668,1821,644,-1597,-1468
153,-5986,-6881,3036,-62,222,-1993
154,3282,-1122,-2065,-832,520,-1405
155,7646,2302,7650,1194,-1813,1412
156,-5589,6379,215,-1345,-789,1553
157,3162,5217,-1947,-517,906,-159
158,2513,-7998,-2888,-1194,1268,-1697
159,4665,6922,-7404,823,-1003,627
160,-4187,342,5366,-1324,670,1994
161,2005,-2126,-7847,1698,-1678,-463
162,-567,-6151,-6160,-827,869,-290
163,-4106,4991,-4429,261,-276,-998
164,-5372,2295,-5550,951,745,-943
165,4055,5654,-4217,1937,1580,-1637
166,-1572,-5969,-4424,1315,-1033,-808
167,4117,1420,-4271,1638,1735,949
168,2697,-1708,3527,-293,-275,1079
169,6951,1909,2559,1134,-1645,-997
170,4838,-424,2376,433,1363,1069
171,4261,7191,-2517,-944,-1860,-1303
172,-4133,1076,-2603,1162,558,-1782
173,-76,4797,-3961,-652,412,-1266
174,1519,-7381,1352,1152,-857,-806
175,3062,6384,-6,539,1256,-840
176,6564,-7384,-5934,-85,201,-418
177,-111,434,-1184,-1596,-1231,-1133
178,-4788,-7561,-4192,-812,865,-1912
179,-1975,7218,5793,1826,-814,-709
180,3668,-6578,5610,-1241,1914,-1350
181,2432,-4220,868,-687,-872,-171
182,-1903,3728,2462,1986,489,-758
183,271,1332,-1906,1314,-453,-195
184,4889,-7869,192,-1839,1154,1212
185,6936,-6156,-3233,-1513,896,-1601
186,-271,-444,5480,-297,1658,-85
187,-6142,-4068,2911,1789,-675,-615
188,-3732,3909,-3119,-882,-362,1938
189,-6839,-5119,-5875,-1194,1343,-1608
190,5455,6048,6330,-65,588,-1040
191,7589,5375,-47,-508,-524,-1048
192,-5542,6071,-785,-1722,1395,1515
193,4421,-7992,1758,612,580,469
194,4407,-5657,-841,-990,744,379
195,-3565,2239,-621,1910,705,-264
196,-6619,510,1698,129,372,-699
197,-2871,-6431,7356,-2000,-1842,-431
198,-3294,-1133,-5022,-297,140,1892
199,5177,-3145,-3366,1094,5,-1269
200,-1087,-3432,413,-471,561,-696
201,3964,-5514,6470,-1557,662,-1882
202,-3258,-1874,-3604,-653,1995,1220
203,-3114,6186,317,-1522,-1320,1241
204,-1292,-954,1007,146,-353,1983
205,2901,3831,192,173,-1050,-938
206,57,-1253,7216,1202,-1321,-1408
207,1262,2830,-3823,-1500,-588,-43
208,4455,-4152,-6281,1055,-546,-1621
209,5455,-6222,2907,72,593,-1223
210,-5912,-2381,-2137,1952,-429,495
211,-1864,7706,5548,1393,-1262,-485
212,5846,7347,448,1724,-1617,-1903
213,-5740,-3461,1470,-866,-204,742
214,1289,3317,-4816,1094,740,-567
215,-6266,-1253,-4537,-165,262,-665
216,-787,5476,1246,-1343,841,-1054
217,-6063,-7433,6774,1748,398,1684
218,-795,6744,-56,-1318,1858,-1220
219,7688,3547,-7712,1524,-1156,1087
220,756,-5649,-1550,1438,1797,-527
221,3684,-3322,5188,-1739,-1983,-1568
222,-4798,-3631,-6596,403,-493,-279
223,-677,1513,2696,1686,-1196,-1553
224,7203,-3537,-3401,894,1774,1808
225,7105,-4040,-7695,126,-751,-706
226,235,5648,2140,-336,210,-125
227,2491,-3475,-2172,1829,-651,1281
228,2777,-5414,-3070,617,493,-1922
229,-1428,3849,4279,761,73,797
230,608,-7068,-2911,1833,1053,668
231,414,7485,210,58,369,814
232,-3802,4006,6481,118,1932,79
233,-5027,-2048,5053,-1062,1991,461
234,-2830,-2733,-5182,1528,-577,506
235,5141,-5732,-364,-668,172,1359
236,3486,1814,-5623,473,-1176,380
237,-2274,3829,6240,41,-1447,-1813
238,-4769,-5117,-3814,-1432,-806,1517
239,6511,-1440,3369,1976,-1384,-515
240,-5722,-5341,3426,-439,1141,-429
241,5282,7645,-3187,-1416,-1308,474
242,-7544,4939,3196,-554,274,1967
243,-1203,-2590,4204,1623,-1626,1188
244,559,6485,-1837,-822,-688,-1523
245,-1863,7295,1339,-1922,1342,1645
246,-6871,-5268,3155,1934,-749,-686
247,-4119,1326,-6656,-1863,-826,-19
248,-3002,4716,-1565,1904,909,71
249,4430,5000,4139,1217,-133,-651
250,-3325,7348,-6934,-309,-878,-503
251,-5317,-237,228,23,459,-1146
252,5380,4472,4898,1949,873,-575
253,7126,2459,3000,571,889,1448
254,3824,-6845,5623,1731,-227,586
255,-6404,5545,6055,815,1795,-224
256,-7161,-6973,-574,1646,729,1944
257,3191,-5025,-1993,110,-1862,1755
258,-3316,-391,-4586,844,-597,-264
259,-501,-2777,768,-330,-1451,1177
260,1521,261,5301,-1441,-783,-1321
261,1297,-1925,6346,1981,-1563,135
262,1490,3426,-1259,-1305,1957,-1804
263,-5525,1883,540,-746,-1272,-738
264,4449,245,3430,-795,-821,-610
265,-2333,-3543,543,-1102,-1839,-1833
266,-6394,-4816,-7720,1003,1474,1208
267,-2161,7254,-1652,-927,1706,1358
268,28,297,1208,1937,-110,-1723
269,7572,2594,3886,-972,-452,-848
270,1379,-5644,5010,-630,-1592,-1628
271,-4079,5960,-4649,1114,807,-699
272,-6964,7386,7422,740,-1310,-1226
273,-1018,-5819,-6218,1251,-761,-387
274,-4429,5550,5765,-1875,294,729
275,-7043,-6866,6466,-1620,1718,312
276,-864,2769,-6105,21,1641,-837
277,-7050,-709,3149,-1219,-1846,-250
278,2808,-6039,-3869,-1034,-1286,-1079
279,-4066,2643,5926,931,-46,-1677
280,-2566,-1648,6421,-1548,438,-1160
281,97,-3383,688,1931,870,264
282,3721,4248,-3953,337,720,1233
283,7238,1520,2885,-1524,42,1162
284,-7372,6588,4436,556,164,-1241
285,-7305,-6725,-5673,-1143,1290,-43
286,-6067,-3882,-420,1782,-1296,-307
287,2491,-2686,-35,1492,1716,569
288,-7166,-5364,-4915,1192,577,1491
289,5428,-4340,-6262,-984,1658,-1930
290,2147,-2943,4141,-1452,509,-1473
291,-403,4746,1625,-135,-1526,-1050
292,3522,-7701,5765,1589,-667,-916
293,-2489,4620,-1523,1136,-1036,-604
294,-3106,471,-6807,1684,0,-199
295,2344,6877,-1941,437,-506,-698
296,-7471,6995,7487,-1008,1135,213
297,-871,5703,3879,-1721,-992,-1878
298,3372,1787,5249,1399,-1806,-621
299,-2057,1906,4402,1299,1509,356
300,2570,7935,-226,88,-629,216
301,-4619,-2518,6052,1303,-1125,1718
302,-6630,4486,-7902,-1313,1479,-205
303,7855,-7088,-3836,1685,-1457,1335
304,-5219,6901,6569,1019,1712,-174
305,4026,5496,3391,782,-1646,-1955
306,-1593,5997,-7785,1708,1484,1519
307,-4798,-2284,-6077,415,1199,-1976
308,2267,6079,-6761,35,1649,1594
309,-4900,7874,3318,-534,-1187,65
310,-536,-7614,-4710,-1113,1662,-770
311,-844,90,-7962,-1655,-1321,-988
312,6175,6949,3392,1751,-110,-278
313,-6004,-6147,-4899,-1961,-431,-1687
314,-5921,2136,-965,1079,-830,1549
315,-1092,-754,-3090,-631,-661,-1667
316,4452,5460,269,1778,-1899,1862
317,-6350,7334,6327,-1551,-47,-1901
318,-3891,-6017,7818,1234,1040,1769
319,2632,794,3546,-1184,-1864,-900
320,-3009,6928,-4726,-1307,1187,1640
321,-4299,4263,-7619,-91,-813,-781
322,7154,-792,-7654,417,-258,676
323,-3008,2786,-6614,-208,1251,-965
324,592,-4931,-3055,-183,-1854,809
325,501,-5371,-4273,-844,-93,1316
326,-5011,-4728,-2931,-1132,281,860
327,-1493,-7240,5510,-1680,-1945,-1571
328,5419,5046,-4862,758,-1738,-277
329,-1246,6567,-6666,1170,1362,-1290
330,-5886,4072,369,1596,1969,-24
331,-299,346,-7510,-1256,281,1232
332,-7084,-5237,-6126,1859,1802,727
333,3103,-5398,3610,-1700,-1178,216
334,-6468,-1474,-550,-1036,-1623,-1669
335,3928,933,1703,225,609,-1536
336,1868,4287,2280,890,1293,-1704
337,6197,-4805,-1877,-403,1840,-1168
338,4793,4754,3754,-219,-912,23
339,5715,5073,2205,1465,-1183,-411
340,-4058,-2084,3113,1137,-1681,862
341,5209,-1592,-5597,499,-72,-1595
342,1763,3974,234,1523,1227,1217
343,-1777,3031,7957,582,226,-404
344,-203,1142,-2327,1387,397,-1212
345,-3670,-5896,-2536,-752,266,-1309
346,-876,-3090,-47,-503,-1391,1041
347,-1257,2159,4728,-602,-1404,1564
348,7040,1413,746,-1150,-1346,-1547
349,4966,-4706,-968,-718,926,196
350,-6762,-6953,-19,1304,1164,-634
351,2302,-3795,-6340,-749,1233,1480
352,4609,-6017,-4629,818,783,404
353,3190,5150,7281,-1434,-1660,1454
354,4584,2488,4659,-1323,998,1703
355,-5982,-2117,-2544,-722,1366,1429
356,6229,3748,6565,-424,271,-635
357,-7967,-4839,6071,1967,-1147,-89
358,6287,-7413,3463,1739,1765,1267
359,1266,-2694,-2236,-1381,1643,-1966
360,5897,3547,-1334,-146,-1565,1781
361,-3268,3638,4340,-1527,-1190,-1647
362,-5833,6853,-5372,1355,1005,-582
363,-955,-1789,6927,430,845,-221
364,-2216,-5374,7001,-1168,-258,-1645
365,-329,5785,4350,-983,894,-119
366,-4700,-3469,6284,1516,1051,721
367,-4355,239,4195,167,-1311,-1887
368,4095,3280,-6466,164,719,1214
369,7502,5326,7638,1832,-1917,-1971
370,2125,6764,7262,-169,-765,1925
371,-4232,-651,4919,1408,-137,-1204
372,-1158,4460,1520,-430,-962,118
373,3406,7898,5967,-161,236,-257
374,-5193,-7200,1341,-1220,455,505
375,4759,4427,2068,927,1508,-1390
376,1317,-7839,-5527,25,598,-1727
377,7684,4466,-2938,373,559,131
378,4072,-661,6135,-1947,1869,1685
379,-1547,6435,3526,795,659,1331
380,-637,-2337,-2503,-1337,1132,-1247
381,-2453,-2673,4495,1193,1599,1837
382,2449,-3173,-5787,1056,1427,1255
383,-6067,-2392,1258,-1328,55,0
384,-4237,7730,-7727,-1487,-1384,392
385,-4107,-3262,-982,-592,-1417,-144
386,4121,4071,2185,778,-309,-774
387,1598,2923,-684,-375,-1898,-146
388,-6959,-7351,-1824,-1298,1917,857
389,1636,-6654,3161,625,-1658,-1835
390,-2331,4664,-7611,-385,-1441,-123
391,7879,-1119,-4607,1629,1802,-379
392,2242,860,449,-1540,-756,-151
393,-3496,-4785,-5699,1935,1775,828
394,1627,-3054,5663,1000,-1194,-178
395,5666,-1943,-6056,-591,-227,-1939
396,5078,3881,4392,1134,1165,-302
397,884,7375,3761,-750,-1137,-1120
398,2126,7843,360,-1534,397,366
399,7200,-4740,3122,-1447,656,879
400,-1360,-3323,-2837,-604,827,1725
401,-3202,-5211,-7308,-1529,842,931
402,-3686,-7390,7786,850,-587,-365
403,-5426,-424,5812,324,1291,-1896
404,-2350,6048,5016,590,1613,1891
405,-3211,-5438,3013,-116,-1842,423
406,-4842,-1201,263,-1367,212,-1493
407,4216,-5126,-3820,-1369,847,736
408,5127,481,-1284,-245,1450,1042
409,5084,4486,6603,-267,-232,1067
410,-5697,1972,-5457,313,859,214
411,-5662,1847,6443,767,1410,-1353
412,-7065,326,3797,139,-1642,302
413,1148,7760,6771,-1768,223,1527
414,-1413,-324,-7157,-1683,187,220
415,-3666,3781,-4687,-1560,-1855,-1345
416,5621,-5974,836,117,-2,1676
417,-3826,-3410,35,602,45,1862
418,2001,4109,-1315,86,-458,221
419,-5708,-272,-3437,463,308,-232
420,-4242,5708,-1672,-317,401,1109
421,2541,6810,-2061,1687,829,-588
422,3062,-6081,-3024,-1802,231,-1997
423,-6387,2231,2051,586,-556,1394
424,4716,3795,-139,1420,-746,-1070
425,1381,-3230,-2971,-1486,480,-424
426,6134,-5474,3771,349,1298,-344
427,4736,-3568,-6301,1376,-1690,1759
428,57,-5985,-4046,64,1964,-818
429,-7557,744,-6914,1794,-50,675
430,-1410,-5387,4136,-147,1487,-1358
431,-2398,-5656,-6637,36,-499,-625
432,5412,-1117,-3719,-1875,228,-1281
433,4731,-2424,134,507,-311,505
434,-3098,-1519,-3508,487,-290,277
435,-2887,4839,562,-1751,-1692,-941
436,2377,6745,-1153,1328,1932,137
437,-2866,3249,-7786,1675,-124,1498
438,4588,-752,2608,1543,589,-967
439,-4877,-3866,1224,-1048,-1353,652
440,-3453,-1099,-2530,803,-561,-707
441,7430,-5604,3851,1236,-158,594
442,1985,-1109,-887,1473,515,919
443,-6525,3899,4516,412,-72,-753
444,-7085,4833,2324,-486,-1800,-604
445,6470,3697,-6799,331,1683,-1276
446,7967,-6772,-4040,-1354,576,1027
447,7102,6465,-6933,1667,1481,-1587
448,3900,-4987,5727,1442,232,-963
449,6248,-5135,-613,942,1749,-414
450,7183,-2828,6879,-1651,720,-641
451,-2163,-1072,7978,901,1016,1573
452,5607,7416,7020,-572,1140,574
453,5093,6919,-6857,525,-1904,746
454,7891,5724,3395,220,-1769,-1713
455,4450,-1094,-4396,-901,-1913,-1928
456,-4686,7406,6399,-23,1364,-931
457,-1658,3727,-6193,-1017,410,1054
458,1347,2821,3995,419,518,1883
459,6667,-5493,-5754,831,694,1646
460,2952,7991,-1475,-558,1024,202
461,-3297,-2520,-3278,-1205,-1383,-518
462,3094,-3057,715,195,-329,-1304
463,3744,-2706,5044,-1577,123,-1661
464,-6592,5856,-3138,1584,1995,455
465,-3934,3671,3077,497,-1165,-1845
466,6719,-3983,-2856,-771,-1697,-1683
467,-5956,899,969,1165,-158,-391
468,-3717,4590,-6544,-1823,-203,-1509
469,6702,-7778,-5798,-740,676,279
470,491,2042,-5012,-230,1392,-619
471,5967,1996,7386,-1591,401,1981
472,-4398,-5286,1577,-1416,348,-413
473,6926,6290,4109,-1651,-169,1135
474,4560,-6565,-4128,847,37,-791
475,4206,590,-3833,1994,1965,126
476,-3617,-5765,-1768,-723,295,-668
477,7717,-3426,-5356,-1071,942,105
478,5608,1961,-3572,1492,-177,1773
479,509,5271,2864,576,-1136,264
480,-5694,1209,-3714,-1034,-1144,-505
481,1110,-220,7692,1077,1355,-996
482,-5696,6975,3089,-885,-889,101
483,-7200,-269,-5716,669,-1963,339
484,2087,2215,2982,-278,-1636,-82
485,-6137,1820,2015,-1204,674,-1433
486,-4484,-6337,1209,-649,-359,-1982
487,4347,-6867,6022,-1892,565,-411
488,-1989,344,-2065,1911,-832,-1314
489,-3638,2533,-751,-818,725,1186
490,6697,-301,100,-253,-1740,1656
491,6126,-4817,773,1906,-1454,-667
492,7615,4996,-4776,-1169,818,-651
493,3463,2428,-6749,1521,1128,-1034
494,-1592,-4390,-5679,-593,1693,-1531
495,5978,-4535,1924,-908,1075,-869
496,6205,3731,4307,627,-1613,-571
497,-3779,4695,-6373,-1657,-1411,-1072
498,5354,-3553,-7348,1085,814,-612
499,230,5541,7691,1793,1373,798
500,-3024,-3526,6398,340,-1119,1952
501,1894,-7202,7405,1592,-462,874
502,-689,1363,5065,1057,-859,1317
503,3804,7281,2702,611,-123,1984
504,-7148,896,-6562,812,-1748,-792
505,4389,260,-5416,-109,-1960,295
506,114,2218,-6299,-642,-1442,-313
507,6994,2359,5853,773,-226,213
508,3959,-1817,-1964,1642,-1326,-990
509,-7053,-5385,-7992,-786,1901,1469
510,2599,5130,-4580,-1627,-573,-1118
511,-5142,-4904,-269,1239,949,-809
512,7516,-6333,-640,1314,309,983
513,4457,-7474,3561,256,292,476
514,108,-5352,-2555,-774,-1995,370
515,-7654,-1757,2883,1074,369,1623
516,4722,3678,1858,-1883,-531,-400
517,-6095,507,-5308,-1828,-805,-1863
518,5134,-3675,5356,-1706,1899,847
519,-7895,4873,-3997,-807,80,1678
520,106,3696,-1709,-1393,-647,382
521,1346,574,-459,-739,1895,176
522,-4844,-7589,-4592,279,-1839,-1746
523,-4456,-1855,4486,-1102,-126,490
524,-3230,2199,-357,1615,1694,1899
525,-3359,-4098,-260,1246,202,50
526,934,-3012,5065,570,1236,-660
527,-2471,140,7879,-822,-1049,-582
528,5528,4125,-2867,1920,1322,1267
529,2409,-214,-947,1717,-1792,-1795
530,6098,-6181,5340,252,-1782,-1024
531,-3488,-1250,7732,703,-303,-1972
532,7290,2174,5702,-84,790,1192
533,2094,-353,-5144,1799,1945,239
534,1001,-721,-1490,1703,410,1101
535,-178,-2625,274,1190,-1153,-1505
536,-5067,1599,-2957,557,-156,1578
537,6114,492,3124,349,-1958,805
538,-5216,-7885,-2282,-1215,1194,1572
539,2373,5917,-6912,1491,173,1372
540,5624,7501,5800,1296,-1909,1004
541,-1330,-6434,4316,-61,842,-1002
542,-7073,-142,-4161,786,-229,-1102
543,6888,600,-5468,-840,-154,890
544,3975,5512,7246,-936,-1062,-1532
545,7267,1385,-3261,-1031,923,-1342
546,-5655,55,-6460,1736,-877,1719
547,-7739,667,7121,665,-1810,709
548,4931,7076,-4120,-1823,-280,-1938
549,4199,7977,7715,1052,531,1113
550,-6407,7774,6814,742,-1729,-1821
551,-5071,-4948,-145,1495,760,831
552,-6136,2080,-6493,-1239,-1787,807
553,548,5359,363,1784,-488,538
554,2041,4677,-3261,-186,1596,-790
555,3584,3684,-5154,211,-1244,-1926
556,-7368,-1377,-2390,-456,1512,1770
557,397,7451,5607,1071,1422,1761
558,1655,1652,1386,-44,-1867,-750
559,6550,826,6541,1041,-1422,1414
560,-3281,2745,4428,104,-1559,-990
561,1374,-1499,-4005,1300,-1038,1669
562,2298,119,-6322,1367,704,696
563,-3742,-2157,7010,-316,-857,-1948
564,-5823,1268,6566,803,270,1216
565,1272,-4527,1498,-1878,-645,-1101
566,-2377,-3958,6911,-1444,81,957
567,-32,2382,-1543,1325,-300,-1618
568,-1245,-254,141,-1100,867,-1501
569,-3353,-7461,1365,1727,799,1638
570,-2847,2223,992,-1779,1352,-538
571,-7766,1643,-4394,447,1496,-1400
572,-9,1889,-467,52,292,-466
573,5332,-4368,121,1337,1163,-825
574,4295,947,6504,981,1570,-1608
575,-5088,7961,-2701,-1640,1355,-564
576,6202,3278,-4533,1526,-1793,-964
577,7526,-4194,1144,-1375,921,-921
578,3987,-1456,304,1185,-1882,-1265
579,3546,1784,4965,580,1873,-1301
580,-6732,2617,-450,-983,866,-489
581,-4253,-2380,649,182,-1225,1167
582,6226,7771,2749,1666,539,-1716
583,3294,-5591,6787,1192,1291,642
584,-7291,2152,-6038,655,-1060,-376
585,4308,4390,6282,-451,1611,949
586,-245,1242,-823,-1661,-1597,-1861
587,4531,2959,-6971,-1810,-1792,252
588,2882,-7075,-7335,1903,-1605,-1102
589,-5622,-7231,7203,-349,1913,-652
590,-7332,-64,5669,-1705,-1865,-65
591,-2420,-1374,5409,557,-1657,1680
592,877,6385,-3350,1585,1615,-109
593,208,5178,-7127,-1873,-1523,723
594,-4882,788,-857,779,-1516,1329
595,-1217,152,-434,-512,-615,-271
596,4862,5681,-7839,1762,-1992,1110
597,1241,-4839,-1831,966,-511,-1977
598,-2307,-6555,3439,-63,-1700,-1523
599,7086,-3455,-7449,526,-380,-1805
600,4679,-4628,-7743,257,-1072,1596
601,-426,-5924,-5936,394,-803,1823
602,-5197,6938,-3060,1377,758,31
603,5584,-2558,3908,1631,-528,-871
604,7760,3510,-6722,-1367,-299,779
605,-2212,-2684,210,226,-489,1700
606,-6979,-1055,-2335,-1263,-512,450
607,-7222,-337,-6379,124,-1058,-1135
608,-4368,-4957,-539,-1811,1452,-909
609,4322,-4296,-4653,553,-525,-1183
610,7249,-1595,2143,13,-1013,-686
611,5349,1804,4632,-1743,1876,-1333
612,6272,804,-1738,1475,-1539,-481
613,-3558,-6142,5101,1406,1615,-1916
614,4746,-2151,-3405,1871,-866,-1543
615,7779,5634,-6834,-1561,-1334,1906
616,-6561,-7819,-4917,-593,-253,-473
617,-7635,-6438,2489,-1069,-355,-69
618,4653,-6077,3941,621,813,158
619,2496,-735,-7569,1070,1304,143
620,4205,1072,4674,1348,-3,-1215
621,1050,1233,1640,-1280,-179,1798
622,2698,-4081,1470,-339,-1922,882
623,-1312,2531,-6177,1558,1255,1022
624,337,-6202,1969,-1139,1092,958
625,2694,-824,4396,-1544,980,1207
626,-3952,-5713,-679,1643,675,-25
627,6486,-4789,-548,1662,1999,-720
628,5220,-6183,225,1652,-128,-1886
629,1812,-861,6567,-1749,313,-1607
630,265,-5728,-5564,-451,-836,-1158
631,-1615,5989,1438,188,-1113,502
632,1491,3577,2283,261,-458,-858
633,1909,3358,-652,-654,1052,716
634,-5356,2084,2814,1082,1326,-309
635,1043,-1734,-2743,-1030,-1622,-850
636,3215,1901,3734,1740,-751,1990
637,3746,-6850,301,1587,774,1167
638,1926,6049,-1577,-1144,1227,-104
639,5629,7748,-7271,1643,1039,711
640,-899,-2255,-1724,1917,-1054,1085
641,-7286,3075,-7443,1314,-889,-873
642,-7017,5688,7637,-126,-706,-851
643,1995,4192,774,-90,-148,1685
644,-1277,-5218,-6828,-1932,1374,-462
645,-4748,-1829,6302,1490,151,1197
646,-5738,5505,2829,-365,-1717,1953
647,-1385,-6720,-3666,1206,1398,-1251
648,-5373,2746,-6443,-1760,925,-1038
649,-6683,7534,-5022,260,1250,793
650,-7933,-3719,-3211,-673,-79,931
651,-6914,-1716,3341,657,-560,1965
652,-879,-5924,-6962,272,1801,1524
653,5115,3139,-2559,-1692,634,326
654,-7926,6077,141,-1766,1280,132
655,6115,1874,6545,-632,-274,-1722
656,1126,-1489,-1246,1756,135,-79
657,6898,4593,-5912,311,-508,-1800
658,6978,-5559,-6171,363,1390,-1774
659,-6757,2691,4202,378,1294,-1076
660,-6675,1694,6817,1375,1875,1080
661,-1456,1531,1509,-1560,-1971,-1296
662,2610,-1926,-3086,309,1786,-71
663,4952,1646,-7208,468,-995,-1877
664,1051,-4049,1738,147,1518,506
665,-977,-4000,-1191,1034,1572,-1568
666,919,-52,3179,65,-1805,1362
667,1657,6826,1009,-1234,-1036,344
668,-6637,6457,4641,-1031,-210,-1510
669,761,4801,3795,-1835,288,-1528
670,-2026,-2050,-6187,1144,1957,1855
671,1600,4831,-1492,804,-181,1172
672,5163,7944,-293,-1565,1924,-627
673,-3746,4610,-687,-768,833,-278
674,3967,-1128,5966,1574,-1546,-1218
675,-4660,6854,-2065,1412,-1156,981
676,6616,-1569,7416,-1936,280,-1821
677,-582,2328,5094,1424,-1671,1479
678,-7222,-1889,-6643,-18,714,-1506
679,-2706,1374,-3496,711,-511,60
680,-2697,-3870,6377,-525,-584,1520
681,-7569,-478,-1021,-164,-1354,1651
682,7674,-3799,7024,1980,-1815,1440
683,-1623,-1606,-6727,1418,-1586,-511
684,-3960,-3895,-3128,-858,-1885,1198
685,4148,3355,-6215,386,293,1923
686,-5158,-1108,1434,-216,-1356,-529
687,-1283,-968,2798,993,1901,814
688,7434,-2604,7557,-1394,-296,418
689,-100,-2400,-3124,505,-869,1220
690,-2540,4204,-5698,1996,865,286
691,5624,-3247,-7752,943,1329,1878
692,-6527,3190,-2547,-477,-817,-1141
693,-1412,3832,2001,1747,1233,-1274
694,7725,6746,6176,1428,679,450
695,-2327,1910,6430,1106,-1006,801
696,1949,59,6074,1767,336,835
697,-2465,1677,-6150,280,1976,1082
698,-3165,-6240,-1708,-1707,-1811,1223
699,-3559,3290,5995,1400,-1855,-566
700,-2096,-5873,-5599,-993,-999,571
701,3966,-436,3421,1512,903,714
702,3881,835,6960,-1890,-1447,1079
703,-2567,-6584,5244,-1447,1301,-841
704,7655,6063,76,-1255,1233,-324
705,-1373,4365,5883,-1336,-1615,-1063
706,-1833,6213,1798,1427,-18,1079
707,1470,7274,-6520,-1017,1709,1316
708,-3558,-477,3136,-897,-628,-1949
709,-4663,-2173,2930,-294,639,242
710,2363,-4726,-5690,1847,944,1307
711,7701,-5924,-3801,1458,-1912,284
712,-7345,980,-6050,-253,145,-464
713,-226,-108,5184,-681,-1756,991
714,322,-5498,-909,914,1112,-134
715,-590,-5208,1393,1173,-324,1318
716,-6634,-7225,2341,1829,222,1489
717,-6509,-4656,250,1213,1848,-1320
718,-5980,-6945,7358,1287,1444,-860
719,338,7689,-3902,1947,-540,-416
720,1769,-5445,-1634,-1519,1720,-179
721,496,-4913,-6016,-1768,-413,-994
722,-1200,3871,696,-893,1390,-458
723,-3774,-456,4189,-730,800,-1961
724,-4991,-6757,-7692,806,98,369
725,-979,7615,-4989,-1259,757,-517
726,-4866,-7012,5974,-972,-368,1241
727,890,-6017,-7493,-1367,-1527,107
728,-4078,1865,4111,-1799,1458,-615
729,-4006,-5442,-963,467,520,987
730,7620,-482,2600,-512,-1744,495
731,-314,-2555,1762,-1505,-1435,213
732,-1541,-254,-2811,794,1036,1421
733,-4355,-5982,3527,-19,1985,550
734,-6496,5796,-6457,742,622,893
735,-4506,-5653,-6937,919,1786,-1963
736,1803,-3270,-4741,-75,-520,-1037
737,-2383,-6547,119,-536,-1966,1986
738,-6127,1455,5542,1255,-54,1327
739,-4670,2457,-6968,654,-131,-1929
740,-21,7210,-1751,319,-951,1953
741,-7603,5851,1188,-1397,263,-424
742,5068,-7452,7957,-1724,790,-1927
743,-5699,-3243,-310,772,1974,-1679
744,5718,6960,-7000,-1952,-1837,-1185
745,-7234,-4820,3621,421,-1176,1021
746,7146,5330,-6055,859,154,193
747,3121,215,-1726,-1634,361,256
748,4332,1744,3054,-858,1953,1511
749,4037,-3444,-4533,-769,-1939,1310
750,-1733,-5723,4560,-1597,1062,-91
751,251,-6793,3022,-1267,-454,829
752,-49,-1492,-2566,-490,1422,-661
753,-6061,-1319,2490,-517,1943,900
754,6746,6826,7241,-1775,-857,-1884
755,-100,4217,5807,1174,-1442,-400
756,493,-3583,6799,-1886,1059,1811
757,-2201,2037,-2564,-186,-429,-339
758,6955,-450,-500,-1433,-240,-1849
759,45,-3750,-7780,-1248,-882,-34
760,2548,4426,5108,559,1031,145
761,-6636,-7496,-7279,-1660,298,1783
762,-3862,5407,-887,1458,1315,636
763,22,-205,-2300,-1647,1949,1084
764,-5498,3765,-6968,1189,-184,1373
765,6836,2590,965,174,898,-445
766,-737,-2027,3898,269,803,988
767,5679,-6766,-7832,-1950,433,1208
768,-2660,-1421,6377,437,-308,-1831
769,-936,2234,-72,-1667,-1617,-1738
770,4400,2260,-3735,1777,-1287,1453
771,2963,1672,3344,-766,-67,-1155
772,3449,595,-1882,-1855,1573,-15
773,-2616,-3610,-6327,-2000,434,-516
774,4527,-2036,979,526,1823,1039
775,1168,7754,-5128,429,1686,126
776,-5949,-4588,6378,-681,945,351
777,697,-5114,3490,-579,809,-618
778,3911,2504,-564,694,1970,-1647
779,-7671,1553,-3085,-776,-670,-1316
780,7418,3933,-7080,-153,-852,416
781,-1363,1316,464,357,1023,-1528
782,-2498,5363,-3238,-794,534,-1117
783,-7333,5036,-3315,-50,743,-703
784,-6920,-2322,1977,-1566,-1922,1829
785,6653,-2467,6410,645,1280,1303
786,-5366,7469,-5141,-1256,764,1117
787,-6092,-771,-3378,109,-786,962
788,4602,899,-4196,-1198,1512,-1565
789,-2553,-2529,-2910,427,245,1229
790,5030,2656,7730,-1891,1730,-1108
791,2082,-4676,3565,-287,831,99
792,-1317,3742,3158,-783,-239,1615
793,4344,4738,3366,288,392,1193
794,-5512,-638,-4132,-981,1896,1036
795,848,-7019,-4426,-1799,1776,138
796,-760,-5176,6596,-1043,-1166,-267
797,-1065,399,7275,-786,-788,-1546
798,5627,5035,-2297,1310,-1647,-282
799,-6964,-6004,-5185,-77,-1167,-1642
800,-1856,-7913,3400,-73,-1587,-155
801,4556,3205,7703,585,-1224,-216
802,7117,-467,-7278,95,117,1624
803,-3054,4646,5762,1266,1311,-491
804,7513,1684,-7679,-1025,-1443,-1330
805,-1033,-7426,3834,1054,1882,-1578
806,-7818,661,3315,-1199,113,-1303
807,7764,5907,4716,-1830,461,1529
808,4316,2201,739,977,1034,1678
809,-3135,-1496,-3553,-1735,-1166,-1741
810,3249,4184,1334,821,-1214,-547
811,4283,6395,-1091,-160,1155,168
812,6823,-3243,-6927,-67,-824,1934
813,4344,5642,-533,-1964,-793,-1639
814,7219,-6231,-7464,952,941,409
815,3816,7560,-3470,-1933,992,1673
816,-4209,811,-3667,843,-1493,-29
817,2920,-4845,-3384,-75,-1547,852
818,1157,4500,3526,1733,-498,1152
819,7104,-7480,178,1977,-505,1256
820,-4694,-1754,6700,76,-1364,1353
821,1477,3935,-1845,-1411,-96,612
822,-1126,3447,3172,992,1,1900
823,1428,5879,-5407,1373,-1853,880
824,-4144,-2950,4305,-474,1247,1761
825,-5024,-7197,2501,1038,1335,1743
826,5985,-1087,-6264,-588,-15,-1180
827,7121,4013,258,45,753,-1463
828,6785,1334,-3035,-162,-1204,1953
829,5780,5987,193,722,1138,1334
830,-2411,3504,4653,1158,-1871,466
831,7938,1606,-7304,-1682,616,-1754
832,-3855,7219,2871,1938,1442,163
833,-7697,-4412,7147,-1711,-69,-1688
834,-4005,-2757,1440,-13,-1711,-1250
835,822,-7676,-7538,800,12,1055
836,221,-4828,1015,-1774,-493,160
837,6883,405,1488,368,3,1140
838,2199,3865,4305,270,-1836,-811
839,51,2215,6958,-786,914,-445
840,-5284,3913,-6837,-552,198,1955
841,-3502,-1046,-3028,528,-56,1980
842,6668,-6721,-4565,1524,-1971,875
843,5643,-4540,-6510,-1090,427,-1113
844,-479,-2410,3525,42,-1010,-1363
845,5780,-96,1133,-1044,262,-887
846,-7492,5440,1706,-517,-1551,723
847,4142,4802,-4314,-997,-14,-130
848,21,-3864,-5089,720,-1961,1559
849,-2166,973,-1082,-80,-1168,-1868
850,-2297,5742,235,408,-804,-1644
851,-6904,6523,560,-542,-1722,242
852,4510,-3951,7092,422,-1039,1134
853,-2924,5598,7060,1657,-1547,455
854,-7150,4499,-6700,-1383,-361,493
855,3909,-6922,-5701,-23,514,-606
856,6540,-1809,5572,463,1541,-589
857,4590,3725,-5935,-265,762,-726
858,-4483,-3630,-3429,-693,371,-876
859,4938,1656,-2258,-468,1322,-1141
860,4683,-4537,3611,312,-353,1268
861,-4486,-6919,-5742,-672,-65,-1628
862,-4668,-3237,6790,621,-1841,-2000
863,4466,2657,-2421,396,1009,44
864,-263,347,-7390,-576,917,295
865,1474,-1526,5416,-1299,1291,1806
866,3878,-7862,-3147,646,-1538,1073
867,-7912,1778,-2423,618,-1,859
868,-524,6687,137,1526,-223,-201
869,-5009,2261,5353,1611,-1869,-782
870,7771,-3709,1320,-1774,1641,1962
871,-383,7313,2149,-541,-301,-647
872,-6186,5030,-6977,644,-1238,-274
873,-1198,-3650,4384,-1002,-661,-747
874,-84,3558,4288,-1513,-1408,1121
875,3023,4317,7815,-825,1762,1918
876,3112,2317,-295,1461,-1403,-126
877,1985,1649,756,885,-1545,1476
878,-1986,-5386,7635,-1832,-354,393
879,3377,271,2387,457,1538,-562
880,501,6532,6212,-198,1500,-273
881,4063,-1433,-1219,-1263,-27,1966
882,1966,-671,-4807,1215,773,-1258
883,6359,-7760,7874,800,1218,1986
884,-7255,-3571,-4778,-488,-236,778
885,6321,-3164,314,491,105,-1181
886,-540,4565,-3511,662,-940,-1687
887,3750,-2524,3435,-1274,-1043,1704
888,2005,7764,7049,695,1705,-1089
889,1994,-6054,-6655,-890,1955,1610
890,5579,-5187,-5452,1309,639,423
891,-1335,-2183,-5134,213,787,1314
892,4503,-3106,-2800,1676,-601,-697
893,-7180,592,6876,1394,-885,559
894,3900,2970,7778,-288,-1076,-100
895,464,3331,254,-589,1810,1489
896,4015,-5077,-4103,1686,1596,-1019
897,6290,-7769,-7425,-1866,-230,-1184
898,-4723,-623,2499,1344,-264,-1795
899,-2169,-3953,-7830,742,1870,-1028
900,-160,6699,1116,1057,1886,1206
901,58,-2425,4331,-1975,348,497
902,-7046,7469,-4215,-1680,-372,1093
903,1419,6746,-1518,1020,455,-672
904,4760,483,-3671,1497,-1705,-1841
905,-1869,-835,-5123,1227,1163,195
906,1618,2607,-4694,-1676,-58,-1972
907,-6592,-3639,-4974,-876,1831,1016
908,7154,5774,3208,555,-440,-1365
909,-901,-2588,3586,1775,-879,1603
910,4799,7129,7775,-1393,-363,921
911,1974,5121,-280,-1453,-1993,1585
912,6256,-6150,7192,935,1804,-1598
913,4793,914,20,-876,-724,-1499
914,6117,7114,6527,-1070,182,320
915,-2354,-6209,-4392,517,-720,1469
916,-4097,3150,-88,515,-1363,1886
917,1454,4622,-2865,1058,-753,-563
918,-4714,6662,-4679,1484,1160,-1228
919,-1712,6773,-927,1175,92,1661
920,-7773,1565,3256,-12,-454,704
921,2927,7478,5757,1611,244,-1749
922,-604,-3619,77,1758,1359,-412
923,3620,2515,-5641,1415,-107,-598
924,-2315,-5705,-7939,530,1593,-95
925,-6717,-541,-2940,-897,1982,661
926,1650,6648,2841,1195,-1589,-364
927,3009,-1329,-921,397,1487,1256
928,-6473,-5931,6317,-1261,-366,-360
929,-3824,1276,7425,-164,327,-3
930,5200,6017,2491,433,-1436,357
931,4948,-4723,-11,-1955,412,-931
932,3734,967,-17,956,-754,-1430
933,1081,-5016,-1424,-858,-1970,-1920
934,4159,3070,-3690,3,-823,-115
935,3545,-1721,3100,1348,-1922,-830
936,-7588,-4517,4495,-485,-350,864
937,2308,10,6707,151,-1481,-618
938,-2875,-6712,-145,-138,-1078,593
939,-1990,649,2502,1959,-1686,1117
940,-4423,7936,-5455,-970,725,1214
941,6584,-3388,-2228,11,-1382,-894
942,1792,5927,-863,-1374,736,-426
943,4498,2837,-982,-1230,555,1317
944,7219,3051,2996,425,331,1886
945,5579,-4068,-5981,-1499,-1419,731
946,-1413,1725,-1610,-119,220,389
947,3619,-7834,7714,1066,375,833
948,1160,-6133,-7370,-780,-504,-1473
949,-5430,-4040,-6687,-1171,1894,-656
950,-6815,6045,-615,-49,80,-745
951,-2375,-3421,726,-1762,-871,235
952,4647,-1230,2610,1618,267,806
953,357,6489,3818,41,-11,-1106
954,6220,2157,5319,-684,-1231,-1665
955,-1107,465,2364,1302,-1063,874
956,-4752,-1312,4672,1347,-627,1034
957,1351,-6937,-7664,-962,-1607,15
958,-7138,3431,1604,52,-1357,-844
959,6547,7115,1735,1866,1679,-124
960,-172,7669,605,1936,-1288,-1663
961,-2222,-6004,-3608,-1946,297,-1456
962,-1802,-5802,-842,429,675,-420
963,-621,-759,-980,296,1000,421
964,-1938,1480,-3697,-1246,636,1046
965,2904,-823,-2530,-1569,1665,1594
966,-5592,1008,-7939,1043,931,501
967,2100,4931,-2376,1622,-1741,-755
968,6441,655,5100,1682,-1981,-20
969,-4092,-7852,-4593,-72,1556,-747
970,1213,303,-5193,-840,-1853,307
971,-520,1577,2298,-1329,-1010,662
972,5119,-2719,-4859,-63,1302,493
973,3425,-6862,-5433,-1682,-494,-1227
974,5517,1164,2181,-1139,779,1320
975,-4680,-2731,4849,1238,-47,-784
976,-4081,-7193,4999,-1012,-862,-338
977,-2198,-5749,5774,-300,539,-959
978,-323,-2101,1981,-134,1451,-1192
979,916,5456,4445,-930,-117,-879
980,-4759,1764,-1656,-1739,-1294,-1429
981,-4103,407,2208,-816,952,-886
982,-475,-1114,-7504,-1005,1093,-1682
983,-6492,-7195,-3189,-230,-1865,-1112
984,6869,-2906,-5944,-722,354,1323
985,-1118,6811,2806,1627,1846,1359
986,-493,5918,4243,17,-95,141
987,-984,-4898,7822,1299,58,1450
988,7982,1215,-6095,-339,814,254
989,2331,3710,6461,-687,1932,1823
990,-6210,-7514,-7374,1844,-1014,-692
991,-7399,-1911,-1648,-246,550,-1975
992,4334,-5674,-4652,1763,1638,-280
993,-4780,-7692,-5748,1966,598,-1517
994,5719,1965,1885,1139,-241,-1818
995,-6160,2947,-7857,-453,-1954,-1072
996,-6080,-5997,4366,-262,-158,466
997,834,6566,7755,374,971,1234
998,7398,-6448,1261,-1320,60,-1694
999,-612,-2154,-6724,786,741,-128
1000,-3517,-4879,7941,349,209,-1165
1001,-5932,-6245,4152,-1153,669,1097
1002,6071,3309,3499,-934,-1821,-936
1003,-3119,-2225,-6159,-1984,1186,-1452
1004,-1421,4329,4634,898,-3,-230
1005,-7902,3608,-2821,-395,1389,1957
1006,-7662,5795,-6429,-1827,-128,-969
1007,-1570,1498,1047,-1556,-1473,-1953
1008,-4244,3430,1109,1796,-803,1831
1009,5915,-6583,334,1446,1535,317
1010,1731,4119,-1695,491,-1178,-441
1011,2529,-615,6701,725,-1247,-184
1012,-253,-6865,-6715,-1789,-604,790
1013,2228,2620,5422,798,297,-917
1014,6377,-7003,2761,-1218,-1833,137
1015,4809,-6827,1784,1359,1317,1797
1016,768,-2184,-6042,-584,1887,834
1017,-5702,-5333,6745,-695,1670,-1787
1018,-1091,4411,7739,816,-548,27
1019,7895,-7636,-5387,1503,1462,1365
1020,2357,-1979,-4528,-336,-112,-1828
1021,-450,7930,4546,-120,1035,688
1022,6371,3852,-6550,867,-277,-1572
1023,-1052,679,-6435,1391,21,1499
1024,4901,-252,1657,-421,1658,-507
1025,586,6281,-3832,-739,1015,-888
1026,456,6425,-4094,606,970,1992
1027,-1742,-5900,4435,1963,-1837,-1167
1028,-698,2655,-1107,-1004,-1669,-762
1029,4063,5911,5472,-1410,-1267,1616
1030,-5614,-1194,-2725,628,-965,478
1031,850,18,1855,1076,-1623,1420
1032,-2887,1851,2083,1963,-1608,873
1033,5691,-3671,-5726,-1618,245,1372
1034,-4987,1296,-4947,1883,-470,1115
1035,-5166,6613,7045,1318,1186,-193
1036,5719,-3195,1365,-446,-1081,1068
1037,2919,-2662,-4938,-667,-1931,-1700
1038,-3787,800,4962,-1887,-1676,-1045
1039,504,7304,2651,-1866,-530,-802
1040,2965,5195,309,886,-1758,277
1041,6051,883,-2707,-1909,-1792,-756
1042,-5427,-5583,-2173,-80,700,1596
1043,4619,4534,-1502,-468,248,1944
1044,-3696,-908,2319,552,362,1232
1045,2880,-625,3584,1151,-1581,1538
1046,12,6143,143,593,-989,1891
1047,5825,-6635,1445,791,-1825,1976
1048,7988,82,-7654,-1397,305,-1928
1049,7143,7679,-1006,-1303,1688,-1670
1050,-3104,7587,-2272,-891,724,-278
1051,6475,1353,-831,-1023,1406,840
1052,874,4332,-394,918,635,529
1053,-2654,-6538,3241,-438,1466,-1897
1054,-5084,5474,1097,115,-1508,-963
1055,6567,-5025,5374,-577,-1517,-1497
1056,-7732,7854,5449,1157,-676,865
1057,-2374,-6395,-5545,-1646,-199,1678
1058,-2442,6695,-6048,-178,-1432,978
1059,960,-6009,788,701,1879,-628
1060,-2475,2917,-1395,1659,-1576,-1297
1061,895,-2214,-6381,-1115,-1751,372
1062,-4086,2274,-3043,-154,1040,-777
1063,-816,765,4804,552,-1919,658
1064,1541,-5172,-490,762,1583,835
1065,-4655,-3840,2697,207,1608,-595
1066,-6916,4992,5816,431,-523,-1040
1067,-6581,-3133,-6618,-812,1287,-1578
1068,-1447,1627,-6038,1495,713,708
1069,5291,-2120,-1184,-902,1613,608
1070,-6939,6574,141,-961,662,1413
1071,5045,2769,3408,-422,-1612,-440
1072,4095,-5561,3250,1696,1824,-1953
1073,-6819,273,-7545,660,-1422,1119
1074,1393,753,-1852,1024,829,431
1075,7342,4385,-1431,750,-1723,-554
1076,5928,-4200,-1895,-257,1530,883
1077,-5710,4555,5333,375,-1091,-635
1078,-7572,-4554,6241,-1513,285,-1631
1079,3159,-2108,-1614,1657,1120,1201
1080,-3743,-59,139,286,-138,-461
1081,-6413,-6672,-4589,-455,-1301,482
1082,-4773,-31,6120,351,-1002,754
1083,1232,2681,752,1319,-164,1274
1084,1020,-2971,-7806,-124,-362,1011
1085,7042,-3723,-3761,924,1264,-239
1086,5407,-4105,-3026,-1703,-1984,37
1087,2023,2504,-2331,128,1886,1209
1088,7097,2429,-7835,-1401,1055,-1273
1089,2468,-533,-5514,-296,1719,-228
1090,-6778,2863,5406,-1459,-204,-1941
1091,230,3408,390,1816,-1170,-485
1092,-7182,5388,2003,919,-462,1911
1093,4125,906,-7191,1473,305,-335
1094,2999,1351,-4287,-1730,-1896,-1821
1095,3240,-3600,7882,-1564,612,93
1096,3183,-7945,-3225,328,-1996,-167
1097,-7330,-5509,6817,-450,1901,408
1098,-2432,-7394,979,-1100,172,1763
1099,-2633,-3526,1965,-1075,-251,-1170
1100,-4297,6320,-2086,351,-1456,1458
1101,-5045,7348,-1314,1474,-1045,-347
1102,5631,-4663,7921,1305,-581,-271
1103,2946,4533,1816,-14,-1132,-811
1104,5698,5572,4089,-66,-1545,-892
1105,-7745,4183,-7652,1352,1469,-892
1106,2514,-4676,6102,-450,1523,-748
1107,-6321,7988,4344,879,221,-1404
1108,6010,-1561,-548,722,-1117,-251
1109,-3230,-4974,-4552,1783,1078,498
1110,2732,-2090,-2265,-1690,1775,-689
1111,-6328,-254,-3912,-1795,129,-627
1112,-4925,-2811,-4809,1915,938,1060
1113,-4947,4364,-6910,-1955,1876,103
1114,-2007,7177,4029,397,-1773,-468
1115,-1958,5287,-3252,1962,1388,1674
1116,6726,-4377,6488,786,947,-1558
1117,-3389,-7646,-886,-301,1214,-705
1118,-2555,40,4738,1827,1883,1923
1119,1201,225,61,-628,1232,-1390
1120,-7890,-2164,3739,-1854,26,-24
1121,-3730,3374,3379,-859,-205,-390
1122,7122,1079,-5578,-1408,-1155,-859
1123,-3489,-2434,-1195,-1163,769,1943
1124,-7245,-4335,6283,-1350,1235,-1884
1125,6848,-6418,-5000,-1349,-831,146
1126,6582,3552,-7391,1934,155,-602
1127,5503,2697,4807,1044,-568,773
1128,3053,6089,7143,948,460,-1169
1129,3678,1164,2302,-67,-1088,320
1130,3040,3604,213,1895,-1204,-468
1131,-6899,-7158,3978,1187,744,1395
1132,-7938,-4502,7473,828,-722,855
1133,4216,4806,-715,1302,1939,590
1134,-1992,-309,-5129,199,715,-197
1135,6489,1011,1240,1319,-812,1666
1136,-669,-1331,7825,448,-102,1340
1137,-3139,-6498,7996,-389,-1787,1241
1138,-519,7916,-7418,-1800,992,-1972
1139,-5783,6160,3575,1536,342,527
1140,1685,-7923,-3095,76,-1636,-1626
1141,4838,-1829,4535,-1817,1734,381
1142,-7570,5113,-3494,289,-1213,792
1143,5331,3314,-4016,1167,406,84
1144,-2611,2321,5854,568,-1331,-972
1145,1160,1436,-3600,240,-1589,1785
1146,-4199,-5881,5229,922,-1780,1300
1147,1114,-2864,7309,-232,1427,193
1148,-6361,-421,-3131,-172,215,-927
1149,7573,6631,-1179,-1915,-1803,601
1150,-3854,-1539,-3064,-403,-1652,-408
1151,-2854,-2262,-7597,-1256,-777,-1942
1152,-3217,4152,3246,324,1227,842
1153,204,6358,4153,-1303,-1260,1600
1154,3145,-5135,5340,1488,-1929,253
1155,-5493,6488,-7214,-359,294,1064
1156,-6226,5897,4229,1214,27,637
1157,-974,1770,-5475,-76,520,-1818
1158,7705,6823,7563,-1777,1162,-82
1159,5435,1916,4820,-1063,-1318,-866
1160,2247,4784,-2342,248,1727,-149
1161,-6219,4305,6290,292,763,1720
1162,3644,-3826,2131,1147,-373,-1006
1163,-1456,-215,-6441,-1094,-622,-110
1164,-3078,399,-6400,1904,-87,-1982
1165,-5415,4776,-7309,750,1078,-392
1166,1930,-5186,5797,-1259,-593,-300
1167,-5094,-591,6500,-770,881,-1104
1168,1613,7330,2743,-925,-535,-909
1169,7381,-228,-996,1909,-547,1157
1170,-7101,-4516,-4321,-1887,-879,-1714
1171,-2439,1047,1191,-366,-1481,1912
1172,-1419,-582,-2759,-380,-654,-123
1173,-4854,3235,6808,-1535,-808,-1965
1174,4210,1457,-262,1488,1611,625
1175,-3716,2425,4522,-1752,719,-1838
1176,4640,7287,-6662,-531,-1571,-1692
1177,6699,-2592,-5785,746,-299,982
1178,7384,-4450,598,-1829,-144,1097
1179,-4514,4129,3048,1054,226,1714
1180,-2017,4071,2632,-1909,-1747,1440
1181,-7860,6004,-5812,933,-1216,559
1182,-3223,-7328,-3355,-1223,-1745,1743
1183,7309,-620,-7543,-773,-84,1580
1184,-4798,5066,-5376,-311,902,-1175
1185,-3463,-1843,5438,128,-1169,1522
1186,5023,-1557,1560,229,1804,-1694
1187,-3283,5958,-6919,-1263,-817,-615
1188,3170,-5969,-4610,-852,629,1876
1189,-4129,-6053,1498,-945,1330,90
1190,-3829,-5386,5377,240,381,1661
1191,-105,-3522,2099,-694,-587,353
1192,6158,-3005,3408,-1498,-1586,1880
1193,4076,6094,-7948,1156,-1747,-1805
1194,7335,-6689,1292,-765,357,-591
1195,7136,4652,-4658,-824,-1812,-761
1196,6772,3882,2872,-24,-1664,215
1197,-4542,-4961,-1055,-451,-1106,-33
1198,7135,3629,-346,1466,-1987,-573
1199,1103,4381,6369,-750,1668,776
1200,-3040,-1626,-7506,97,-2,-1922
1201,-7009,2420,1283,521,235,1319
1202,4503,-4712,-7711,303,-62,1064
1203,5867,-156,-5476,-1250,1297,-487
1204,7199,2712,4995,1921,374,1985
1205,2291,5178,927,819,134,1563
1206,4293,697,1665,-1393,-788,-1340
1207,-5432,4784,-1473,-566,1479,-1759
1208,-7940,7069,1745,-1736,-142,1288
1209,-2569,-1787,2351,-629,600,864
1210,2493,538,2496,519,-113,-480
1211,3644,-2485,5286,-290,-111,632
1212,5132,489,268,1331,-1921,1049
1213,-2049,-1348,-707,1661,-199,565
1214,7729,-2057,2308,1140,-283,-1925
1215,-6833,-5663,-5311,1626,1496,1581
1216,-385,7955,-7054,-1307,-953,1642
1217,-693,-2065,-4297,-1504,-1199,1444
1218,-2651,-5390,-5868,-813,-947,-362
1219,7118,2983,5727,-1191,1514,-600
1220,-3866,7879,-1892,1021,378,1784
1221,5973,-5543,-4424,1412,-1753,-1950
1222,2665,-1297,-7182,-982,-1848,1691
1223,6184,-6342,-1389,1242,865,1253
1224,-6238,570,3698,-1787,-1527,-1540
1225,7042,7340,3131,743,-343,479
1226,6713,5630,2406,-177,1165,-939
1227,3886,-527,5409,1086,-1528,1246
1228,-7395,-6976,2601,-522,-375,-100
1229,-4989,-6191,5184,1474,-85,377
1230,4644,-789,-7406,-1848,-590,-1962
1231,-2698,-969,-314,-1158,-1933,1163
1232,5407,2362,-51,750,-740,-1853
1233,-6059,-6119,-957,-1393,-115,-1108
1234,5315,-2085,-552,-784,1408,-1827
1235,-7388,6175,6662,1500,15,58
1236,-3768,-1565,-332,995,-296,1590
1237,-7904,2196,5108,-314,-633,-1211
1238,-4852,-4440,5047,71,-1272,-1680
1239,-4572,4844,6590,-61,1502,-1937
1240,4703,773,3888,-830,-372,-1414
1241,-2235,5960,7534,1978,-1169,-130
1242,-6191,3549,-6556,-703,-635,1376
1243,6827,2353,-6345,1137,1844,-1891
1244,1331,7294,-3443,-613,734,-429
1245,-371,-2928,-7989,1883,-221,-336
1246,-1129,2656,5176,-1957,29,-1207
1247,5604,4067,-3111,1951,-203,-680
1248,3510,2924,5512,-1768,-860,-722
1249,-887,1143,4769,-960,-99,1423
1250,-1832,3083,4294,267,1507,726
1251,1808,-1914,2383,-1955,1708,373
1252,-1963,-6780,7757,208,-366,667
1253,-6054,4751,2156,1788,-646,1189
1254,-1487,6355,433,1470,453,-556
1255,-1535,3405,-3992,681,9,-346
1256,-7011,3982,3265,1709,-111,-1277
1257,240,-3182,-1928,297,-1268,981
1258,1932,-4541,-6329,-300,-220,-1778
1259,-738,5597,2400,1230,596,974
1260,-3485,748,7943,-1595,732,1075
1261,7005,-1870,2162,929,-1889,1058
1262,-4577,-5333,7868,-1245,-1965,86
1263,-2574,1089,6839,-802,-1511,780
1264,-1866,-4580,-7551,976,-320,1292
1265,1553,-1309,7962,1566,1399,-1839
1266,-7825,-7801,-6201,-1389,904,-1743
1267,3135,168,-1469,526,-520,-1203
1268,4299,-749,-1566,1933,1927,992
1269,7798,-7036,-3232,-1300,1924,1822
1270,-462,-258,-6288,1074,-1707,-62
1271,4651,-593,7064,1553,768,133
1272,-878,4602,2723,-1280,-1142,1765
1273,-1591,-6204,-7980,846,1112,-1523
1274,5900,4914,137,-1213,1213,-166
1275,-5698,-2043,-5917,216,108,1372
1276,-3170,-1405,7603,-687,1191,-1170
1277,-958,-1614,899,168,580,-1827
1278,1369,5235,4225,965,1713,-1795
1279,4258,-2035,-2422,1428,1641,1326
1280,4737,-1292,3907,-1775,-1350,-253
1281,-5312,-1679,5512,-8,-1085,-636
1282,1857,-2601,-1479,1165,-262,484
1283,6135,6331,-2386,-1721,-1715,-111
1284,-7122,-1102,-1508,358,1580,-875
1285,2907,7320,-3103,1786,332,-598
1286,1216,3415,-1821,-1640,-804,-724
1287,5441,1836,3063,-1760,105,1519
1288,1330,1349,1853,956,-1733,-559
1289,6754,5132,-7806,-937,-133,-745
1290,-6744,-2940,-1479,527,932,-710
1291,6754,4731,4780,-1279,1380,-1365
1292,-5800,-1375,-1547,1482,-1143,-1255
1293,867,-3148,-1217,-508,1291,-576
1294,4087,6861,-6845,-1013,531,-86
1295,-2370,-4512,-1632,-528,-1374,1355
1296,-5860,5702,-4720,680,-635,715
1297,-3698,2312,2914,800,-1382,-414
1298,4054,-6639,3535,-1943,-1867,-1910
1299,-7443,7241,-6432,-397,-844,921
1300,-4103,-7332,-2769,-105,1728,-169
1301,5141,-4478,2858,1924,252,-1337
1302,4767,-3081,-4886,1510,1658,-511
1303,-2188,-366,-7660,595,955,-78
1304,1958,4542,693,-1493,1141,-28
1305,-4233,7960,-3269,-498,-1438,1005
1306,589,175,-7599,1134,1274,648
1307,3056,-2715,-4160,-132,998,756
1308,-4268,-1924,-709,48,-308,1342
1309,-2637,-5283,2896,-1820,-1555,-983
1310,5126,3332,5374,73,1155,1439
1311,-7868,252,1729,-1770,646,508
1312,1380,-7209,-4328,822,854,-1688
1313,7039,796,5321,1123,-1623,1512
1314,-5364,-1180,-1532,34,1785,1251
1315,4140,4806,-319,-1771,1662,-1169
1316,1947,-4240,-5215,-133,-1558,-650
1317,-4550,-3319,-1171,-1328,-1843,802
1318,-1267,502,-3297,467,-885,-798
1319,4269,2710,-2084,42,464,50
1320,-952,-3536,-5818,-1351,-1940,-770
1321,7841,6616,-2695,-1605,1948,-1153
1322,5569,2741,-1249,-1133,-773,1165
1323,5913,6433,-7824,453,-1770,1003
1324,-4758,3880,-5450,-734,-845,194
1325,1312,-6309,1666,62,-494,-937
1326,1959,2769,-788,-1619,1860,807
1327,-1212,-7615,-5370,962,-1936,192
1328,6414,-2242,-4703,-1606,-1697,196
1329,4742,341,4648,1613,687,-1178
1330,3939,7401,6892,-852,-1197,819
1331,-4845,5720,1036,569,1365,-1587
1332,-307,-5272,5487,-677,-1348,351
1333,-468,410,1489,675,-1839,1759
1334,-1500,-6361,-2796,1263,761,-242
1335,6690,4053,2369,-573,-797,1458
1336,-4989,-2618,-5823,32,-1847,1293
1337,4604,1309,-3360,1385,-1425,-1843
1338,-5177,-2498,2569,-413,987,-1209
1339,3618,-4202,-5217,60,1012,-157
1340,-4992,-7360,-3443,-210,-1247,309
1341,-4395,3433,2494,-1743,-234,-1654
1342,-1098,4280,-5831,-1932,962,1984
1343,-3038,-2651,-5445,1142,-683,623
1344,3180,2572,-5375,-6,1427,408
1345,-618,7111,4170,-1679,-1127,-1183
1346,4531,-4294,-3367,-1668,-292,-221
1347,7660,-6649,7825,548,-1269,1750
1348,-2613,-5710,-1353,662,-935,1636
1349,-6170,-5398,-1094,1190,1403,-303
1350,6012,-6152,-4092,-1108,-363,-999
1351,-4028,6199,-7889,1547,-561,515
1352,3897,-4869,7311,-1483,-1798,-319
1353,-2553,-3601,-1945,-598,815,82
1354,4581,-6818,-7682,-1353,1158,38
1355,423,-7967,4788,-1273,-515,-793
1356,-764,-6295,-1037,-1081,1330,-1858
1357,-3105,-1200,-586,1976,-1717,-840
1358,7378,1783,872,-1100,842,-799
1359,4974,2969,5315,-1877,-855,1142
1360,1548,-1837,49,426,227,-541
1361,-7143,7278,-1146,13,-1442,-443
1362,2804,-6406,-7600,-481,32,1697
1363,5377,1754,6985,77,1572,881
1364,-3787,-7339,3515,1940,197,-1422
1365,2400,495,-1125,-1094,-867,1125
1366,2991,1445,4331,-21,1800,-1612
1367,-2551,452,-7457,-108,-1283,1016
1368,6932,-5418,439,528,-303,1741
1369,-3005,4697,-3569,1706,-310,1884
1370,6691,2083,6934,1613,-1418,1614
1371,-461,-2199,200,-1577,1041,-1824
1372,445,-7832,6468,1695,540,380
1373,1127,-5634,-6144,-974,-409,-1510
1374,2445,6033,3151,-356,1957,468
1375,7057,7207,-4307,-1696,-1273,44
1376,4005,7736,2402,-1654,-154,540
1377,862,-3641,-547,-1233,1108,779
1378,-1150,2892,-3638,-1356,-1481,1493
1379,6502,992,1641,1320,-1363,1415
1380,-4750,1108,6718,-1208,608,-129
1381,5722,2493,5055,-808,-194,900
1382,1733,837,7272,-727,803,-1552
1383,6266,7547,2265,1274,-1170,1886
1384,6499,-3051,1074,180,-7,98
1385,1094,-5702,-6652,-1525,-1900,722
1386,2486,6362,-4854,-1294,439,-1635
1387,6766,246,-1664,-421,-418,106
1388,3172,-6968,-2476,22,-1289,-135
1389,-4746,-6955,-5213,-1517,1877,308
1390,5127,-4121,3461,-1126,513,-1687
1391,-3188,4036,-798,1533,-50,1511
1392,-6871,-1851,-4454,875,-1470,-208
1393,-3381,-4972,7953,-170,811,-1771
1394,2916,2548,-5187,-1577,907,1719
1395,-2874,-1360,5257,-1455,1802,-1490
1396,-7309,3069,-5817,-913,1439,172
1397,5925,-2997,-5637,-903,1804,650
1398,3997,-6580,-1283,-1295,-35,-1804
1399,5209,6851,-6747,-136,1845,1578
1400,4144,2743,-3531,1567,145,1979
1401,-146,2327,-5324,1225,-1986,199
1402,2511,-6,1611,1172,962,1838
1403,-1538,-6962,-1904,908,1337,-914
1404,-2084,5392,-7365,1488,876,1111
1405,7920,-5463,96,654,-343,-810
1406,2095,-1967,-566,-1906,-523,-1977
1407,-7724,-3997,-3210,358,-29,515
1408,-7107,219,-2838,281,-1445,-1442
1409,7654,-4648,5257,1248,-716,-280
1410,-1268,1033,-1906,1509,1698,-1828
1411,-331,7832,-2102,-1443,1252,-1006
1412,6998,-5763,2372,559,1374,-334
1413,7076,3258,-45,-72,400,-1446
1414,-1730,5782,7916,85,1434,714
1415,-3946,-2601,800,1001,-889,453
1416,-120,-2934,4049,336,-644,828
1417,5369,-6725,3183,1385,1046,-730
1418,-5177,3755,-907,1477,-1151,-43
1419,-4306,4564,6646,-1459,1616,-1272
1420,883,-238,-5274,-977,757,-1922
1421,-3634,-5010,-7862,-480,1973,256
1422,-4841,-1075,-1763,137,1510,-1501
1423,1271,5806,2948,-370,1823,-1404
1424,-4735,896,-2009,62,-193,-1046
1425,2801,5545,-1131,-968,890,1571
1426,-7159,7815,-2965,-714,1603,1856
1427,3810,-7584,-2795,-359,456,-556
1428,3397,-3648,-3488,1375,435,-876
1429,2755,-3050,6109,1238,1293,1769
1430,-5672,-2743,5668,1080,1448,605
1431,4549,-3378,-426,-777,1385,1888
1432,-757,-5761,-7681,-1603,-262,1962
1433,-143,6448,3490,791,23,264
1434,-6392,-6627,-3983,-216,-138,-1657
1435,6469,3927,7778,-1599,-713,1583
1436,-4994,-7462,3539,-617,650,-1953
1437,6357,4434,-5229,-1534,-416,541
1438,-5885,-7510,2364,-1134,323,-1328
1439,-267,-7739,7808,454,-1551,391
1440,5356,-6003,7772,-802,1241,-363
1441,1356,2725,988,-1620,1368,-1765
1442,3196,-5153,7625,-1158,1917,1873
1443,2501,-4851,-774,1761,-792,734
1444,-5718,-4287,2394,-1086,1332,648
1445,2157,-1304,-4175,1761,-1905,478
1446,865,-6226,994,-1477,776,-1463
1447,6419,123,2737,-1858,1912,-363
1448,-2607,-2199,7369,-333,-984,1865
1449,4774,7081,5095,-1380,1644,593
1450,1571,5200,7772,1229,1079,1108
1451,-1274,1202,-2836,1627,-529,-705
1452,5204,-2582,-7722,1474,-1799,228
1453,-3057,-3947,-460,1003,865,405
1454,-3456,1789,3152,357,-1058,711
1455,5510,-435,1800,518,1182,732
1456,587,7965,-4602,1955,-1093,-1211
1457,3864,-3887,-602,272,-1794,389
1458,1821,860,1038,-740,1710,-1518
1459,5645,165,6713,1351,-1976,-1798
1460,-783,-3794,-592,656,-695,670
1461,-3624,1520,-2948,-92,-529,496
1462,-6089,2308,-4212,1742,-1268,1651
1463,2076,-6448,4176,1607,1096,-1850
1464,6995,-5662,1032,1174,1917,-1979
1465,-6824,2472,-2635,-374,-1283,207
1466,-792,-5655,-521,-352,258,1151
1467,4034,-4246,-2187,859,619,1003
1468,7405,5255,1942,-968,459,-753
1469,-3980,-3877,-7683,358,-648,1194
1470,2394,1628,7660,-913,-446,-773
1471,-2751,6963,-6157,818,-1594,-1464
1472,3233,5773,-3087,-708,1282,-693
1473,-4076,5479,-4422,-1593,1848,693
1474,6959,7091,-1078,-1957,-259,1420
1475,7682,1433,-899,1271,-1205,53
1476,7880,-6438,2635,-357,1366,-1122
1477,1311,4896,1420,-804,-1300,-1282
1478,4912,-4306,4540,1431,-468,-1141
1479,-237,7460,760,-1057,1549,-1721
1480,3840,-5151,-2003,-1796,-1732,-1465
1481,-3104,5125,-1368,-1976,452,-429
1482,2607,4748,3167,-1196,445,1662
1483,-5207,392,5182,-618,874,-554
1484,-2138,818,14,1641,1977,1876
1485,-2767,6094,-6687,-548,-777,-1056
1486,5723,-6494,-3272,1955,483,-569
1487,2292,424,-1378,1704,-1560,-746
1488,4743,-5429,-3396,-1959,1427,-1788
1489,-805,-7738,375,630,1265,-833
1490,396,-7991,-4792,1292,419,1481
1491,-3956,-3753,4736,804,893,1839
1492,6720,2386,4391,1534,-5,1964
1493,4452,-6827,7420,1868,1723,637
1494,-7993,-5450,2264,697,-1472,1363
1495,-5572,7193,-6683,1980,1437,108
1496,4914,528,-7171,1567,1616,415
1497,4884,6731,-5675,705,-1985,-15
1498,2225,4469,-5897,-313,-223,-1168
1499,1399,-1812,-1528,1586,1477,1157
1500,2302,-1217,-7686,1182,-47,-1789
1501,5762,-2410,5784,1031,-1526,165
1502,2485,-2984,-2029,1047,262,1559
1503,-244,-4944,2776,1413,539,1358
1504,-487,367,-7350,-624,48,1228
1505,-4441,820,7828,-1572,-1646,2
1506,2796,3456,1726,-485,-1397,-1668
1507,-2506,3664,3405,-593,-75,-108
1508,4079,1359,1311,-639,921,-1188
1509,-7352,7351,-6574,-232,-1336,1843
1510,-7782,-1230,-4008,1353,-462,-2000
1511,-3651,1558,-5035,-513,-81,553
1512,3740,3189,-6143,-691,1490,-1163
1513,5690,-2483,-6679,-1091,-539,1254
1514,-5545,-721,-4430,-1781,1987,-1449
1515,-6865,-3421,6398,1696,-1380,1889
1516,5158,6225,1688,-1414,-92,836
1517,-7218,6938,-1895,1755,667,-304
1518,7079,5337,6782,-274,-1540,1065
1519,5446,7592,7133,165,978,-959
1520,5600,-5739,-2583,1779,846,-184
1521,7129,-4563,-2451,-24,-1181,-147
1522,6470,7258,6834,362,-1915,1285
1523,-1116,1719,2336,-17,748,-224
1524,-4324,-3103,6054,-818,1504,-1021
1525,-4914,-2032,-1117,-1592,-925,1705
1526,-3364,4058,-7420,-1442,-561,-1821
1527,6429,-1972,4897,1725,284,-203
1528,-7320,2824,4216,-381,1553,1794
1529,2428,1738,-744,-954,192,170
1530,-7414,3550,-6427,-236,497,-952
1531,6905,-4977,-7093,1917,1809,-262
1532,-1454,-6330,6390,-1585,149,1368
1533,7668,1326,-2136,765,-634,1745
1534,4614,4629,5971,-1428,1389,196
1535,-4326,-3623,7654,-1295,-6,-1116
1536,6341,6133,77,-1768,-742,-1230
1537,-4783,-6439,400,251,1589,562
1538,4239,1328,-5995,1898,500,984
1539,2439,3936,5381,-783,1767,-615
1540,-7540,23,3271,1090,1578,-1028
1541,197,-6099,5285,1134,742,1243
1542,-1681,4484,-7638,1708,1552,96
1543,-3500,910,3498,-1298,1006,-340
1544,-3748,-4,4843,-945,643,-262
1545,-6777,5600,7690,1892,-1058,-654
1546,-7609,3021,-1773,-800,188,-1339
1547,-3996,-4220,6726,-819,236,-124
1548,-1853,2786,1347,-1459,-1290,1074
1549,6458,-2503,7112,1189,-325,-398
1550,-1018,-7420,-2423,-557,-484,296
1551,-780,3193,7471,-380,1133,-936
1552,-5030,-2260,1851,-1481,-722,-1945
1553,-2561,-7116,-3065,200,1787,1346
1554,-2636,4455,3878,1684,342,1487
1555,935,1514,5103,1394,-1797,999
1556,3831,7430,271,28,-1584,1550
1557,2693,-3367,561,917,695,576
1558,7028,-6273,6508,-1859,1768,567
1559,1142,-2743,-6428,1652,897,-1778
1560,-6658,-5467,5454,-559,-1239,-848
1561,-455,-2151,-426,986,1681,1942
1562,6513,-4771,-7084,-45,-1417,-1032
1563,-7356,-7401,1132,1249,99,-255
1564,2074,-177,-6945,-940,-1893,564
1565,6945,-716,-5947,-974,1715,1859
1566,-3949,-7746,-2915,803,1243,276
1567,4525,-2239,-7217,1421,938,202
1568,6764,-3986,-7317,-1814,-1955,1965
1569,1064,-5575,2830,1833,1310,1560
1570,2867,-5586,-1656,-1493,1473,215
1571,-6265,-7131,2967,1475,858,1857
1572,-4375,6310,-5985,-1069,481,1911
1573,-7032,-7415,2078,-1834,408,-1102
1574,299,-6041,-3092,-829,-482,1295
1575,6820,7972,1514,-1166,1479,-1023
1576,-2860,-2868,3975,1343,-81,1098
1577,7863,-1205,7308,1747,-249,-773
1578,6630,7498,721,-1827,1678,-735
1579,3477,-2462,-6107,-1000,-147,-169
1580,-376,6864,-5143,-516,564,-1182
1581,6455,6989,7099,-737,1249,-1805
1582,2880,-2585,7200,419,-839,-1105
1583,1167,-2457,5348,406,-408,301
1584,-4488,-7105,-3447,-579,188,1576
1585,6553,-7802,-1469,-1836,-1925,-349
1586,-7700,2188,-142,142,-1588,-1435
1587,3456,-4047,7145,-1107,887,-1614
1588,-3570,-2845,1451,-1787,-653,1151
1589,-4482,-1105,-154,-1243,-634,1734
1590,6346,-2641,5740,-351,-1388,1087
1591,-4327,-7503,-6732,307,-205,338
1592,-7090,2854,-4243,1817,1630,1589
1593,-425,-1058,1067,-196,130,-380
1594,4049,-4187,-7274,686,-735,-511
1595,-99,2622,5003,-139,812,-42
1596,6317,6588,2321,-1944,1134,-99
1597,892,-228,517,-647,623,-1905
1598,-6939,6592,-4831,-134,-829,961
1599,-1515,5370,5888,326,763,1682
1600,5970,-1711,-2422,-1898,-391,-1677
1601,3506,-5760,-7859,1551,-1780,1398
1602,4178,-6094,-2191,1810,1806,-1135
1603,-3458,292,-5617,993,45,-594
1604,-4956,6158,7126,593,981,-1920
1605,1405,-361,-5438,-1830,-803,-1311
1606,-7385,-4280,7810,-1256,1188,-385
1607,-7731,387,7674,400,-786,594
1608,7846,-5443,3617,262,-746,-798
1609,-454,641,3540,1655,-1997,62
1610,-5353,895,933,570,-535,1924
1611,929,-7759,30,-894,-828,832
1612,213,6649,-7421,1116,-734,618
1613,-4301,-1557,1431,-417,1053,-534
1614,3861,-1537,6817,-1407,-247,-323
1615,1716,-639,3575,548,-1482,-1088
1616,6396,5287,285,-1805,-1540,-861
1617,6250,-1594,1790,-1457,-1765,-428
1618,-1384,3378,4748,852,-147,-796
1619,3642,7300,-7875,-1146,-1111,835
1620,-6821,-6915,-1714,-1385,754,-993
1621,-4934,406,-4732,1804,-1290,-1255
1622,857,-2642,5105,-1436,1900,-953
1623,-7072,-2031,-1843,-1152,-802,-148
1624,-4504,2360,-1386,-1315,-1358,1749
1625,-2665,2755,4295,152,-1280,1747
1626,-3607,-7605,3322,186,62,-18
1627,-5029,3482,-1673,435,-828,1833
1628,7246,-5646,-7264,1518,-929,-588
1629,-3115,5942,4640,-296,-1198,728
1630,3712,1656,-4817,612,446,-56
1631,-191,-2511,1117,1429,203,1941
1632,-1601,5710,-7892,-1679,-501,-1306
1633,2284,-5950,-6436,220,857,305
1634,-2274,6157,952,-362,1294,679
1635,-7720,-5396,5179,-1172,764,-1924
1636,325,-4992,6319,-541,-814,-1979
1637,-3013,7686,-3974,1634,-1473,1516
1638,-5178,-1932,-6621,-1356,-641,-318
1639,-2138,-5517,-7803,-1650,123,-1137
1640,-4440,1813,7187,-413,1870,-1090
1641,7458,-4641,-3192,-1755,946,-1377
1642,-3051,869,4192,1613,-1110,121
1643,982,-7838,4774,-1935,-573,1588
1644,4688,-6157,-944,-44,1318,984
1645,4236,7794,844,-1657,1871,1352
1646,-2094,-6302,-7093,-1842,-1282,-1846
1647,1976,-6969,7659,-1044,1349,251
1648,947,-1344,-227,584,-1648,-1071
1649,-2099,-5347,-5049,1998,32,1424
1650,2958,7306,-2532,1295,-641,-1421
1651,-1597,7416,3987,-1159,291,1193
1652,-4853,221,5024,883,-950,-239
1653,-6282,5103,-5688,-1652,1240,-1946
1654,1886,4302,-595,-1952,-1057,-302
1655,-4704,6796,-4034,-511,1091,447
1656,7376,1670,6981,-1061,-1525,1129
1657,2525,-393,-2093,-1464,-1529,-1780
1658,7804,-342,7014,3,-673,715
1659,1619,3252,2436,-2,-1681,-684
1660,325,-6839,1478,1493,-517,-761
1661,5422,-6551,-577,124,-801,-94
1662,2180,6497,2221,-1244,-1126,-457
1663,1731,-351,-6463,1830,-1642,-633
1664,-5994,-1012,-5304,1555,1695,-196
1665,2325,-2633,-979,812,1081,996
1666,1220,1041,-1382,-928,838,1212
1667,-4901,-2210,7463,795,-711,1457
1668,7887,-4499,680,75,-186,-1625
1669,-6429,7750,-7242,1446,-614,913
1670,-1599,4522,5056,870,-647,872
1671,1273,7555,4700,700,294,926
1672,7896,-3781,-7269,-1924,-44,-267
1673,-6868,2792,4884,341,-197,1919
1674,-5525,-2282,-6574,-1716,1577,848
1675,6641,5883,6689,81,-1291,-1781
1676,-2313,-2614,7966,-1839,-670,-1746
1677,1847,1860,416,531,-1216,-217
1678,-642,902,5989,1792,-887,-1820
1679,3787,-6867,-2798,1194,961,-1091
1680,-3468,-3024,-2067,227,-1870,1747
1681,1415,-2840,6312,335,971,364
1682,3817,-7694,-6930,-1855,-1414,109
1683,-5068,3447,4512,-291,504,-1958
1684,-6561,-2772,-7532,-658,-1883,-1226
1685,-3362,4969,-691,-714,-1152,1333
1686,2852,6468,-2415,-156,1479,52
1687,1929,2782,-2323,1212,150,-875
1688,-412,-5483,1083,-897,1683,-1001
1689,-2640,4463,4081,1393,576,-611
1690,6318,2004,4556,-716,-1903,684
1691,-2149,-2388,1385,-344,-470,1835
1692,1241,-6609,-391,-360,299,-1138
1693,-7174,-4771,-6104,1290,-1653,1346
1694,800,1182,-4805,1416,-1884,1423
1695,4728,-7787,3941,1702,1170,446
1696,-3207,511,-5639,485,503,-1303
1697,-2907,-348,6480,-1248,-609,400
1698,1154,5910,6818,-344,-240,1413
1699,3216,1963,-6825,917,-175,-965
1700,5389,6976,7036,-25,187,-1791
1701,7477,1963,-7014,1847,-1029,1069
1702,-29,-7178,6623,-939,-295,1480
1703,5599,-7749,5525,-383,-582,-994
1704,3936,6692,-2710,-161,-1926,705
1705,4415,4360,-4092,-1856,-1892,486
1706,-6978,-4261,-2737,1485,285,-1210
1707,5495,2275,-6914,764,-50,1832
1708,5450,5242,6762,1308,-910,1077
1709,1569,4590,-4089,-312,-19,1747
1710,-2696,-3064,-5256,352,260,-1749
1711,6817,1834,-1321,-1440,-996,-906
1712,-6791,-1230,-5512,-248,1827,394
1713,7119,7443,-6587,616,-1617,164
1714,1180,6996,533,1124,1766,1411
1715,-2803,3988,-7119,322,1301,1225
1716,7760,-1380,2912,913,-123,1729
1717,-755,1238,1602,1474,-456,-211
1718,-2201,976,1881,1748,1613,1807
1719,-1212,4425,4919,1946,-740,614
1720,-2002,-5668,-2081,-261,159,1599
1721,-1619,4653,-3181,-1488,-725,703
1722,2723,2133,1659,1685,1222,1798
1723,6907,-6830,7443,-1848,1685,717
1724,1427,2041,514,390,-1923,-752
1725,2245,4778,995,1836,1831,636
1726,3913,-3382,-2287,-1921,-546,-1408
1727,-3983,2207,-4035,-1439,-1632,-1280
1728,3166,5419,-5599,869,1822,-1355
1729,812,-3983,-3227,-1172,1914,-1514
1730,-4682,1795,-6037,1183,653,1743
1731,-6769,439,1861,315,1549,-843
1732,-6160,-3913,6074,-1556,330,348
1733,3101,-4276,-4172,1450,-1575,298
1734,5412,6190,5514,1244,1421,-947
1735,4303,-3167,-4032,-1534,-994,1952
1736,1427,5361,6456,-1951,-1570,1823
1737,-75,5039,-5692,1491,-1174,-456
1738,5584,6572,-1713,-776,893,-1390
1739,5371,1784,-6676,-1689,1935,-1164
1740,4927,1123,-4582,-772,-228,1522
1741,1158,-1935,-1940,191,-1581,-780
1742,5798,-3135,6507,-1398,-193,-413
1743,-7134,-5901,-947,1779,-1790,-1340
1744,4681,3745,2620,1984,1099,1195
1745,7268,3654,-1447,-1090,1979,-496
1746,-893,1976,180,-528,-1485,711
1747,7821,3248,-6815,1208,-338,656
1748,-6190,-5669,7525,-797,1846,1288
1749,1468,3816,1825,908,1044,276
1750,1836,2851,-325,639,1290,338
1751,7585,1583,4524,564,1786,-1204
1752,5250,3319,3245,-552,1541,1433
1753,1994,-3639,-5431,1311,-1059,1373
1754,3244,5509,6409,263,1305,242
1755,3302,-7580,-7779,739,-1165,-1155
1756,2781,2388,-6133,-1971,-127,-997
1757,6856,4910,2286,-1725,1923,-60
1758,4983,-968,-2385,1204,742,1951
1759,4083,-2682,-6491,-1236,1208,-659
1760,-56,2748,6408,1969,-1040,-1517
1761,-6070,5314,-703,1296,-850,-436
1762,-6620,-6041,809,-780,-1466,183
1763,54,-7495,4648,-867,-1902,1801
1764,547,-7393,-3276,-680,-1213,-365
1765,965,-6534,5448,-1579,1230,-1276
1766,4102,-2407,-2528,-728,-1225,-1220
1767,-7340,-7138,-2327,874,-1664,-393
1768,-596,3177,7713,267,1320,262
1769,-5828,4581,-3840,840,-59,-1542
1770,-3098,-6315,-650,1475,-208,-742
1771,-5144,-4336,-253,-444,337,-1338
1772,6842,5644,5310,-1114,1612,865
1773,7941,572,2666,524,-1676,929
1774,6651,6808,-1678,1059,-1620,101
1775,-4143,-2855,3074,-431,-746,1741
1776,2938,5458,-7004,-1955,-533,8
1777,3772,7828,1911,1567,1220,-157
1778,-7935,6471,5280,1245,-848,388
1779,-4461,7589,-6632,-582,-1915,-235
1780,-6441,5646,2251,4,15,709
1781,321,3289,-4236,-902,-1976,1010
1782,-7925,-5150,-5240,1054,1846,1617
1783,7700,-7557,-4081,-1826,1339,-999
1784,-2402,7415,-2132,66,1385,-1127
1785,2469,-5540,-7624,289,659,1099
1786,5672,2132,-3272,1695,1649,-219
1787,1750,-6145,-5709,751,-460,-972
1788,-3251,-4526,-1342,-884,-650,183
1789,-1190,-6680,4093,-1152,-887,-1251
1790,-2570,2088,-2362,-518,1604,1129
1791,7977,-2770,-3924,1977,-1412,-157
1792,-4718,-7865,842,-1060,1899,-676
1793,-2696,-1247,1304,-105,80,-1710
1794,1835,5146,3896,1472,225,1777
1795,-6950,-6873,-2529,295,-306,1138
1796,7058,-6072,-4391,-1421,1248,544
1797,827,2800,1740,-1344,-1903,807
1798,-3547,-6562,-571,1825,883,-1764
1799,851,-4034,-3893,-994,102,-917
1800,4479,-1103,-2484,-967,-1763,-673
1801,4812,45,1640,-877,-1431,-1866
1802,-3425,791,-2301,-201,564,459
1803,4345,551,4198,1272,-329,768
1804,3488,-4665,7482,817,612,1583
1805,6047,6560,-7292,-1125,370,-1296
1806,4943,-7850,7461,710,-946,-369
1807,5373,6493,6971,42,695,120
1808,7575,-4015,7645,1151,285,1988
1809,-7597,-596,-7446,-251,1768,1508
1810,-587,3033,5389,1238,-1590,1946
1811,-5907,2122,-1549,1271,918,-1438
1812,4300,1604,-2315,-857,1978,-524
1813,5641,-284,-910,470,409,-1211
1814,-2682,4805,3405,-20,381,236
1815,-4030,7783,-5325,-1724,-42,-1895
1816,-1641,5306,2320,-45,-792,-343
1817,6479,1724,3856,-1072,981,-345
1818,-4543,2981,-6278,-1630,1724,-1963
1819,-5901,-7229,996,932,-774,-1184
1820,3304,1621,-4732,-406,-1356,-1954
1821,-6576,6967,-2282,-688,-618,532
1822,-4123,1105,7112,-1974,367,-70
1823,-4106,2633,-3567,590,-1094,13
1824,5095,-1625,5418,233,1921,967
1825,-610,-2113,-333,-901,-1051,781
1826,6520,-779,7251,-1855,1181,803
1827,4985,5104,-1938,-648,-1120,1299
1828,7945,-7063,-815,1000,1316,-685
1829,2641,2320,-4814,-1112,882,-707
1830,3815,750,1592,111,949,1535
1831,5474,-5861,-6422,-496,1273,-507
1832,5817,-7129,6088,30,-1745,611
1833,2136,-4750,-7936,475,-1537,-1783
1834,6001,-5620,7689,-1752,932,1168
1835,1219,-4754,2765,635,-1239,219
1836,4089,-5267,4424,-270,-1322,-289
1837,-1885,-3814,1473,-1232,-1634,558
1838,1175,1681,-2397,-1372,-749,-1668
1839,2027,6826,-962,1411,-702,-1093
1840,4465,4158,4191,411,-1584,1683
1841,4893,7789,-2561,-1476,-755,-695
1842,3462,-3767,-6118,827,1724,-407
1843,-7838,4009,-4748,229,-47,623
1844,-6525,1077,-3015,-1304,1661,401
1845,-7506,7025,6327,159,112,1130
1846,-3758,2725,3626,-390,713,-469
1847,-4564,-825,-5539,-1432,-145,1727
1848,-4287,3896,-3856,-944,-1394,1671
1849,7150,-4170,-7766,632,429,843
1850,-2786,5557,2896,1552,1147,1657
1851,-2380,2945,1745,-1069,-550,-1836
1852,4990,-5898,-6089,-991,-945,-374
1853,-7065,6832,6265,1443,706,-1356
1854,-4057,5279,5693,-1095,-1087,1925
1855,-2121,1456,-1584,49,273,-1313
1856,3,1816,6260,-91,878,698
1857,-1991,732,-3592,375,500,-161
1858,-798,7836,-1523,-193,1536,-109
1859,-6198,6897,-7689,-962,-110,-252
1860,1256,-664,-6325,935,-260,-1782
1861,558,7209,816,1406,1503,-1899
1862,-5079,6588,-3267,1625,1255,1747
1863,6432,-5062,1774,-1785,658,1254
1864,-2462,-7961,3691,1339,1853,1285
1865,-3493,-4597,-2501,-1437,-6,890
1866,-2526,-5311,164,-605,-1669,-491
1867,-4835,3947,-4137,112,-1936,-474
1868,5411,-1613,6331,-1902,1734,-512
1869,3139,3142,-257,-1381,-1404,-1481
1870,-3830,3924,-3492,-128,1669,-1139
1871,-3939,4607,-7131,1970,1488,79
1872,-6910,1792,7835,-1023,-1940,-1323
1873,3425,-7907,-2172,-1760,1257,892
1874,-2047,2955,6770,500,-1229,118
1875,-1764,7744,4765,1969,1825,1875
1876,6546,7368,-7086,-576,-1457,1348
1877,-5336,3025,-4014,1588,460,-497
1878,-6452,-7612,-3638,-445,-1324,-1520
1879,2879,1875,2303,-1538,1030,-288
1880,5850,6488,-1530,780,-1383,146
1881,5760,2332,-2098,1379,-444,929
1882,2608,3892,-3660,1591,42,1222
1883,-7379,-5248,4076,123,1669,-197
1884,-5610,-6419,-7252,1053,-795,316
1885,-5849,4788,1208,518,1644,545
1886,5102,2032,3018,-1137,1928,-994
1887,7942,912,6055,-1086,-170,-285
1888,-6456,-7971,-1648,-161,-316,-1813
1889,2825,3874,-157,-501,304,-104
1890,-1469,-7465,-7599,-475,-852,-377
1891,5062,-4915,7231,720,270,-810
1892,4852,7623,-6054,-273,674,1815
1893,-5551,953,-140,-857,1899,-462
1894,-6936,-6189,448,-781,-91,590
1895,2892,615,6220,-1668,-1655,-1687
1896,-612,2973,-2020,-744,-1254,-568
1897,7794,-1052,4837,708,1017,-1084
1898,1086,30,6121,-1628,1888,1980
1899,-3134,6558,2980,-269,1203,992
1900,-7017,-6768,-6079,26,-1837,1613
1901,-7108,6100,5274,368,1,250
1902,-5453,-2439,6791,-1831,306,1656
1903,-4787,1787,-637,1777,-1478,85
1904,-6658,-7850,486,-849,-554,-604
1905,3828,-3490,-3101,-347,568,-1035
1906,7510,-4371,7723,512,539,-1135
1907,7945,-7763,-3986,-102,-281,546
1908,-3381,-1600,-5842,1366,540,1613
1909,-1287,-4676,3400,871,487,719
1910,5531,-7170,4579,-802,-1754,1115
1911,-3750,2689,7892,-1052,-240,-1344
1912,-1881,871,-7196,1503,628,184
1913,6038,-5104,7507,364,567,642
1914,-2344,3079,7590,-1977,1151,-1033
1915,7352,6276,6083,-1017,1176,-1147
1916,-3698,2152,3542,1368,674,-667
1917,-7665,-5101,7678,-246,-1483,-1787
1918,4759,-4621,6784,-841,689,1
1919,7470,-5871,1565,1204,-739,-181
1920,-5501,-6941,2149,1282,-1739,-872
1921,6365,-3205,-1924,-167,-245,-1105
1922,5862,-2309,5543,1537,587,54
1923,-2215,1909,5906,-851,1046,-420
1924,-5117,1625,-6401,774,525,-1047
1925,-3501,6080,-4553,-1781,-1753,-100
1926,5270,-5940,4700,242,-819,-584
1927,7092,4381,-5956,-1207,-516,82
1928,1156,438,-6663,-1188,-285,-1874
1929,-889,2512,3356,1331,-1871,854
1930,2243,-155,3900,219,1515,279
1931,-1678,-5993,906,1497,-731,1790
1932,3492,5419,-5453,867,1436,839
1933,-508,-5772,2663,1540,-1572,869
1934,-7573,7978,6927,1789,1168,-85
1935,1821,-6139,1734,-421,-3,295
1936,-1599,4629,-3676,1878,-1976,498
1937,-7009,-2729,7175,1501,-427,32
1938,1765,5660,5336,-500,-1920,1233
1939,4612,3389,-6107,-304,-1181,1441
1940,1812,-7345,-226,1375,553,-223
1941,-3110,1234,-5409,1555,1246,-426
1942,-6989,6294,2221,-834,1937,-1313
1943,-3948,2772,7737,-121,-1563,-1629
1944,-5813,-6007,299,1219,-336,-64
1945,-2426,5457,748,1633,-1495,-1439
1946,3034,2368,-654,977,248,-1058
1947,7612,7068,3874,666,-153,-353
1948,95,-2933,6694,641,631,-1142
1949,-5943,-7409,-3277,1607,1014,-462
1950,3419,-3404,4333,45,-1653,61
1951,-3896,2500,-2917,-1890,1734,231
1952,-412,4845,3560,133,-478,-1060
1953,-4423,7505,-1581,-551,-648,285
1954,-1600,-705,1370,-1017,1323,-146
1955,-905,2840,-7700,-1925,454,912
1956,4745,5261,2024,608,-756,-948
1957,-7362,-327,-180,-1576,-752,1052
1958,-6867,4609,6752,-815,324,526
1959,-7471,-2498,-5677,1745,-204,1494
1960,319,5015,4316,1576,-1888,1436
1961,-1292,-4408,-3315,-1353,108,-758
1962,-4196,-6159,7176,1251,-1712,207
1963,2065,-7702,225,-948,-274,835
1964,-6260,-3409,7033,1984,-1840,285
1965,-920,669,1416,-1387,-25,1500
1966,-5987,-24,-5709,-102,-1812,-783
1967,-2804,-6153,-3143,-1215,-1839,-1831
1968,-4831,2100,-2784,725,295,1808
1969,1023,-5127,5847,1893,1304,979
1970,-2958,2429,5115,-1056,1301,-94
1971,-2091,-3101,2146,1356,1660,-309
1972,-6944,-3001,-7192,-972,1175,1816
1973,5920,-5982,-1831,-1689,-1741,-1021
1974,-1811,-4784,-3378,1832,-1276,-1927
1975,-4969,-4607,177,-509,-1631,167
1976,2886,-2801,-4644,1221,1880,223
1977,-316,953,7595,-951,250,-230
1978,7652,-1619,6604,-1583,-156,-71
1979,1420,5027,-4021,1197,200,1711
1980,4009,6978,1228,1545,-1302,1818
1981,1670,-7137,4765,-666,542,863
1982,2374,-5156,-2301,-1754,-1689,1075
1983,-1843,1928,-2406,1670,637,-268
1984,3867,-5777,2833,-363,-639,928
1985,5388,-5713,-7619,715,-1460,-1418
1986,2512,-5911,-6256,661,-69,-451
1987,-5882,-624,2571,120,-1801,1647
1988,6420,3129,-3228,199,1228,-1421
1989,-1606,-6208,6781,435,555,1391
1990,6275,-960,-1513,-1843,-647,1238
1991,-7944,-4428,6217,112,361,-1306
1992,746,-269,3665,-1824,341,-782
1993,-6795,6502,275,403,1033,-1104
1994,2521,-1120,2942,1281,383,741
1995,5417,-3964,-7866,-1169,845,618
1996,1645,-6478,-2750,-439,-822,-885
1997,-4234,-6940,-4464,93,1127,434
1998,-500,-2368,-4126,1613,-424,-38
1999,-6097,6015,-7751,-421,1390,126
2000,6064,-3744,1333,86,-1029,761
2001,-694,5123,-4944,1016,620,-130
2002,-585,2607,4486,-1882,223,510
2003,-6891,-180,-5692,462,-935,-122
2004,-5708,-5577,7249,-1634,457,-1102
2005,-1275,1136,2177,374,-1725,1463
2006,-1692,6352,-6873,1550,-874,-1164
2007,-3879,2102,-4024,1183,869,732
2008,-5034,-5856,-5367,1963,-1662,1655
2009,-4772,7381,-7808,-1003,272,-743
2010,-4875,-1936,2330,1387,23,366
2011,-4415,42,-5740,-619,-84,-1431
2012,-1854,867,6591,819,-1983,-1869
2013,-1801,-1117,-5087,1303,179,773
2014,-4303,903,-2630,-639,-601,-5
2015,379,-314,5269,-973,621,1491
2016,5890,-6018,658,-1779,-1604,-525
2017,5078,-3690,-6030,981,38,-1826
2018,7519,467,-5937,1834,-888,636
2019,-3672,-2124,532,1470,-704,-352
2020,-4389,-2311,6142,-359,1034,-617
2021,6733,-108,-4867,1018,-18,613
2022,1587,-4039,-371,-820,-61,370
2023,3910,1048,-7068,-1498,-343,-127
2024,3119,-1353,-1734,-1380,-1225,-1227
2025,-5770,-4379,4288,-1103,1281,1687
2026,4675,7660,981,562,-172,-934
2027,6765,-821,261,581,-1662,1623
2028,694,-5637,-7157,-298,539,779
2029,-2167,-2421,7999,602,-592,-1244
2030,-2600,2034,6968,-114,289,-485
2031,4103,-3336,5828,-37,713,-729
2032,3894,3656,-5393,-288,-400,155
2033,-2345,4749,1218,512,-1345,-1328
2034,-5471,-7814,4686,1728,297,131
2035,-5148,5532,1513,439,1784,1481
2036,-6244,-1588,-6478,1268,-267,438
2037,7553,1394,-6125,-1496,-646,447
2038,6676,-2521,-3592,-570,-1353,-309
2039,2225,3353,2866,-1738,1446,398
2040,-7168,4711,-7524,9,-73,461
2041,-2798,-2008,-2963,1036,-558,165
2042,-6157,4633,-27,374,-1301,1551
2043,-5305,-5357,3271,888,1415,-584
2044,5923,2472,7625,643,-506,-383
2045,-829,-6233,302,554,845,1119
2046,3414,-7837,-948,1004,1468,-291
2047,2132,-2076,-6069,-1888,1334,1547
2048,2163,-4777,4717,1937,11,-1822
2049,-1341,968,-4666,1634,-1592,-839
2050,4499,600,5867,1029,1713,-128
2051,-7915,6491,1197,-1550,1887,-1140
2052,1005,2182,-4164,1040,1483,-1523
2053,-18,4453,-2577,800,-766,1110
2054,2152,-1144,3906,1408,323,16
2055,6699,-3411,-6310,862,293,-1849
2056,6728,2761,4270,225,1564,562
2057,4846,-2442,4873,-1404,-1598,1425
2058,2729,-4296,-503,-642,-647,1369
2059,-4924,-5554,2601,1302,1247,-287
2060,-5129,4230,-1139,-1994,1567,-833
2061,5320,2083,-2523,544,-307,1045
2062,-1974,1561,-2467,-1384,51,595
2063,-7111,-7586,1129,542,-1934,5
2064,5710,-3071,7612,1751,-7,22
2065,2349,2688,3925,-1673,709,-1275
2066,-3573,-2588,-7769,-477,-1705,-509
2067,-5696,263,6322,-1364,57,-1929
2068,-391,1060,6914,-1647,1711,-462
2069,7809,871,7048,-1585,-466,-1593
2070,-6782,-4502,2814,1555,-1263,986
2071,-72,-1715,-5690,-1899,-1696,-127
2072,-132,-7049,-5327,-1249,724,161
2073,6627,-1105,-6707,550,-56,-1564
2074,-4539,-4431,928,-504,-1177,-325
2075,3735,-34,-3847,97,-634,30
2076,5052,-3707,-2840,-1335,-203,-494
2077,-3282,3566,3146,1939,-1089,-1127
2078,-2462,5900,530,-1038,1042,1633
2079,-7525,-2058,-5110,-1772,86,-140
2080,7439,-3455,4055,-621,638,1873
2081,-5868,-3119,7348,1316,305,-986
2082,-5449,-268,-296,619,-176,-114
2083,-3212,6583,-1688,547,-1455,-1988
2084,-3907,2196,-3498,36,-92,-1382
2085,-3353,3802,643,844,1727,-1197
2086,-7443,1151,-2519,-841,696,-1461
2087,5558,4878,36,101,-945,-1374
2088,-6201,-2275,-7208,807,978,-1293
2089,-1569,5308,4607,-333,1084,-1128
2090,-7871,6940,-6738,1534,-1093,-1969
2091,1582,-2896,-7422,196,1170,-1311
2092,-7213,3994,-106,-452,1544,-1518
2093,3514,4349,1058,-487,1798,-1200
2094,-3872,-6582,4269,-1782,-959,105
2095,-5672,7836,-4538,-529,-827,-1733
2096,-6095,1826,-1630,484,-1041,1771
2097,2387,-6152,5357,-1116,151,1734
2098,-1452,-5502,5353,696,1543,-1642
2099,-629,6792,4107,-1929,1476,-480
2100,-1496,-6266,1945,-471,1731,99
2101,-4767,2469,-5934,1476,726,-102
2102,-4959,3365,-2834,1818,-823,-904
2103,-6258,-2896,5242,-1569,-809,-289
2104,2837,-5772,7771,-1217,480,1713
2105,3657,-6412,-3485,-1811,-283,239
2106,78,-913,-7000,-728,-325,417
2107,1684,5116,-4099,-391,1101,1582
2108,-1786,-5257,155,-624,-1086,-175
2109,-7496,6301,-3180,-1076,1797,897
2110,2800,1956,61,-654,133,-1583
2111,-1912,-5656,7628,-1412,-695,80
2112,3457,-3176,-2565,-1747,-1567,564
2113,-6009,-911,-7598,-690,945,-179
2114,5785,-3802,-758,-30,-1264,-1442
2115,1322,4273,-574,1092,-1360,7
2116,6635,182,-4722,1462,389,1160
2117,1609,-6249,1924,-1464,1949,-664
2118,7158,-6504,643,-1185,-1750,-926
2119,-5059,2387,-3143,-890,1383,27
2120,3477,-4123,4817,-1939,-1963,1120
2121,-2624,-1040,-7843,-341,1677,-564
2122,3294,-6701,-3318,1662,-1365,883
2123,4792,4527,925,-1824,-1262,-1669
2124,-7826,-3528,5588,1096,1583,-1857
2125,3430,1053,7089,1000,1933,-562
2126,-4734,7568,-5097,1834,103,223
2127,6226,22,-137,-1588,-1829,-683
2128,-2990,-4469,4157,1487,-1457,-547
2129,3258,-6522,-5433,-1713,-557,641
2130,6984,5010,-1097,1506,-1878,-145
2131,-4529,-5930,1597,-12,1437,-1166
2132,3286,-2132,-6882,-18,708,1809
2133,5555,-5716,-2782,-1842,430,-1892
2134,307,6111,3151,-1476,1888,-1510
2135,2108,-2715,-7152,-477,-806,672
2136,-608,-6865,-3034,-246,-621,-867
2137,7536,-5045,-3652,-383,1510,1036
2138,4445,5591,4430,1961,-1414,1310
2139,-2766,1346,4794,-1646,-1983,891
2140,663,-5309,4043,1227,406,-259
2141,1698,-6998,-5430,-673,-1739,1217
2142,250,7547,3180,-824,-1014,350
2143,5869,-4491,878,1721,-239,-559
2144,-313,1159,2559,1994,-1232,1658
2145,2180,410,-2399,875,729,-231
2146,3426,5102,7271,-438,-1023,1023
2147,4864,-4050,4500,-336,219,1146
2148,3979,7801,-4215,-520,263,1475
2149,7489,-4992,-5626,-1006,-1617,-1988
2150,-6856,1410,-3411,-965,-1737,-859
2151,-7486,3914,7377,-1778,763,-1258
2152,5637,-4401,-6795,705,450,-488
2153,-6645,836,-4705,-641,1240,-1274
2154,-7593,1124,1702,1565,-1498,1360
2155,6359,-2196,7554,731,-722,1415
2156,-5395,3499,481,100,-727,-638
2157,513,3379,999,642,-1089,1773
2158,-5648,-162,5162,449,-869,753
2159,-5742,-4942,-176,1390,-1686,-482
2160,3817,-7975,6173,870,1057,-1621
2161,5472,77,-7467,1267,279,928
2162,-1098,-6804,-2190,1448,1123,-1068
2163,-4213,-6137,1996,-1542,657,865
2164,14,5070,-1246,633,1608,1654
2165,2357,-3010,1237,1260,-22,290
2166,-380,5132,2822,-718,35,338
2167,-6778,5563,3026,-198,937,1964
2168,326,-3,469,-816,-302,1759
2169,3419,1799,-6539,-1144,205,1900
2170,2706,5043,-4808,460,-746,-1856
2171,2567,2761,2084,-1673,-386,-1936
2172,2674,-1876,2236,1613,615,494
2173,6250,7190,-5967,-532,1568,-400
2174,913,790,-7638,687,-986,1127
2175,1887,3280,-6048,-992,-960,-14
2176,-6742,1407,6597,1922,-1488,544
2177,137,-1618,-6607,-1176,1290,183
2178,-6362,3201,-6172,1452,-1835,1564
2179,1503,3942,-2741,-1038,-49,1119
2180,-1005,-5156,3475,145,-1968,-1905
2181,2127,6678,4383,-1743,653,1835
2182,-4525,-5413,4696,-72,69,1029
2183,-5288,2255,-2318,528,-1039,-310
2184,-2789,2635,-2326,294,1652,851
2185,1660,2546,2664,-529,-1435,721
2186,-3830,1503,-66,-458,-1600,-595
2187,1850,1750,5303,608,-1633,736
2188,3693,-4445,-2408,-997,-503,-1974
2189,128,-3687,7638,-1391,299,-972
2190,7023,-4190,-5780,-1576,-1922,-831
2191,5291,2222,7709,-7,1255,-1772
2192,-4272,3716,-1728,-1469,-978,33
2193,-5881,7232,4349,-1823,710,1878
2194,5832,1921,-156,-805,1879,-1260
2195,-1321,-737,7693,321,447,-1025
2196,-3011,156,1864,-1396,932,633
2197,-3442,-1677,5120,113,-1235,-54
2198,-6955,169,-4243,124,209,125
2199,4451,1234,-2725,1218,588,-1638
2200,-3516,-7049,-6303,-1539,252,-1252
2201,-1004,-3741,2378,-1260,455,1111
2202,2856,6901,-890,-810,1573,-380
2203,-5542,-1829,6575,-1437,141,-1417
2204,-3154,2690,2822,-1661,1340,214
2205,-3486,-6070,-6757,684,662,578
2206,5391,83,436,-1754,991,-105
2207,-2679,2245,-3683,1765,1934,1788
2208,-5209,-2061,-7787,1891,-386,-196
2209,6619,6806,-6551,-1432,-1276,-796
2210,-5030,-6717,-7321,-1599,-242,-1416
2211,-6000,3158,-7219,410,-421,-222
2212,-4548,-5457,-645,-361,252,110
2213,-7358,-5497,1204,250,1098,510
2214,2099,5848,5296,-1356,1025,-761
2215,573,5522,-139,1803,1994,-476
2216,7674,4612,3948,1292,792,-1416
2217,-7855,4962,2820,1539,-231,-1200
2218,-7681,961,6001,-112,-1822,-76
2219,-7293,777,-1436,562,-1272,858
2220,1176,-2922,-3916,-1596,337,-1038
2221,6837,-2031,-7428,-1591,347,129
2222,-1200,-6272,-6580,-1824,-1575,951
2223,-3487,1443,-4186,-849,-1994,-216
2224,5755,-1933,-3806,-153,-822,694
2225,1209,3929,585,-970,1086,624
2226,614,5909,4277,-488,1347,-1616
2227,5080,3586,-1874,15,731,-1722
2228,-1571,-2138,1331,-1075,-711,1425
2229,7937,-1551,877,-906,-818,398
2230,-4726,1551,1599,-1569,1323,-1540
2231,2661,-5880,4218,-202,713,1828
2232,644,-2680,2564,-482,-134,-653
2233,3712,-6270,-417,-1744,-1429,-1457
2234,-524,5216,-5751,922,976,-611
2235,1329,1903,2294,1270,-1028,1312
2236,6190,-2857,-5885,-1490,96,343
2237,3507,2294,-2800,141,445,-698
2238,6363,256,-2280,1839,1672,393
2239,6764,-4967,-4226,1960,-84,1535
2240,2315,-6072,-4587,-320,1575,889
2241,-6420,-4555,4584,-978,1521,-1886
2242,-3889,2240,7398,143,1284,558
2243,-5924,-7000,-2972,-1195,-1877,-1947
2244,-6938,450,-2775,656,110,600
2245,3082,-597,319,-1590,-999,-804
2246,-7578,-4055,4311,668,507,-182
2247,1877,-7578,-5586,-867,555,1243
2248,6969,5342,-6088,1695,1984,-956
2249,-3336,-5700,-7124,-14,632,-781
2250,-1391,-3014,-5568,-342,1485,667
2251,-2828,-1514,125,-1897,1383,-1453
2252,-2495,1168,2128,1855,-1625,734
2253,-5190,-6223,1286,1890,203,-1741
2254,1796,5888,-5199,533,1833,157
2255,-7122,-2335,363,-138,-1686,52
2256,5436,6484,-2592,-157,-1122,-208
2257,-7323,4233,2385,-1969,-538,758
2258,6703,454,-2987,-925,1189,-1860
2259,3755,3765,372,-938,683,540
2260,1915,4667,7933,-1544,-995,565
2261,1055,2545,492,-1126,1507,1188
2262,-2519,-7651,1366,-1915,818,-604
2263,-3022,-851,893,714,-1431,-825
2264,7812,-3586,-4422,1957,1709,-404
2265,-3320,-3450,-1620,1634,-1459,553
2266,4914,2230,-7879,1339,1027,1031
2267,-5475,-996,-5867,885,-992,-57
2268,2328,-3450,-2523,34,563,946
2269,860,-5923,-5821,1305,1159,-319
2270,-3602,1810,-6022,-1464,1789,-1295
2271,-5566,-5772,4231,-49,-12,1847
2272,-4129,-4571,-7068,789,1458,-1638
2273,4251,2601,-5162,-1696,-1909,-879
2274,6528,5245,4527,-1600,-294,-481
2275,7636,-1872,-2712,-417,-1475,1153
2276,-7599,5891,2265,-145,1830,566
2277,-297,1990,-6552,-99,1710,1884
2278,2940,-532,-3283,1578,1512,-1645
2279,4483,-2450,-1960,202,754,-1085
2280,1138,-5938,-824,-1066,40,-53
2281,-2491,4596,7619,1809,-1540,977
2282,3385,-3122,-2575,46,-1536,-1859
2283,-2014,-5611,3749,662,-1949,-1370
2284,-613,-4674,-7281,-1184,-69,15
2285,1596,-796,329,107,1057,-618
2286,-2654,5946,456,-1415,-279,1890
2287,-1502,5258,-2671,-260,-1268,-1936
2288,-3644,-559,450,1715,-987,-312
2289,6895,-4554,7575,449,1268,1518
2290,-1605,-1970,1055,-991,22,1431
2291,-1294,6414,-1832,-1290,368,255
2292,-2194,-6785,-1352,-1529,-1928,-213
2293,-1402,-4610,-643,329,300,-1802
2294,5141,851,198,128,1843,-437
2295,3152,6034,-4021,-1530,171,-239
2296,2195,-5991,-6838,167,848,1319
2297,7762,1990,-6284,1223,156,385
2298,984,7234,-5354,-1281,-168,955
2299,-7590,-6273,-920,413,1776,840
2300,-7001,-2118,-4224,-1198,1424,486
2301,4339,7416,4365,1797,-1443,-260
2302,-5284,-1088,706,-168,-1748,-947
2303,5667,-249,-6846,1761,-1486,-952
2304,-5711,-4888,3161,263,100,-1978
2305,-16,5690,-6833,-515,669,-1795
2306,4956,5674,-2198,-1545,101,-626
2307,-4110,-2127,7072,-533,1010,-1110
2308,-62,4293,7795,-635,1704,846
2309,-3757,4139,5393,-1980,1339,358
2310,3304,6395,2798,-1016,221,1230
2311,-2261,5837,4615,-1465,-1081,1430
2312,6592,-724,1924,977,-184,1946
2313,6002,7408,-2930,1652,1478,-1121
2314,4321,-1286,7096,803,754,-1955
2315,-5947,5204,7511,-1367,-1472,1069
2316,7738,4769,-3387,1922,813,-1710
2317,-7353,1180,-3047,-1144,-346,-446
2318,-2944,4283,7935,252,913,-1735
2319,6073,5093,922,1752,-1056,-456
2320,4221,-3810,2953,-1858,-516,1641
2321,2112,-7966,-7672,-443,1407,-516
2322,-5450,-3448,-5344,188,-1691,1463
2323,2725,1433,-2430,1867,1238,-1235
2324,-2382,4416,-2370,-273,1017,1954
2325,1705,1479,-2461,-693,-242,1732
2326,-948,381,-5516,207,989,227
2327,-3068,-676,-2636,-925,1983,-473
2328,-5367,-4195,6298,-1240,-1316,934
2329,-2191,-4747,-3036,-1215,1405,-62
2330,-5691,2861,856,58,-308,1591
2331,-5405,-2282,5627,-1521,-869,777
2332,6406,441,-5903,-951,-333,-53
2333,-7623,-1896,-7050,1829,1854,1014
2334,-3832,-1698,-5666,-70,1442,-1619
2335,-3370,6101,4152,-1529,-717,-1442
2336,-3066,-7780,3202,-850,-1008,-1706
2337,-4826,-4782,-1834,-977,-613,310
2338,5998,-2857,-6090,1552,-1846,1068
2339,7439,744,6840,-1454,697,575
2340,-6722,4199,-3141,-750,844,1619
2341,-1383,-1773,-2235,1602,-773,35
2342,7454,131,-687,-464,583,275
2343,431,2333,7334,1107,754,128
2344,-814,-7304,7694,-1127,1345,-824
2345,5512,7678,-1829,1580,1209,559
2346,-1653,-3193,6706,1777,699,-130
2347,-4421,4128,5060,1384,1342,-984
2348,2788,-7930,-7470,325,-1153,1486
2349,5705,-7526,-2404,1812,1867,-370
2350,-4963,4532,-5705,526,1062,625
2351,1806,-5450,-2977,314,-1644,-1649
2352,798,4496,-768,1480,709,-334
2353,64,16,6712,174,-1583,-423
2354,-5351,6271,3764,472,160,-289
2355,1868,5128,6357,-1812,603,-833
2356,-5976,4424,-6505,1063,-1368,341
2357,5728,-3631,-6680,1543,1552,229
2358,6331,4742,-5756,-1190,-588,-350
2359,7237,-12,-5520,-1263,1786,-228
2360,3787,-2072,-6701,1606,-351,683
2361,-2199,7241,3995,-1305,962,734
2362,7136,3135,-558,-1590,714,-1836
2363,-3720,-2860,-5488,-1313,656,-988
2364,1541,6440,-3340,271,-1194,1696
2365,7472,2929,469,1844,-615,-164
2366,5178,819,-3520,1470,-197,1154
2367,-1404,2113,-3527,-1823,613,-1583
2368,-2949,2132,125,-759,1984,-773
2369,-2411,5215,7956,1500,-1364,-1784
2370,871,-1676,-4497,-204,1600,1936
2371,3208,-6271,7728,-500,1587,709
2372,-2750,852,-7180,-450,1945,475
2373,-832,-3759,1179,694,-1893,1382
2374,-4987,10,-6628,-1750,1118,1103
2375,-1742,4505,3900,263,-943,-40
2376,5427,5077,1484,407,-1709,-1316
2377,-5151,-2783,1692,1441,-777,-1806
2378,2092,-1857,-4876,-773,-1810,-1834
2379,5915,2356,600,1911,-324,-1663
2380,-2415,124,7514,266,1266,1426
2381,4075,-5379,-7376,-1632,-1347,-338
2382,6278,-7675,-2702,-1477,-178,-651
2383,2271,2770,389,123,-1977,270
2384,7459,6160,5701,-1682,-848,-1669
2385,7556,2731,6195,1798,1295,-249
2386,-3107,-4567,3422,1404,-242,-1241
2387,754,3467,-704,-1608,1683,-711
2388,6802,-3367,-4277,1222,1430,-482
2389,6942,-180,-630,671,1252,-1228
2390,-2538,6465,-254,-1446,363,-33
2391,-1728,-3645,-2220,515,1081,1409
2392,-1219,-3211,5465,-834,-651,960
2393,3039,5806,-3589,-1028,-1945,-196
2394,-7580,-5982,5539,1831,1319,-1340
2395,-2686,-7328,-3743,1934,1946,191
2396,4606,-1925,-2996,-824,485,554
2397,2343,-3403,-2988,-742,473,-1718
2398,1644,3835,3721,660,185,-1333
2399,2587,500,-1572,1450,156,1636
2400,4580,5957,-688,208,169,-1026
2401,-6074,-7188,4492,-192,-1575,-1399
2402,5819,3970,-5729,558,-1585,-1033
2403,6171,-1767,-4452,-884,-1051,-481
2404,-7011,5535,-4761,773,-1353,-1273
2405,-6543,5569,-6636,811,-1697,1056
2406,-5723,-7404,-6132,685,-1375,764
2407,6089,-5778,-4726,210,-1720,-645
2408,-4864,5243,275,-1435,-1017,-583
2409,5084,-5088,7599,-1933,-104,1610
2410,7452,-7142,-5021,-1354,-1787,-1604
2411,6601,2920,3615,1260,-607,-483
2412,2267,-6101,6163,1683,432,71
2413,-6330,-2680,-2525,-327,1080,77
2414,3415,4977,6685,-310,739,737
2415,-3224,-4478,2354,383,434,-696
2416,-1885,1016,-3693,-212,1546,-1044
2417,4276,-7105,-2888,655,-475,-1758
2418,3634,-4231,4280,615,-1605,-1552
2419,-4573,6500,92,-1769,-982,1871
2420,-5135,7990,7659,614,-1948,-1029
2421,174,5138,-5942,882,1099,378
2422,5368,4288,1010,-1536,767,1988
2423,-2802,739,-7959,-1359,-312,1230
2424,7766,-415,4724,1389,390,-547
2425,-3670,-5806,-6441,71,-1349,-323
2426,-7420,-3748,919,-281,848,-948
2427,7395,-5846,-1378,395,606,1492
2428,-4275,3368,6282,-814,986,1232
2429,-2522,-4170,-3196,-1970,-841,485
2430,4069,5105,-5275,-1521,-838,1923
2431,-3409,6383,7457,-73,-158,913
2432,-3097,3790,-4153,-792,670,-223
2433,-1309,-7910,382,-1382,1836,-589
2434,-4414,226,5032,811,983,-1696
2435,1589,-1261,-230,-1407,-1003,1610
2436,1152,-3540,3907,-364,1769,-709
2437,-3510,6504,-2732,-440,1302,1624
2438,-7904,267,-6554,1508,-248,-970
2439,5292,-3392,-7197,-542,1015,-1404
2440,-5821,-1174,-3171,1422,1805,-80
2441,-2619,-588,151,-259,139,-656
2442,-3303,-7356,-3506,-418,1014,1629
2443,-2299,-6482,1581,-674,-213,1225
2444,5664,-5989,-1991,-35,743,-1453
2445,1572,-289,-2979,-141,-1193,-1864
2446,2107,-7522,-5047,175,1558,213
2447,2897,7392,6231,1184,-1041,805
2448,6663,6009,-121,482,-102,-1369
2449,4475,7163,-749,-1565,399,-510
2450,5556,-895,5998,1320,-681,-431
2451,7409,-2410,2972,443,780,-706
2452,761,3323,4098,-843,-867,-1252
2453,-1735,-7754,-4297,-395,-567,-1349
2454,7143,5730,5393,865,19,-1975
2455,-7595,3359,5056,1885,-1393,-1387
2456,5529,-2740,-925,-1596,-1525,-340
2457,-458,-5873,1332,331,-1116,-1285
2458,-3529,3356,-4306,-808,563,-942
2459,5685,2204,2322,-744,-436,-1105
2460,-7852,-3920,1479,497,-869,-1266
2461,369,4964,527,233,1070,78
2462,80,496,-262,633,514,-1777
2463,7059,7967,257,-1328,1905,1216
2464,-5082,2559,5375,-1101,86,1114
2465,3007,6427,-6423,-1293,1983,1674
2466,-1712,2339,-5846,1177,1061,882
2467,4164,3968,-3534,-1919,719,-1758
2468,-3578,-7118,4086,1773,1823,345
2469,1469,5682,-1149,-1541,-601,-1703
2470,5376,-4332,-6325,636,-1632,51
2471,-1767,-4512,-5480,-759,-1400,750
2472,-4111,-1307,858,-1683,-806,79
2473,5297,1235,-4903,-1591,-429,1626
2474,-667,-158,-4421,1114,-1462,-819
2475,-4441,2782,-2244,-155,-1879,-1410
2476,3262,3095,876,-1888,1949,313
2477,169,-4943,420,-351,-1982,309
2478,-4722,-4470,5721,380,757,718
2479,-6386,-259,-3226,543,568,139
2480,1557,-630,-5662,-1640,-34,-1041
2481,-6521,-5996,-4782,-414,-1114,-1222
2482,-4221,-6793,144,672,-1165,-1212
2483,3017,-1625,-2183,-1802,-1575,-1985
2484,-446,4047,-6057,-1458,-1693,1844
2485,873,3160,-2237,-1789,1527,-1810
2486,5070,3540,5724,-1825,1084,1291
2487,-1362,-2010,3514,87,935,-1317
2488,5096,968,-832,-1822,-318,-1286
2489,-4414,409,-5774,43,-439,1943
2490,-5809,-6501,-4915,-1398,-638,1355
2491,-2716,7496,4496,1571,-1329,-1567
2492,-6815,-5540,-6410,805,-558,-1333
2493,2484,5282,-3335,107,-442,-652
2494,1754,-4616,7988,234,-1401,-969
2495,-5170,-6109,1963,1069,156,-791
2496,7362,5175,87,-1129,-1409,178
2497,5412,7491,5230,1447,1302,245
2498,467,-2927,2272,-19,782,-446
2499,-3660,-6062,5526,-1977,586,1471
2500,-4140,-1296,-7997,-1382,-1437,-1346
2501,-3203,-1423,350,-1460,-588,76
2502,5681,630,-1892,-1632,-48,705
2503,660,930,7502,1246,154,-460
2504,-3651,-3030,5744,-691,860,713
2505,7050,3412,2981,-1760,-636,-108
2506,-3122,7613,885,-443,-1531,692
2507,434,3379,2279,-710,-1491,-1768
2508,702,-422,-4301,1530,-754,-420
2509,-1616,6331,-3166,-1853,787,1572
2510,-1719,-4144,-6426,890,732,-1997
2511,7353,4576,4143,560,-38,811
2512,-7505,3788,-2021,-1791,557,1778
2513,1151,-7910,-7888,912,55,1452
2514,5648,2187,790,-323,-1091,1636
2515,7224,736,-36,-642,-616,479
2516,-6845,-1907,-6655,428,1180,-817
2517,-1918,-7931,-4814,-38,711,-1231
2518,1096,-1868,-5587,1268,-1572,-864
2519,6501,-3650,-5219,-633,588,-146
2520,6584,-7580,6019,1982,-1544,-1303
2521,-1720,5022,706,340,866,-1001
2522,3078,-3508,-1237,-1888,-1512,332
2523,7466,-7726,2552,341,-1487,-488
2524,-4043,-3267,4333,555,-1355,1208
2525,7017,6457,213,1301,1015,-1359
2526,-7618,1589,-3882,1792,529,-1287
2527,6833,1647,-3377,871,-472,-1589
2528,-1631,3921,-5181,-20,-446,961
2529,-2648,7102,419,652,1548,284
2530,-4226,-7078,1941,-954,1567,1277
2531,1281,2698,792,201,1203,-1073
2532,1590,-2780,-7483,-739,1762,711
2533,5191,6480,3009,130,-1818,-1512
2534,8,-1198,-4500,1045,-1631,947
2535,4418,-4428,5328,-1946,1227,-1683
2536,-3675,-3896,1604,-1961,-1217,1458
2537,997,5122,-632,1571,-1368,1137
2538,3570,-1555,-6861,-1055,198,-746
2539,4736,-3498,-3774,-1176,-594,-1415
2540,-2369,-376,279,-503,-1217,-859
2541,7180,-1549,-7073,1465,1747,1155
2542,-7303,-2278,6326,-680,-1345,1943
2543,4954,-6841,-4043,-1133,-36,-707
2544,2045,-5087,-6528,1290,-864,668
2545,-394,-1071,-2212,-1020,-927,-210
2546,6728,2111,-602,-1670,1842,-451
2547,-1149,5080,3718,-543,1695,-1283
2548,6804,1730,5474,-1164,855,-1161
2549,-6285,-78,1831,-359,-732,-569
2550,153,-5539,-6263,-92,1349,1726
2551,7945,4118,-3997,-1056,-995,1771
2552,-4880,-975,-4179,1609,-1388,191
2553,-3549,7986,-2528,-1382,-1711,1682
2554,-2759,-7852,-7202,-1400,531,1150
2555,7887,-3961,-6974,239,248,1751
2556,3587,2121,6053,76,-1992,330
2557,-5035,6640,819,572,-92,1233
2558,-920,-4089,177,-1913,-825,-68
2559,2372,1265,5278,-1052,457,-1498
2560,1711,7806,-1099,-163,-110,-385
2561,4124,5121,-6068,875,1260,-1493
2562,5074,6112,4548,116,457,750
2563,-7063,1272,5141,179,479,196
2564,1406,7811,2339,-311,1992,848
2565,2572,-6628,730,-329,1935,828
2566,1371,-7285,226,1842,-488,-1168
2567,-614,-1687,-4227,-791,-883,146
2568,-3093,-1590,6322,-902,825,806
2569,-4401,-2665,-3755,1507,1320,548
2570,-2116,-3725,-3178,-480,748,-618
2571,1354,-841,-676,-1019,-1842,-259
2572,1549,-4021,5654,343,1503,-1016
2573,-5094,-4170,-4732,14,1047,-1005
2574,-2217,743,3332,-1356,-202,983
2575,-7474,5564,2322,-1017,-459,861
2576,7951,419,-2051,-1625,-1091,-1871
2577,220,-400,4110,1234,487,1135
2578,491,5219,-5056,1410,-1960,538
2579,2931,5199,-4491,1016,1526,-1026
2580,-4019,3720,1675,-815,-823,1458
2581,3660,6811,-4193,1985,-305,666
2582,6677,785,4216,-1719,-1690,-176
2583,-7752,4558,1836,883,-991,-444
2584,-7281,-3238,2756,-1487,-548,-1808
2585,6447,1200,-5140,-1682,1360,-1902
2586,-6786,5375,-3427,-510,574,-282
2587,7268,2866,6468,960,650,1131
2588,-5895,-3059,4148,-1543,-172,-954
2589,-3994,-1676,-381,-525,1250,347
2590,5450,186,4310,-190,-80,-130
2591,7894,-7794,-6166,665,-1202,1119
2592,3574,-2562,1173,-926,-1920,1649
2593,4163,-5033,900,-560,-1803,1455
2594,4108,-7174,-360,-1026,-1698,-705
2595,-5951,7787,4224,-812,-790,1112
2596,-3975,-1602,-5973,1847,1699,-234
2597,-5548,-6954,-6007,1902,1118,1800
2598,6466,-3399,-6800,1008,253,-1818
2599,2508,360,-6906,-1368,1015,87
2600,-771,-2705,-3364,1876,1927,-1957
2601,-1369,5934,-2329,19,-918,-1478
2602,-2246,-2134,-7805,1419,-1937,293
2603,-860,7861,-3690,1237,1992,644
2604,-5492,-4118,1147,-1170,1932,1135
2605,-1362,7828,3170,-1662,1840,842
2606,1984,-3074,-3038,-1182,-51,153
2607,-6453,-6012,-1030,733,-1118,-742
2608,-4021,859,-1744,1206,1511,1983
2609,1786,2956,5534,-163,-1389,-1999
2610,6134,-641,-3407,1738,-1595,852
2611,6301,915,5398,-1648,1010,-929
2612,7243,-4618,874,-1232,844,1209
2613,7536,-3375,7486,-1271,-1585,709
2614,4463,-4478,-5249,-1080,-535,820
2615,1047,194,-572,312,1770,-339
2616,203,7233,3751,-310,-391,1415
2617,4749,-2270,6036,601,-1263,358
2618,-7486,5041,1266,1662,-655,424
2619,927,-3752,-5577,912,-796,-1574
2620,3893,-3233,-5683,-78,1727,715
2621,3839,-7870,-2326,1665,-865,-1438
2622,4880,-3139,7108,1000,-282,406
2623,-4627,-7274,5012,134,-1181,351
2624,-4389,-712,-1704,-402,-22,-1374
2625,2204,3326,1721,1167,161,-55
2626,-4419,-5055,6151,-1074,1910,-810
2627,1210,-4630,5688,1307,1260,-1791
2628,-2620,-4791,4469,-656,-137,998
2629,-6496,6687,1934,318,-32,-1982
2630,5702,4899,5767,-56,-1678,-1781
2631,-2858,6068,1940,-1844,-333,-1794
2632,-1371,-6431,5491,-1308,-1819,-421
2633,617,4552,5627,366,-1404,403
2634,-6689,-6468,-1871,-159,-1931,1741
2635,-6660,-3396,5648,-1483,1691,128
2636,-52,-2834,-465,-1889,503,534
2637,6219,-2921,-456,824,821,96
2638,-925,436,7608,-428,1369,-454
2639,-5024,1657,599,-1605,1195,1314
2640,-5885,-6564,612,-1091,-1586,855
2641,7834,4807,3537,-128,-1531,-1753
2642,-1532,-5917,1737,837,314,594
2643,2081,-1225,4911,-290,313,1723
2644,6275,-7620,-6998,-751,-1792,-107
2645,7441,-1273,-6364,634,-1803,1778
2646,7602,-6293,2883,-1846,1588,-1918
2647,1147,-5920,3567,123,-1753,14
2648,-2946,-5509,7552,1152,98,454
2649,-4777,-2998,1344,-760,-414,-1774
2650,4096,-3381,685,-1476,96,1216
2651,-6969,7574,-7009,474,618,192
2652,6488,6812,2187,-1466,-1616,-923
2653,576,4594,-1821,-1217,-436,-864
2654,4589,-5392,2585,258,532,800
2655,6823,-3303,2715,-1552,1693,-1682
2656,3383,3642,6053,-1959,651,-887
2657,5998,4487,395,-300,1701,-942
2658,-3690,-1744,-5031,1661,846,-737
2659,-5115,-2121,7190,-632,-116,439
2660,-680,-6753,3817,-1996,1064,1008
2661,-7379,-3296,3097,622,-410,1314
2662,3735,2360,6792,-991,1812,1376
2663,-425,-1075,-914,1888,1428,60
2664,1216,-6800,5246,1492,-1267,-763
2665,7610,-7481,-7834,-329,-475,-1129
2666,3041,-657,-3,73,-879,-401
2667,3528,7107,-3206,1051,1725,-1756
2668,-6785,-4548,-5424,-1620,-1521,-1478
2669,2765,1840,-4182,-1553,-1716,1487
2670,-6642,-5556,4864,-120,-425,-1948
2671,2293,1584,854,243,-1406,-421
2672,-6767,-3455,-3890,-291,70,827
2673,-5629,-1769,-1551,-1396,1392,170
2674,5420,-39,-969,46,407,-1392
2675,5626,-5514,-6955,1716,1668,1597
2676,4133,-4252,-5444,-908,-1034,1657
2677,-6787,1921,-2258,1533,-1887,1831
2678,-3771,5070,2770,952,-404,1672
2679,-4411,7476,6757,172,154,-944
2680,-4454,-321,1929,1252,-1593,-1291
2681,-4531,7309,-3267,-579,-1803,-224
2682,7879,-7540,3481,721,479,-296
2683,3207,-2672,7334,1248,-1594,-585
2684,-5122,1581,2937,685,-1503,-1154
2685,-7309,5845,-7592,148,-1611,-1967
2686,-6560,3725,-6346,-899,-198,1527
2687,-3359,-3174,-2905,-484,-649,1088
2688,2398,1275,-5067,1524,477,379
2689,-7085,6511,-4273,-1174,-710,496
2690,-4004,-326,3691,95,-667,1125
2691,-2066,-5373,-5183,-931,-850,1610
2692,-1329,-7670,6250,-20,-861,1376
2693,1906,4701,5029,842,1215,-825
2694,-4972,4902,7593,401,-668,1420
2695,1887,-7772,5847,1654,-862,623
2696,-2367,-3194,3683,-1675,746,-606
2697,-3338,-3160,7461,-855,1032,521
2698,2630,-1189,7646,1877,902,1570
2699,-861,5580,5577,-1682,1707,1379
2700,-4708,-1943,5371,-1080,-901,610
2701,2481,-520,-851,-69,-1535,294
2702,2986,-498,1465,-1460,484,1781
2703,-3254,2164,-5945,365,-1477,-938
2704,-698,-3906,1945,1175,1485,-1846
2705,-6562,-4032,4859,-1495,1898,899
2706,7702,39,3117,-214,475,695
2707,4459,1386,1940,365,1005,1929
2708,-3774,5398,-2142,208,1652,563
2709,-810,-6810,2681,1011,864,1623
2710,3281,-2241,-6029,-1393,640,-1133
2711,-5604,149,6133,-945,-1083,-112
2712,-4056,-7714,-384,-1912,1225,-231
2713,-6308,1936,6061,330,-556,1489
2714,-5331,-716,6267,514,1074,-414
2715,1547,-1419,4539,1021,201,-1974
2716,-4699,-3522,-5453,457,-76,-339
2717,6810,-3143,4797,-171,252,-1693
2718,-3508,2464,-3128,955,-1328,-432
2719,3753,-3838,-6847,-1125,-859,-1547
2720,-6561,-2982,-6574,-637,-1845,-1346
2721,1182,5817,1110,-755,419,223
2722,2599,3681,-7731,814,-838,849
2723,-7739,1492,1607,1439,1221,-629
2724,1608,163,2957,1895,-1113,-1966
2725,-26,-4923,5028,1021,-1359,-1423
2726,-190,350,-5065,135,-131,1534
2727,306,7322,-4088,-1720,384,-231
2728,7145,6335,-1994,-732,878,334
2729,2115,7884,919,-549,1309,1406
2730,5642,-2875,-2133,-523,-111,-801
2731,-2093,-4147,-5183,-442,1785,1778
2732,-5570,-7474,5618,-822,-1869,738
2733,-6850,-790,-7905,-710,-1855,1690
2734,-2420,1536,-5717,406,1534,-450
2735,-3899,-2732,3474,-822,-1790,-1269
2736,-6733,5574,-6867,-1549,-546,1991
2737,92,-6875,3666,-112,1275,1490
2738,-7271,2622,-3092,1278,-799,420
2739,1751,-3442,-7195,1232,880,-1663
2740,7039,-2169,3729,1563,1736,-1027
2741,-1009,-6137,-5704,-1781,43,-248
2742,3223,-94,5938,774,1444,-1963
2743,-7178,7996,-3823,1510,-755,1861
2744,96,4061,-2908,1363,-392,988
2745,7747,-833,-5915,-1928,-412,506
2746,-988,984,-2755,-1307,779,-264
2747,267,5979,-7208,-349,-481,921
2748,-6780,-4333,4691,586,820,-351
2749,-4615,-5570,5811,1928,1121,-1737
2750,6318,6745,1544,-58,-1073,-671
2751,-6206,4753,-7419,-1670,-1687,-583
2752,6777,-3340,-5193,1535,-1166,721
2753,-1115,4558,3536,-1748,542,-1350
2754,-6641,6867,-7794,1412,-452,-477
2755,-3185,-5148,-5440,1085,-1864,612
2756,1116,-728,5574,386,-1980,-1915
2757,-6225,4921,6263,-1730,-1103,-1557
2758,-931,7196,-6510,-950,-233,-1307
2759,3738,224,5481,-1155,-165,-267
2760,1333,847,1346,534,-629,565
2761,2547,-540,3283,-1512,-84,-102
2762,-4382,851,491,-1857,941,-1951
2763,6711,-3225,-2308,-89,-1981,-1572
2764,5282,-7879,-1200,-236,-1685,804
2765,-4236,-7985,7773,1870,-377,1922
2766,-840,-690,-6482,762,396,-1493
2767,-6255,1267,7614,-489,-1624,1148
2768,5978,-4288,-4784,592,782,-1852
2769,5347,-5638,2346,-1554,450,-1772
2770,-7060,1759,-4804,-1084,1267,1832
2771,3038,3781,4476,1080,-1494,-473
2772,5718,3017,-402,-1106,897,-1884
2773,-4217,-2820,1668,-1816,1509,268
2774,6782,-854,99,1732,666,1012
2775,735,7767,-1387,-861,1696,-1416
2776,4348,1114,-3947,-1160,693,-276
2777,-1369,-2488,7977,-1613,-279,1753
2778,6885,-6560,-3975,-864,-1985,1465
2779,1432,-4197,1169,-845,-1119,-373
2780,2719,789,5382,-855,-1516,338
2781,-5948,-6125,-7259,272,1128,864
2782,2928,7025,-1666,1399,-1558,1972
2783,-3470,-2363,1946,1223,-1045,1698
2784,3785,-3472,3608,-1320,-793,-125
2785,-3672,1607,1533,-159,-1196,1806
2786,-690,-5646,-4151,-1742,167,-1778
2787,-2873,-2299,4145,-1750,1672,1535
2788,4947,5501,3506,-1349,1524,-322
2789,3511,-65,-6007,-31,-1572,-1247
2790,7496,-4056,-1340,-1049,970,1988
2791,-3428,2624,516,-157,42,1661
2792,-6867,3004,5636,-1877,757,-280
2793,101,-6296,-6901,-161,-1327,659
2794,7947,-1395,-2458,-1228,416,1806
2795,-1623,-5746,-6294,-741,-608,975
2796,-38,4551,4888,-1451,-1060,978
2797,1154,3953,-6749,-888,-1886,-1014
2798,2968,-939,-6275,1630,1891,1429
2799,1383,2038,-1458,1692,-1051,-378
2800,-2773,1171,-6278,-1022,1390,-1520
2801,-4838,313,5824,1482,-129,-1420
2802,1408,-5701,-4462,-1848,-1083,-191
2803,7693,6651,-4131,1542,-808,1302
2804,-4507,-4247,-2948,910,-686,-328
2805,1026,3172,-7333,1180,826,-171
2806,-2104,-3489,-1353,1648,-583,377
2807,7465,4290,1133,247,-1630,30
2808,-864,4261,567,1937,805,1776
2809,-1165,-2640,6490,-376,-1385,-1228
2810,7868,-6565,2401,332,592,1188
2811,5587,3667,-5713,-1303,-1809,-249
2812,5235,-340,5125,245,1751,-746
2813,7712,-4341,2018,922,1895,-284
2814,5982,912,4036,1904,-1690,-237
2815,53,5749,-3561,-1749,421,-648
2816,7852,7926,4395,1554,1141,1916
2817,-1593,-1660,4000,491,-1210,-1349
2818,-6436,1372,-2445,1583,-520,610
2819,-2808,-1410,-1336,-989,1002,684
2820,-305,981,-5930,622,-898,-1216
2821,1048,-2613,-1683,14,-1858,1899
2822,-1023,-5032,-3009,1683,1041,339
2823,5847,3214,-2043,-1148,-1799,755
2824,5506,2151,-7093,771,1252,654
2825,-2125,-7461,-3514,-7,-795,1327
2826,-598,7997,3347,1532,-1815,-637
2827,2225,3633,4537,-1914,509,933
2828,1591,5002,2540,-237,563,-1148
2829,2922,211,4245,1320,-1923,-580
2830,-6766,-2682,-3672,-1164,-48,-261
2831,7353,-1414,-4316,1994,833,1548
2832,-7855,5436,-2915,-1611,-1834,-1648
2833,94,632,-1649,280,194,-1787
2834,-1076,5901,5212,-1143,1672,1049
2835,754,-6845,5241,1560,1451,842
2836,-477,-4041,-3764,736,384,-1389
2837,-1087,3574,-922,1021,265,-1934
2838,6013,6159,674,-1868,453,1480
2839,6227,6301,5321,1121,317,-111
2840,7542,7481,-2664,1135,-442,-274
2841,461,749,5299,835,-1409,630
2842,473,593,-4758,-258,106,-1522
2843,-2726,-3783,1373,-1098,-645,1488
2844,5242,-3728,5148,-1817,-1708,-1376
2845,6888,-1242,7488,-254,-273,207
2846,-2470,-5967,7437,-500,-334,-1135
2847,4869,-6859,5248,1568,-1672,1621
2848,-6570,1115,-3043,-1451,1306,-1276
2849,363,2032,5283,1667,-1847,1152
2850,-1024,-936,-4123,-5,575,1806
2851,-934,3507,-801,335,1461,1378
2852,7600,-3093,5918,144,90,-1589
2853,7542,-7369,7543,9,-154,-1063
2854,-7386,2360,-5602,256,-151,-705
2855,7456,4403,-1789,-973,-1968,1244
2856,-5130,4606,-6124,-681,-756,928
2857,-1220,-6813,7968,965,1130,-694
2858,-7592,-4909,-1504,-48,-1273,-1326
2859,-6916,448,-5828,-1047,-1379,1457
2860,-2034,5119,-7293,214,171,-1163
2861,6867,865,3758,1841,-814,1441
2862,6399,2906,4281,-1,-1602,1828
2863,-749,139,-6050,-1876,-1106,243
2864,-6020,-6957,-5065,-313,-1431,1419
2865,-7891,-6866,-4342,1895,-845,313
2866,5892,-2037,-7857,-1682,-1888,1349
2867,-540,6017,6292,-111,-1889,1941
2868,7143,-4914,7010,-1489,-543,-789
2869,-325,-5841,-1435,-19,1497,-613
2870,-6112,2331,-5977,788,724,1468
2871,-7755,203,-6992,-525,-13,-1071
2872,-4598,3894,7277,1817,1714,-1548
2873,7829,7355,-1115,-376,-1759,329
2874,6302,-7073,5251,1878,-1503,-1142
2875,-6535,-5247,-343,-1908,-1370,832
2876,1887,-6950,-5393,-685,1589,-145
2877,-4388,-2153,4264,-573,-1360,390
2878,-5782,5449,1035,1417,1018,1808
2879,-2868,1079,-2006,1738,1695,1470
2880,-2137,-5884,-5028,1437,707,-434
2881,3044,7753,-2204,-1720,-76,1892
2882,-3587,1777,-6172,-1993,618,647
2883,-2503,3923,-4548,-17,1415,-1885
2884,6434,2008,-5052,1577,-568,397
2885,-4021,-2643,1406,619,1011,-1243
2886,-6350,7833,4114,1185,274,-160
2887,-7352,6276,-3148,354,-1762,-1940
2888,-5128,6566,-1656,-1624,1446,-980
2889,6982,-298,956,-636,-366,-1826
2890,-4251,6311,2689,-383,1335,-646
2891,-1554,-2652,5446,-535,-1853,1870
2892,7999,-7221,5318,-1111,524,542
2893,7911,3326,-2889,-392,-1540,-682
2894,4201,-7556,-6044,-1858,40,589
2895,7745,-3936,4874,256,313,-1342
2896,-2643,-6682,2617,1366,748,-686
2897,7400,5405,-5617,1317,848,977
2898,3962,923,7869,-882,-1956,-60
2899,3114,-3589,-4854,1613,-805,224
2900,4980,7170,-3157,1907,626,897
2901,-667,-7793,-1659,-645,1730,200
2902,1029,-7936,-1421,1561,-526,-1376
2903,4206,-7728,-6183,1875,-1766,-1002
2904,-818,7190,4370,-205,1711,1868
2905,-5794,-2876,-7980,1001,-162,1717
2906,3736,6723,-1030,957,1935,964
2907,-3022,-6831,-4196,-378,1630,-1201
2908,6618,7034,2150,128,1318,489
2909,1805,4906,3476,-1754,440,-1172
2910,-4512,-7029,-257,-1469,1792,-50
2911,19,-3382,-5081,303,-368,-66
2912,6970,-4623,3416,-1331,96,1251
2913,-7324,5660,-7613,777,-902,-1839
2914,1951,7732,-7961,1405,-1438,-1864
2915,-1179,-4517,4933,-1697,-1974,-710
2916,7646,-3836,-37,-267,965,1845
2917,4146,1296,-66,-1766,220,-975
2918,3850,658,3455,-1337,-1900,1644
2919,-7996,-3910,-2673,-386,-21,27
2920,1380,-7757,-7967,1480,-1259,1902
2921,-902,6900,-6247,-1737,-745,1592
2922,3545,-6152,-3391,-272,290,-723
2923,7607,4892,-1384,626,962,74
2924,6859,864,235,-1184,-1754,-1089
2925,3440,3919,3722,-1143,1839,-1447
2926,-3359,674,-418,1519,-1653,90
2927,3609,-4099,-6814,788,1217,-1218
2928,-1850,-1406,1523,-88,-357,-467
2929,1831,-7886,-4590,-1605,-504,1392
2930,3365,570,-2998,230,1990,-493
2931,190,2837,3749,354,-1805,1826
2932,-4009,5378,5234,-769,-1694,56
2933,7084,6025,-7681,52,-1576,-1642
2934,4780,-385,-7499,-862,-914,1087
2935,7242,-2200,488,1992,-905,965
2936,-3885,-641,-1112,1621,509,-708
2937,-2737,-3783,-7877,1268,660,-485
2938,-6075,488,-4856,-1126,1980,-497
2939,3576,-4237,-5415,1865,777,968
2940,-5995,4454,5650,-637,-1257,-1693
2941,309,-5148,-2509,-1031,-1203,-1502
2942,4087,-1949,-4276,1596,120,1646
2943,-5651,4214,2516,1927,-654,-773
2944,-4764,-4524,5689,-1803,1313,571
2945,2058,3464,-4480,1459,-826,96
2946,6739,-368,1878,-437,-430,1472
2947,2405,337,5825,-452,1422,-1967
2948,7397,7362,-6381,-12,-647,1275
2949,-4843,3727,4726,1057,1339,-1977
2950,2646,927,-220,264,512,284
2951,-5332,-3624,-4283,-1873,1405,-1770
2952,-3336,4417,-1406,1935,-911,-1519
2953,-5983,5363,3933,-941,-301,305
2954,936,3219,7590,-140,1752,-933
2955,-4386,-5228,2867,-814,-311,1997
2956,1735,961,-6616,430,174,-1416
2957,5137,5587,-374,308,395,259
2958,2715,6639,1012,1743,491,-1746
2959,-1316,-460,2214,-1141,-1735,1609
2960,4996,-1022,687,-1127,1819,1480
2961,-5917,1562,-1361,787,1073,832
2962,4292,3708,-7578,-250,-630,1699
2963,-6069,6995,4175,-719,1742,-741
2964,-4557,1724,120,565,420,913
2965,-1237,-7977,300,1116,402,-848
2966,4531,-430,-2448,28,-52,231
2967,-1269,-4117,905,1081,-1379,-1800
2968,-1865,-2203,3381,217,-2000,-1672
2969,-2338,4641,4540,-526,390,703
2970,1575,7709,-3323,-1323,556,1493
2971,2350,3280,-3730,-620,950,1621
2972,5503,-5420,-2306,1967,1015,412
2973,5854,-7818,-4399,141,-513,653
2974,-3667,5527,-3947,-825,-1109,-1882
2975,1817,-1837,-4467,215,-400,-138
2976,7223,-1748,-66,-626,-1371,-1123
2977,-7516,5921,-3271,399,1715,1400
2978,-4367,-1958,-3377,-1662,-886,741
2979,-3226,3885,-2866,1074,1236,-381
2980,1052,6688,-360,1801,-1675,-871
2981,-6249,1542,-6778,-1136,-1589,514
2982,-5213,5165,-288,-343,-1763,1870
2983,-5423,-3190,-1476,1381,371,-720
2984,7809,-799,6110,1838,-919,1778
2985,-4190,843,7308,-39,373,-885
2986,627,3235,-7596,739,-1420,-1254
2987,-7139,-5528,4738,1596,1273,-1389
2988,-2143,1016,1037,-399,-1082,1269
2989,1786,6572,-5210,-392,1238,2
2990,-7042,-6149,2163,16,1503,1943
2991,4340,-4011,7161,84,614,-930
2992,-3317,4554,3551,-749,-13,-1057
2993,6853,-5382,4514,-965,984,-1610
2994,-1606,6948,-5001,1227,-730,-1828
2995,-2566,-5807,5794,-1946,-206,-1360
2996,-189,6060,3371,-1403,-155,-377
2997,-4836,2790,1130,-994,-1128,-229
2998,1661,876,2446,-1638,-1772,782
2999,-6680,-4406,6353,1572,-710,1622
3000,-4982,-2499,-2086,842,1265,832
3001,2942,5091,4167,-1935,-813,1684
3002,-7277,7726,-3303,91,-60,1450
3003,5182,-4174,-4492,-1295,1210,1739
3004,-1220,4032,7771,875,1742,416
3005,324,-4396,7205,59,-1433,1562
3006,-3362,-7030,359,-770,-1724,1903
3007,2718,5845,-6101,820,-214,1011
3008,7406,-637,269,1604,1792,-403
3009,-2113,561,-52,1164,1278,231
3010,-499,1993,242,-1731,-862,551
3011,6884,-1294,3591,-1398,1131,513
3012,7438,4140,-3402,-1452,260,-105
3013,-5246,3530,6432,1518,1488,712
3014,-7505,-3878,-2493,344,417,-1991
3015,-6566,-2590,6623,1195,448,-1788
3016,-5537,-2118,-923,-1885,714,1291
3017,-6607,-1078,-6784,492,-656,1635
3018,-3250,916,7391,-1645,-868,368
3019,4304,-3980,-2173,316,1577,-1208
3020,2968,-1315,-1587,765,789,-283
3021,7883,5841,899,1833,-1070,1526
3022,665,-4304,-7579,1711,-41,346
3023,5554,-6450,-6084,1909,1727,1327
3024,3700,3498,2113,-1093,-1051,1811
3025,-6037,-760,5402,502,1856,-160
3026,4299,4713,6755,1139,1768,660
3027,2422,-7420,-4345,-1957,-712,-1223
3028,4123,-1989,-3386,-1944,1989,-1321
3029,-207,6719,3099,962,1599,1969
3030,7138,4655,-5950,1125,-126,1542
3031,-2055,5400,4819,-1394,55,1106
3032,2644,3,5194,3,-1492,-1506
3033,-5342,-3103,-335,1442,-1107,-952
3034,-5290,4472,2378,-1659,-280,-747
3035,-863,-7859,7040,-471,-1483,-1687
3036,-3194,2243,3295,1008,1955,1315
3037,4266,3990,-447,-180,1720,-1549
3038,1812,3288,1239,-929,-1974,338
3039,-1483,7412,-3108,1532,-1972,-902
3040,6402,-4626,-7339,-517,1131,-771
3041,-5149,5167,7453,780,1362,33
3042,7821,6609,3197,479,-210,183
3043,6148,4675,-4682,969,1914,-799
3044,6373,-3334,-6107,-1352,1559,248
3045,3110,-5091,-4978,156,-451,1092
3046,3951,5079,3845,-852,1647,-159
3047,-2995,-1721,7138,1776,841,-678
3048,7895,-704,-4869,-588,-1002,1579
3049,-5816,7687,2934,402,1395,-1907
3050,3992,-3982,-7050,1262,835,-108
3051,-7505,-2782,-2527,-1503,596,1112
3052,-5364,4012,6457,1790,729,1641
3053,5428,6276,-7204,-719,1872,598
3054,-3392,7233,-6229,176,-377,-167
3055,-3147,739,2977,1882,213,624
3056,-2535,640,6949,837,183,1824
3057,3120,2951,-6706,-1870,-1938,485
3058,-402,-3261,2833,-830,1066,329
3059,-6206,-6563,3564,1443,69,-1339
3060,-5556,-2349,-7149,710,1577,-737
3061,-2807,6365,-5188,1207,-758,1354
3062,5953,-6224,-2544,1675,-556,1708
3063,-7398,-4559,-3211,354,-1383,-829
3064,-4605,-1788,4501,1169,-451,-1331
3065,-7325,-4678,6998,778,1875,-1183
3066,-3403,-7665,5757,1693,-470,-1325
3067,2036,5722,-3749,-1615,-19,-1457
3068,6740,4239,-5074,-847,1910,138
3069,-7737,-4615,882,-645,-1763,-570
3070,6335,728,-1720,1222,-1134,1355
3071,3201,1730,-338,-846,-461,1445
3072,4332,4169,1142,1544,1826,1498
3073,-6750,-3403,-3370,-668,52,-611
3074,-606,684,6539,1398,-1838,278
3075,7733,5484,4066,1362,-1306,-1438
3076,4141,-5820,5837,-1374,-183,764
3077,5046,3215,-4284,-811,1512,-1670
3078,-7169,-4950,-5986,-1738,1795,1115
3079,-6573,-1169,361,278,-490,-1051
3080,-5636,-4378,5063,1647,-1945,1355
3081,-930,-7207,-7708,-1204,-856,-1352
3082,-7242,6524,7988,296,-1808,-143
3083,-1542,-7444,-1926,33,-120,-1509
3084,-5944,1522,5264,31,717,1708
3085,5196,-4218,3070,977,-1886,-1820
3086,-6185,-4009,-5679,-1452,-1662,-931
3087,-595,4294,-692,1341,125,78
3088,6214,-3081,-6161,297,1865,-43
3089,3179,-636,3060,1611,-1354,2
3090,-4331,-766,-7937,-1777,-197,1896
3091,-6177,-507,3172,867,-782,-1142
3092,-5552,6394,-3075,1663,-1001,1579
3093,-6579,-7776,-4991,-1282,-1052,-401
3094,276,-7813,1661,-1364,-1685,-1904
3095,4748,3666,-2373,-1239,-1312,-1245
3096,-3876,4545,2938,228,586,-144
3097,-6753,4068,-3029,-61,1877,1663
3098,3336,6211,-1555,-927,-467,-1700
3099,7509,-7617,2781,1562,-1452,-1993
3100,3357,-2302,-2260,-1557,-1557,-1864
3101,-2577,7666,-7376,-1835,-1872,-491
3102,6587,-913,-4716,1233,1635,-1203
3103,6088,-6031,5582,-896,1672,-842
3104,5353,762,-3839,-1809,118,1151
3105,3690,-2005,3018,-778,349,431
3106,-2637,-5959,-5458,-1120,1876,941
3107,-7834,-3403,-2702,-716,1369,-1388
3108,1850,-1282,5560,860,380,893
3109,2146,-4897,-3512,-248,-1577,1210
3110,5000,-3491,-4720,-1619,1855,1435
3111,-1607,4885,-7370,-960,-32,301
3112,6543,-7986,481,-1253,687,1262
3113,4690,554,-4023,-1040,1762,-1576
3114,4056,-2906,4872,91,445,571
3115,5023,-4248,-6247,1823,-30,-1985
3116,-769,7150,-1697,1083,1761,-1035
3117,2646,-6759,-1814,-1151,-315,-899
3118,-5206,4714,-5686,-627,-1314,-120
3119,2922,-1674,5412,1261,1259,1307
3120,1702,82,1996,-301,-1650,-1500
3121,7813,2395,-1238,-1739,-890,711
3122,-1282,3310,6550,-1726,1064,698
3123,1779,-2363,7777,1304,-1184,1569
3124,-1482,-2523,2965,1326,-1250,183
3125,7472,4875,-3115,-722,-1218,-289
3126,-2658,-6689,5491,-911,732,654
3127,-6280,497,-2299,250,-1908,-417
3128,-5473,505,-1304,409,-1214,1042
3129,-6144,-5496,-6369,926,45,899
3130,-7303,1696,6641,1347,981,-1322
3131,714,-2661,-5091,202,-1569,264
3132,5901,-3792,-3002,882,-1514,645
3133,-2643,3611,-2343,-1447,-842,36
3134,-5911,21,-2522,-701,-993,1580
3135,1529,-5341,-4109,722,-600,-1014
3136,-1774,2326,-3926,744,-1521,-1446
3137,-3090,4159,-5840,-1121,-1130,1940
3138,-3935,-5775,5278,1221,-535,1311
3139,-7243,7518,3725,1936,-8,1193
3140,-7736,-6283,7474,-1922,1570,1994
3141,7208,1777,-3422,808,1947,795
3142,-6225,2492,-4022,-1634,-1243,1000
3143,-3251,-6332,5517,-90,-351,-599
3144,-1643,6115,6961,1570,746,-1479
3145,7665,-4677,-6180,-1143,1489,1483
3146,-708,-5714,6339,1062,-902,-1683
3147,-4942,-6472,-3175,879,-1102,-1348
3148,5508,3623,-1178,-880,541,-1446
3149,2696,5973,-6468,827,423,738
3150,4798,369,7273,-244,1451,-1840
3151,5258,-3959,5335,-1943,-1442,1897
3152,-3249,385,1055,-616,847,320
3153,-2012,5622,2933,-65,1355,-1120
3154,1533,1126,3344,-401,-1191,-1330
3155,5881,-5699,1085,1600,-1743,485
3156,4423,-5341,-4956,1423,1341,231
3157,4315,-2228,-5623,1078,1193,98
3158,-3426,-2159,5540,1029,897,499
3159,-198,-5220,859,1069,1438,1735
3160,5403,-6867,2490,1497,-335,1192
3161,512,-3769,-3049,-1760,586,460
3162,-3062,-6931,6291,1659,715,233
3163,-199,-584,-1716,-1254,-21,1398
3164,3347,-1842,3941,1253,5,575
3165,3279,-2181,7587,76,39,-697
3166,-2965,-3389,4503,1110,-1263,-1435
3167,5177,-3796,829,-485,505,-833
3168,3936,-145,4184,1855,1312,1928
3169,-3187,-5690,1368,511,454,519
3170,7216,7689,566,-1382,-955,-1246
3171,6014,-19,4209,42,651,-563
3172,3288,-4541,-528,1802,1780,1167
3173,1299,4556,5537,-1672,-592,-367
3174,-3434,-5687,-2738,1787,1873,1795
3175,415,1030,-2938,21,1812,-60
3176,7957,209,1218,1211,336,983
3177,-444,-163,570,1105,-803,1188
3178,6138,-6503,-1095,-1981,1946,-59
3179,-2656,-3328,-4964,474,265,-1894
3180,7090,6531,4993,701,-1781,-190
3181,-4135,-3802,3878,-1590,-434,-1460
3182,6610,-7983,-1042,-1210,-458,1485
3183,3838,-7749,7885,330,-1905,-452
3184,-7065,1812,6511,1376,-514,-780
3185,-4611,-2540,-1439,620,-15,600
3186,-1714,-4919,2647,1840,-1402,-1085
3187,635,-865,-4622,959,-499,-1043
3188,-6070,-1082,-7814,-1681,1435,-1239
3189,-7343,4400,-674,757,1177,-1631
3190,6822,3543,-1901,-225,1491,387
3191,6934,1626,-492,1410,-28,-1899
3192,2595,-67,-4054,1108,-1725,1751
3193,-2103,1082,7452,-1339,1481,-530
3194,-7469,-717,-7034,407,-695,964
3195,-3040,-7612,-1356,-1928,135,121
3196,2471,-5962,-7291,427,-341,-875
3197,6472,-4956,-2611,1545,428,-821
3198,-3465,-6579,-4879,156,-488,1355
3199,4432,136,-3770,-304,-1544,272
3200,-7913,7316,5240,-317,-1491,125
3201,912,-2534,-6614,-1455,-1974,1179
3202,-6923,-1738,5435,1115,1875,1656
3203,2201,-2069,5032,1439,1590,-1754
3204,-6601,-1124,-104,-418,-1319,1349
3205,-4038,-476,6264,-588,-677,1169
3206,5109,2320,-4613,-374,-247,-959
3207,-2800,-6387,-1649,341,822,894
3208,-658,691,-661,1156,226,1227
3209,7426,1263,919,-7,-644,860
3210,3609,-2964,4824,-505,-913,-1167
3211,-4302,294,5098,1325,1631,-87
3212,3697,-4431,7824,-757,957,1358
3213,-5426,4293,321,332,-643,-1122
3214,-4329,6864,2172,-1640,206,-474
3215,-5226,705,-7049,1023,-555,-302
3216,-2944,-3023,-7224,1624,741,-518
3217,-6215,-2398,3422,-1539,1500,-1853
3218,-5990,5877,5849,1580,1458,1380
3219,4321,904,-6872,-545,-387,-1356
3220,-6798,-6712,-5702,609,1620,-142
3221,-1309,1953,-5882,1693,1745,-500
3222,-7036,-7674,1883,744,-461,-1519
3223,-7379,7664,-7700,-511,-359,-294
3224,2854,-5525,2075,245,1318,476
3225,1741,5146,7741,-1141,-785,31
3226,6377,1418,-5034,1907,-684,-636
3227,-544,-4058,-2988,-1352,1784,-1749
3228,-2263,3046,-6540,883,177,1162
3229,-5484,-78,-3500,103,1994,1528
3230,-914,-3947,4023,-729,1727,-1685
3231,1682,3586,-2021,-1574,820,266
3232,446,-6141,3050,637,-1031,-1432
3233,-3558,5357,-4738,1663,1087,-455
3234,5251,7642,-3252,1225,-742,-517
3235,-5344,-670,-2403,110,1794,1108
3236,2709,-6933,-1767,-579,-1874,257
3237,-132,7195,5511,-1817,-251,1512
3238,-3982,-1037,4153,-629,856,847
3239,-3365,-2009,-6569,-1032,1515,-1278
3240,442,-2490,4170,369,620,-561
3241,4062,3818,-6419,1883,-1429,-226
3242,-2076,7514,-145,1832,1369,1085
3243,4700,-2646,7025,595,894,1930
3244,7598,1879,1541,-1597,416,1625
3245,5191,-3115,4675,-1746,838,862
3246,1751,4683,7523,1532,-498,-1921
3247,3624,5987,-858,-1528,-649,-52
3248,-5008,4484,-5963,793,-1660,1918
3249,-1842,-1844,-5042,-1609,234,726
3250,5741,-6415,-4094,1983,-1845,1663
3251,-2929,-1068,3964,486,-1512,1873
3252,2728,6879,2625,-1743,1361,877
3253,-4102,7127,-3227,1520,1099,-253
3254,7572,5319,-4594,1993,-1244,-1166
3255,-1391,-5534,2945,-234,418,993
3256,1024,1071,5482,-1176,-230,263
3257,-5246,-4275,6706,-1252,1257,693
3258,-5225,-7800,-6185,-1366,1268,1538
3259,-839,-2234,4778,807,1918,-563
3260,-1704,2878,4919,48,1830,77
3261,-5893,5738,3346,187,-984,8
3262,5385,2542,-395,177,-973,1480
3263,-1939,3969,-820,363,847,-1879
3264,2166,4582,5546,1712,-997,-22
3265,2749,-4657,397,-544,1822,709
3266,5096,4050,4106,-715,-784,1448
3267,7885,5321,-7574,-573,-1008,1134
3268,-7703,4121,6196,-1563,1972,1173
3269,1671,-6166,-1237,-1708,1799,-1446
3270,-4851,1479,-3348,1611,-1530,-1597
3271,7488,-7580,-4867,1456,-526,-570
3272,-3346,4647,6817,-1167,1884,614
3273,2937,6348,5184,-635,856,-1544
3274,-2224,5205,5751,-510,159,948
3275,-4020,21,2744,16,-156,-1981
3276,5043,-7830,-7433,1775,-1692,-862
3277,158,1908,101,-1034,1429,-1290
3278,4913,-3264,5070,-974,-402,-1884
3279,1038,1416,-2787,-586,-39,415
3280,-5899,-5569,-657,1152,511,334
3281,-584,7658,-4521,-1292,-1266,310
3282,7401,-4976,-4071,-149,-733,-754
3283,-315,3929,-6116,-1491,824,-1980
3284,593,-2427,-4483,334,-666,-1803
3285,-3471,4530,-2987,-1229,-450,679
3286,-3039,4802,3460,-1584,-957,-976
3287,587,2097,-6655,-1286,-1120,-1975
3288,-4461,4780,2281,830,-916,677
3289,-1584,-5362,-1672,1378,1617,-616
3290,6324,1946,-6763,43,-954,-1828
3291,-1497,-6580,-2980,1012,-177,535
3292,4454,-4759,-3946,95,235,1061
3293,7483,3370,4373,1849,-453,-1683
3294,-6224,7580,2996,1797,418,292
3295,-3527,4781,1974,1738,-1052,604
3296,1576,-6264,-7061,1884,-1064,-935
3297,-7709,-4625,-6192,-1068,-1886,1765
3298,-6107,3338,-6006,-218,1262,-968
3299,-6611,-915,-3160,-1733,548,-547
3300,4722,-774,5261,1022,584,-1642
3301,-6519,5532,-4087,-1004,374,1200
3302,5104,-2215,813,-1285,-1851,392
3303,-7157,7117,-5438,1607,1609,-425
3304,7406,650,7858,405,-340,362
3305,2564,-6757,-2038,439,-684,-1023
3306,3060,-6610,-6554,1373,-5,319
3307,-2028,5679,7716,-1923,1126,-1808
3308,6742,-3398,1203,-634,-1985,385
3309,3567,-2148,2838,228,1130,-904
3310,3935,5922,2117,1288,889,-1020
3311,-5972,3125,6780,302,1030,-654
3312,-7396,6695,-4269,-39,-311,-176
3313,2837,-460,1520,522,1086,-771
3314,728,-5300,-4571,1968,761,1182
3315,5792,-745,-1548,-1205,1211,166
3316,-5653,2201,3164,-1651,-420,263
3317,-3810,6563,-1766,-1435,101,1201
3318,7049,-4991,5150,-1890,717,1535
3319,-3342,-4082,-6049,-1216,-1332,176
3320,-604,-2155,4004,-708,-1408,1777
3321,-5199,7757,1099,110,-1598,-839
3322,1799,60,1549,-1678,-1993,554
3323,-1269,2723,-1957,-1649,-832,551
3324,-2256,3716,5912,209,1703,-82
3325,-5608,1143,-5070,845,-107,-1942
3326,-5243,-7378,-1960,1928,421,-168
3327,1963,2263,5359,-961,-217,-1648
3328,1914,-6162,7575,695,-860,-1513
3329,-6158,-1962,2449,1195,1598,-281
3330,-3064,-622,1676,1615,-572,1821
3331,-3342,-1404,1260,-635,791,394
3332,6105,7475,3799,753,528,-582
3333,2722,4632,4861,-28,1529,1819
3334,-2443,269,583,-987,-1904,-542
3335,-5423,2969,5785,516,390,1774
3336,-7462,3631,3098,1490,-160,184
3337,-5255,-663,6635,-657,-846,-1723
3338,-5810,-5255,-132,-1796,799,-1467
3339,-6008,-2375,3163,-1555,-1031,1382
3340,5171,1369,2593,325,-1357,-640
3341,2826,7827,4802,169,472,988
3342,-3148,4224,-6020,785,-1485,-1036
3343,5944,1061,-5226,-371,-39,42
3344,-2756,595,-470,-1908,1680,-1532
3345,-6597,-2308,5412,-702,-1302,-228
3346,-7737,7248,6080,-465,1848,1002
3347,4532,-610,-7470,-1093,-1767,554
3348,1280,-6196,-1624,1397,-50,1113
3349,4600,-4850,-6296,-354,-458,-1942
3350,69,281,6091,1499,916,-301
3351,200,-1989,-7739,-1055,1265,934
3352,-2820,-2577,2266,-1141,-1765,-434
3353,2543,-1183,850,-794,-907,-1997
3354,-5858,-2369,-4539,1387,-1866,-516
3355,3425,-5334,1124,1799,748,-1063
3356,729,-4248,-3081,751,-1557,1050
3357,-1900,-2899,6994,-1398,735,-1256
3358,4386,2625,4990,87,454,366
3359,-6205,2513,-7826,808,272,-1315
3360,7504,-3685,3700,1421,1786,310
3361,4426,-1309,2928,905,857,1192
3362,862,6542,-6477,-1264,-1626,-1948
3363,3216,-1666,-6069,-835,1808,-973
3364,-2906,-2147,2544,-1241,136,1868
